"Time (s)";"Acceleration x (m/s^2)";"Acceleration y (m/s^2)";"Acceleration z (m/s^2)"
0.000000000E0;-1.606509328E0;3.151966572E0;9.204508781E0
1.577262500E-2;-1.681926727E0;3.100491285E0;9.293093681E0
2.865993700E-2;-1.719036818E0;3.056198359E0;9.329007149E0
4.009209300E-2;-1.752555609E0;3.053804159E0;9.611522675E0
5.086717100E-2;-1.586158633E0;2.975992680E0;9.597157478E0
6.121121000E-2;-1.545457244E0;2.983175278E0;9.416395187E0
7.137073000E-2;-1.602918029E0;3.118447781E0;9.276334763E0
8.143949000E-2;-1.562216640E0;3.155557871E0;9.172186852E0
9.171687000E-2;-1.557428241E0;3.159149170E0;9.127894402E0
1.017940600E-1;-1.563413739E0;3.162740469E0;9.081207275E0
1.216142020E-1;-1.632845521E0;3.134010077E0;9.056067467E0
1.415804880E-1;-1.610100627E0;2.870647907E0;9.388861656E0
1.515953690E-1;-1.637633920E0;2.949656487E0;9.526528358E0
1.616528090E-1;-1.584961534E0;3.100491285E0;9.506177902E0
1.717495290E-1;-1.453280449E0;3.183091164E0;9.289502144E0
1.923130690E-1;-1.076193690E0;3.123236179E0;9.217676163E0
2.117747040E-1;-1.264138460E0;3.130418777E0;9.683348656E0
2.316506130E-1;-1.300051570E0;3.195062160E0;9.459490776E0
2.417214310E-1;-1.411381960E0;3.117250681E0;9.125499725E0
2.616785450E-1;-1.583764434E0;2.908955097E0;9.126696587E0
2.816038230E-1;-1.570596337E0;2.853888512E0;9.457097054E0
3.017041430E-1;-1.054645896E0;3.114856482E0;9.744400978E0
3.215772230E-1;-1.200692177E0;3.072957993E0;9.594763756E0
3.418152430E-1;-1.507149935E0;2.780865192E0;9.518148422E0
3.618217480E-1;-1.666364431E0;2.744952202E0;9.538499832E0
3.817073740E-1;-1.423352957E0;2.779668093E0;9.414001465E0
4.016652810E-1;-1.215057373E0;2.845508814E0;8.799888611E0
4.215772570E-1;-1.449689150E0;2.936488390E0;8.821435928E0
4.315977530E-1;-1.413776159E0;2.965218782E0;9.488221169E0
4.516166250E-1;-7.062895298E-1;3.564966440E0;1.008916569E1
4.717198430E-1;-7.565677166E-1;2.705447912E0;9.173383713E0
4.817300460E-1;-8.212111592E-1;2.255337954E0;8.517372131E0
5.017989490E-1;-1.352723956E0;2.580949545E0;8.450334549E0
5.217424240E-1;-1.329979062E0;3.045424461E0;9.005789757E0
5.317528370E-1;-1.380257249E0;3.122039080E0;9.504981041E0
5.516671460E-1;-1.154005170E0;2.938882589E0;9.963470459E0
5.618366980E-1;-7.589619160E-1;2.233790159E0;9.374496460E0
5.718649740E-1;-4.776432514E-1;1.827973008E0;8.887276649E0
5.917431810E-1;-5.877765417E-1;1.950077295E0;8.055291176E0
6.115917320E-1;-1.290474772E0;1.759738207E0;8.586804390E0
6.217729910E-1;-1.619677424E0;1.531091928E0;9.220070839E0
6.417869350E-1;-5.877765417E-1;2.992752194E-1;1.068651962E1
6.616104210E-1;6.464344263E-2;-8.858546019E-1;1.144548130E1
6.815880420E-1;-4.548983276E-1;-2.585737705E-1;1.184291840E1
6.916106460E-1;-2.430114746E-1;-1.233013868E-1;1.177707863E1
7.016129480E-1;2.992752194E-2;-2.992752194E-2;1.220324612E1
7.217766740E-1;-1.041477770E-1;-5.973533392E-1;1.151970100E1
7.317954620E-1;-1.508347094E-1;-1.048660398E0;1.036210537E1
7.516903030E-1;6.703764945E-2;-1.310825467E0;8.819042206E0
7.715867630E-1;-6.464344859E-1;-4.668693244E-1;8.299500465E0
7.816275060E-1;-4.572925270E-1;-1.077390742E-2;8.659827232E0
7.916283780E-1;-1.364694983E-1;2.597708702E-1;8.816647530E0
8.115740320E-1;1.352723986E-1;6.476315856E-1;9.862914085E0
8.315584450E-1;-4.668693244E-2;2.597708702E-1;1.217810726E1
8.416538470E-1;-2.142810524E-1;3.591302410E-2;1.208592987E1
8.617576490E-1;-3.112462163E-1;-5.111620426E-1;1.043393135E1
8.817018490E-1;-5.315127969E-1;-1.341950059E0;8.501810074E0
9.017621490E-1;-1.450886250E0;-1.016338587E0;8.699332237E0
9.216524740E-1;-1.827973008E0;-3.567360640E-1;9.338583946E0
9.316648620E-1;-1.444900751E0;-2.466027737E-1;9.514557838E0
9.418870560E-1;-1.514332533E0;-5.398924947E-1;9.740809441E0
9.617157010E-1;-1.197100878E-1;5.255272985E-1;1.259230423E1
9.817593620E-1;-7.410054207E-1;4.620809257E-1;1.172081470E1
1.001598528E0;-2.154781520E-1;1.264138460E0;7.876923561E0
1.021561819E0;-1.013944387E0;1.783680320E-1;6.244078159E0
1.031578534E0;-1.260547161E0;7.769184709E-1;8.318654060E0
1.041592392E0;-4.429273009E-1;1.205480576E0;9.472659111E0
1.061796035E0;-4.261679053E-1;1.607706428E0;1.017056847E1
1.081691196E0;6.811503768E-1;1.795651317E0;1.014782429E1
1.101934486E0;1.556231081E-1;1.243787766E0;9.360131264E0
1.121705809E0;-3.387795389E-1;7.314286232E-1;8.201337814E0
1.141774889E0;-9.193734527E-1;9.481038451E-1;1.055124664E1
1.161619909E0;2.082955539E-1;6.703764796E-1;1.060272217E1
1.181602664E0;1.285686255E0;1.182735682E0;9.885659218E0
1.191782957E0;1.320402265E0;1.680729628E0;1.002093124E1
1.201794603E0;9.516952038E-1;1.679532528E0;9.682151794E0
1.222668588E0;8.140286058E-2;1.647210717E0;9.012971878E0
1.232715919E0;-1.197100850E-3;1.369483352E0;9.317035675E0
1.251976667E0;1.158793569E0;6.057330370E-1;1.031541824E1
1.273238854E0;1.103726983E0;1.486799240E0;1.109113979E1
1.292028401E0;1.025915384E0;1.340752959E0;9.985017776E0
1.311771037E0;1.290474772E0;1.703474522E0;9.185355186E0
1.321966643E0;1.012747288E0;1.679532528E0;9.033323288E0
1.341677848E0;9.301473498E-1;1.426944256E0;8.890868187E0
1.361610399E0;1.836352706E0;1.671152830E0;1.038484955E1
1.381959037E0;1.962048292E0;1.701080322E0;1.011789608E1
1.392069643E0;1.714248419E0;1.046266198E0;9.356540680E0
1.411678598E0;1.589749932E0;4.991910458E-1;8.945934296E0
1.421783924E0;1.995567083E0;3.196259141E-1;1.044709873E1
1.441611668E0;1.095347285E0;-5.865794048E-2;8.159439087E0
1.461646604E0;3.045424461E0;2.308010340E0;1.113782597E1
1.481592088E0;2.948459387E0;1.580173135E0;1.023760605E1
1.491602169E0;2.363077164E0;1.885433793E0;9.227252960E0
1.501603209E0;2.404975653E0;1.567005038E0;8.305485725E0
1.511606729E0;2.661155224E0;1.210268974E0;7.890091896E0
1.521610989E0;2.416946650E0;6.859387755E-1;7.972691536E0
1.541595184E0;2.598906040E0;7.553706169E-1;1.005684471E1
1.551718717E0;2.716221809E0;1.060631394E0;1.043153667E1
1.571585366E0;2.649184227E0;6.871358752E-1;1.021965027E1
1.581683308E0;2.627636433E0;8.822633028E-1;9.526528358E0
1.601696764E0;2.673126221E0;1.170764685E0;8.360552788E0
1.621670628E0;3.324349165E0;1.041477680E0;1.097142887E1
1.641668844E0;3.180696964E0;1.118092179E0;1.002931118E1
1.661605398E0;2.691082716E0;8.152256608E-1;9.306262016E0
1.681671537E0;3.047818661E0;1.133654475E0;9.526528358E0
1.693733393E0;3.244143248E0;1.271321058E0;1.011191082E1
1.711539250E0;3.456030130E0;1.477222443E0;1.102290440E1
1.721583250E0;3.649960518E0;1.517923832E0;1.097023201E1
1.731615250E0;3.634398222E0;1.562216640E0;1.049618053E1
1.751525250E0;2.821566820E0;1.134851575E0;9.594763756E0
1.762174250E0;2.577358246E0;9.421183467E-1;9.546878815E0
1.772532250E0;2.330755472E0;7.793126702E-1;9.765948296E0
1.791675250E0;1.869871497E0;4.129997790E-1;9.585186958E0
1.811576250E0;2.155978680E0;9.097966552E-1;1.029506683E1
1.831535250E0;2.790441990E0;1.375468850E0;9.968258858E0
1.841657250E0;2.748543501E0;1.308431268E0;9.676166534E0
1.861550250E0;2.511517525E0;1.265335560E0;8.906430244E0
1.871612250E0;2.396595955E0;1.238999367E0;8.669404030E0
1.891527250E0;2.088941097E0;8.786720037E-1;8.892065048E0
1.901585250E0;2.142810583E0;7.745242715E-1;9.562441826E0
1.921555250E0;2.436100245E0;9.145850539E-1;1.020408726E1
1.931706250E0;2.444479942E0;9.552865028E-1;9.996989250E0
1.951646250E0;2.430114746E0;1.084573388E0;9.560047150E0
1.971562250E0;2.142810583E0;9.445125461E-1;8.851364136E0
1.991629250E0;2.462436438E0;1.242590666E0;9.042900085E0
2.011830250E0;2.194285870E0;9.385270476E-1;9.188945770E0
2.031582250E0;2.135627985E0;9.014169574E-1;9.198522568E0
2.041614250E0;2.177526474E0;9.205705523E-1;9.372102737E0
2.061578250E0;2.266111851E0;1.004367590E0;9.655815125E0
2.081693250E0;2.409764051E0;1.212663174E0;9.683348656E0
2.101761250E0;2.377442360E0;1.344344258E0;9.277531624E0
2.121578250E0;2.213439465E0;1.417367458E0;8.772355080E0
2.141920250E0;2.003946781E0;1.169567585E0;8.898050308E0
2.161512250E0;2.024297476E0;1.237802267E0;9.021351814E0
2.171707250E0;2.305616140E0;1.346738458E0;9.579200745E0
2.191781250E0;2.036268473E0;9.900023937E-1;1.006402683E1
2.211743250E0;2.062604666E0;1.256955862E0;9.730035782E0
2.225720250E0;2.170343876E0;1.442506552E0;9.652224541E0
2.241542250E0;2.056619167E0;1.485602140E0;9.293093681E0
2.251590250E0;2.039859772E0;1.306037068E0;9.017760277E0
2.271581250E0;2.454056740E0;1.368286252E0;9.360131264E0
2.281616250E0;2.770091295E0;1.474828243E0;9.934740067E0
2.291657250E0;2.865859509E0;1.418564558E0;1.030943298E1
2.311591250E0;2.798821688E0;1.119289279E0;1.131379986E1
2.331632250E0;2.608482838E0;7.170634270E-1;1.223437023E1
2.341970250E0;2.489969730E0;6.416460276E-1;1.209909821E1
2.361598250E0;1.944091797E0;5.159504414E-1;1.118331623E1
2.371784250E0;1.667561531E0;4.465186298E-1;1.084573364E1
2.391637250E0;1.216254473E0;2.896983922E-1;1.019690514E1
2.411616250E0;6.703764796E-1;1.879448295E-1;9.077615738E0
2.431729250E0;9.840168953E-1;5.901707411E-1;8.838195801E0
2.451537250E0;1.370680451E0;7.996633649E-1;9.050082207E0
2.461550250E0;1.410184860E0;5.973533392E-1;9.168595314E0
2.481816250E0;1.389834046E0;2.609679997E-1;9.490615845E0
2.501548250E0;1.428141356E0;4.429273307E-2;9.823410034E0
2.521704250E0;1.618480325E0;-4.788403399E-3;1.039083576E1
2.541762250E0;1.945288897E0;1.424549967E-1;1.112226391E1
2.551766250E0;2.191891670E0;2.358288616E-1;1.144787502E1
2.571596250E0;2.357091665E0;4.141969085E-1;1.123718548E1
2.581617250E0;2.153584480E0;4.501099288E-1;1.058476543E1
2.591866250E0;2.013523579E0;5.925649405E-1;9.867702484E0
2.611553250E0;1.715445518E0;8.858546019E-1;7.777564049E0
2.621723250E0;1.547851443E0;8.690952063E-1;7.273584843E0
2.641615250E0;1.339555860E0;5.398924947E-1;7.637503624E0
2.662013250E0;1.283292055E0;3.064578176E-1;8.541314125E0
2.683032250E0;1.195903778E0;1.113303825E-1;8.791508675E0
2.701625250E0;1.534683347E0;4.285621047E-1;8.848969460E0
2.721705250E0;1.788468719E0;7.577648163E-1;8.719682693E0
2.741646250E0;1.844732404E0;9.062053561E-1;8.748413086E0
2.751973250E0;1.883039594E0;9.121908545E-1;8.568847656E0
2.771844250E0;1.725022316E0;5.590460896E-1;8.785523415E0
2.791630250E0;1.456871748E0;3.591302410E-2;9.159018517E0
2.811494250E0;2.324769735E0;6.919242740E-1;9.671378136E0
2.821567250E0;2.401384354E0;9.181763530E-1;9.345766068E0
2.831764250E0;2.299630642E0;9.074024558E-1;9.060855865E0
2.851526250E0;1.897404790E0;7.996633649E-1;8.392873764E0
2.861655250E0;1.719036818E0;6.895300746E-1;8.203732491E0
2.871693250E0;1.623268723E0;5.255272985E-1;8.331821442E0
2.891691250E0;1.849520802E0;6.117185354E-1;9.436745644E0
2.901705250E0;2.076969862E0;8.774749041E-1;9.558850288E0
2.911783250E0;2.145204782E0;1.085770488E0;9.510966301E0
2.921872250E0;2.127248287E0;1.138442874E0;9.354146004E0
2.941560250E0;1.903390408E0;1.171961784E0;9.319430351E0
2.951577250E0;1.915361404E0;1.119289279E0;9.338583946E0
2.961600250E0;2.084152699E0;1.201889277E0;9.312247276E0
2.971635250E0;2.242169857E0;1.405396342E0;9.358934402E0
2.991886250E0;2.166752577E0;1.116895080E0;9.780313492E0
3.011693250E0;2.037465572E0;7.793126702E-1;9.991003990E0
3.031805250E0;2.267308950E0;6.284779310E-1;1.050216579E1
3.051589250E0;2.519897223E0;6.967126727E-1;1.110909557E1
3.061685250E0;2.507926226E0;7.122750282E-1;1.088882923E1
3.071867250E0;2.324769735E0;7.146692276E-1;1.036569595E1
3.091541250E0;2.062604666E0;3.890577853E-1;8.895656586E0
3.101723250E0;2.002749681E0;1.687912196E-1;8.451532364E0
3.121620250E0;2.209848166E0;1.640028208E-1;8.816647530E0
3.141650250E0;2.752134800E0;2.729389966E-1;9.196128845E0
3.151693250E0;3.312378168E0;3.208230138E-1;1.015859795E1
3.171732250E0;3.469198227E0;-1.532289088E-1;1.133175659E1
3.191808250E0;2.104503393E0;-1.213860273E0;1.123359394E1
3.211558250E0;1.455674648E0;-1.568202138E0;1.064222622E1
3.231521250E0;1.338358760E0;-2.111685991E0;1.148977375E1
3.241576250E0;1.562216640E0;-2.120065689E0;1.196741676E1
3.261678250E0;2.134430885E0;-1.883039594E0;1.147900009E1
3.271778250E0;2.450465441E0;-1.547851443E0;1.071405220E1
3.291829250E0;3.147178173E0;-7.721300721E-1;9.441534042E0
3.311506250E0;3.209427357E0;-3.603273630E-1;8.655038834E0
3.321577250E0;3.150769472E0;-2.729389966E-1;8.531737328E0
3.331901250E0;2.962824583E0;-2.777273953E-1;8.556877136E0
3.351638250E0;2.468421936E0;-5.770025849E-1;8.747216225E0
3.371550250E0;2.017114878E0;-1.034295082E0;9.592369080E0
3.381605250E0;1.814804912E0;-1.176750183E0;9.810241699E0
3.401570250E0;1.833958507E0;-1.011550188E0;8.567650795E0
3.411611250E0;2.124854088E0;-6.907271743E-1;8.182184219E0
3.421691250E0;2.421735048E0;-4.572925270E-1;7.766790390E0
3.432033250E0;2.492363930E0;-4.070142806E-1;7.536946774E0
3.451748250E0;2.580949545E0;-5.662286878E-1;8.161833763E0
3.471854250E0;2.331952572E0;-1.018732786E0;8.149862289E0
3.491986250E0;2.225410461E0;-1.246181965E0;8.042123795E0
3.512131250E0;2.560598612E0;-1.069011092E0;8.392873764E0
3.531654250E0;3.284844637E0;-5.051765442E-1;8.965087891E0
3.551640250E0;3.299209833E0;-2.585737705E-1;8.161833763E0
3.561805250E0;3.094505787E0;-2.370259613E-1;7.711723804E0
3.581631250E0;2.446874142E0;-4.620809257E-1;7.113173485E0
3.591926250E0;1.434126854E0;-1.511938334E0;7.125144482E0
3.611554250E0;1.653196216E0;-1.622071624E0;7.613561630E0
3.621599250E0;2.146401882E0;-1.630451322E0;8.057685852E0
3.631946250E0;2.505532026E0;-1.669955730E0;8.457517624E0
3.651560250E0;3.343502760E0;-1.334767461E0;8.043320656E0
3.661750250E0;3.837905407E0;-1.106121182E0;7.514202118E0
3.681626250E0;5.512649536E0;-1.053448766E-1;7.400477409E0
3.691824250E0;6.952761650E0;3.830722570E-1;8.707711220E0
3.711607250E0;7.718906403E0;5.051765442E-1;9.604340553E0
3.732259250E0;7.020996571E0;-2.873042040E-2;9.095572472E0
3.751802250E0;6.036979675E0;-8.559271097E-1;8.582015991E0
3.771537250E0;7.146692276E0;-7.206547260E-1;9.191340446E0
3.791507250E0;7.572859764E0;-8.236053586E-1;8.633491516E0
3.801872250E0;7.665036678E0;-7.900865674E-1;8.450334549E0
3.821487250E0;7.742848396E0;-6.320692301E-1;6.988674641E0
3.831543250E0;8.201337814E0;-5.590460896E-1;6.800729752E0
3.853312250E0;9.162610054E0;-4.261679053E-1;7.650671482E0
3.871534250E0;9.561244011E0;-6.775590777E-1;8.898050308E0
3.891644250E0;8.613141060E0;-1.400607944E0;7.224503517E0
3.911498250E0;8.555679321E0;-1.823184609E0;5.584475517E0
3.931726250E0;8.416815758E0;-1.804031014E0;6.081272125E0
3.951647250E0;7.273584843E0;-2.833537817E0;7.438784599E0
3.971649250E0;4.999093056E0;-3.988739967E0;7.277175903E0
3.991518250E0;4.176684856E0;-3.421314240E0;7.098807812E0
4.011459250E0;3.694253206E0;-3.930082083E0;5.461174011E0
4.024028750E0;4.337096214E0;-3.618835926E0;6.276399612E0
4.034583000E0;4.255693436E0;-3.860650301E0;6.153098583E0
4.055438187E0;4.984727859E0;-3.154360771E0;6.279991150E0
4.066302718E0;5.521028996E0;-4.132391930E0;5.652710438E0
4.083154250E0;5.521028996E0;-4.132391930E0;5.652710438E0
4.094825250E0;6.933608055E0;-3.901351690E0;7.308300495E0
4.112722250E0;1.103966427E1;-2.267308950E0;6.710947514E0
4.131746250E0;1.220803452E1;-2.379836559E0;3.191470861E0
4.142714250E0;1.154005241E1;-2.286462545E0;1.823184609E0
4.161510250E0;7.161057472E0;-2.926911592E0;1.125274777E0
4.171714250E0;5.306747913E0;-3.251325846E0;6.691793799E-1
4.192280250E0;6.311115742E0;-4.441244125E0;9.633070946E0
4.211526250E0;9.721655846E0;-2.120065689E0;6.248866558E0
4.224615250E0;1.066616821E1;1.915361360E-2;4.665102005E0
4.238366250E0;1.116895103E1;7.996633649E-1;4.375403404E0
4.252302250E0;8.413225174E0;-1.642422318E0;4.350264549E0
4.263039250E0;7.169436932E0;-2.560598612E0;2.728192806E0
4.283074250E0;6.449979305E0;-4.426878929E0;4.519055843E0
4.302036250E0;7.656657219E0;-4.404133797E0;5.869385242E0
4.321637250E0;9.015366554E0;-2.410961151E0;4.090493679E0
4.332391250E0;8.767566681E0;-2.724601507E0;2.537853718E0
4.352268250E0;8.233659744E0;-2.717418909E0;1.058237195E0
4.371538250E0;5.940014362E0;-5.127182961E0;-7.302315533E-2
4.391509250E0;2.967612982E0;-8.576030731E0;-1.094150186E0
4.401553250E0;6.629544735E0;-4.685452938E0;3.215412855E0
4.411861250E0;7.478289127E0;-3.757699490E0;3.482366323E0
4.431499250E0;9.291896820E0;-5.128379822E0;4.673481941E0
4.451606250E0;1.608544350E1;-6.336254597E0;6.296750307E-1
4.471484250E0;1.779370689E1;-7.176619530E0;4.201824069E-1
4.481514250E0;1.274792671E1;-8.655038834E0;1.604115069E-1
4.501529250E0;2.755726099E0;-1.160948372E1;-6.165069342E-1
4.511630250E0;2.303221941E0;-1.143710136E1;1.766920805E0
4.531699250E0;1.050575733E1;-7.408857346E0;7.362170219E-1
4.551509250E0;1.174116516E1;-4.807557106E0;1.999158412E-1
4.561589250E0;1.168370438E1;-4.972756863E0;-2.094926536E-1
4.581525250E0;5.966350555E0;-7.940370083E0;-3.531447649E-1
4.601622250E0;5.147533417E-1;-8.367734909E0;3.280056417E-1
4.621576250E0;6.584054977E-2;-1.014183807E1;-9.493009448E-1
4.641628250E0;4.753687382E0;-2.950853586E0;4.608838260E-1
4.661516250E0;2.141613483E0;-3.871424198E0;2.692279816E0
4.681508250E0;2.346317619E-1;-2.426523447E0;2.864662409E0
4.701665250E0;1.125274822E-1;-1.355118155E0;1.363497853E0
4.721495250E0;-9.576806799E-3;-1.195903778E0;9.050082564E-1
4.731521250E0;-1.197100850E-3;-1.116895080E0;6.224924326E-1
4.741583250E0;-6.703764945E-2;-1.227028370E0;5.554547906E-1
4.761518250E0;-5.386953801E-2;-1.553836942E0;9.804255962E-1
4.771690250E0;-2.444479942E0;-1.841021347E1;-1.968273163E1
4.791640250E0;-1.252047825E1;-3.922181320E1;5.024232388E0
4.811550250E0;2.366668320E1;7.693767071E0;5.114014626E0
4.831588250E0;-9.217676520E-1;-4.249708176E0;4.659116745E0
4.851595250E0;-2.188300371E0;-8.676587105E0;1.067813993E0
4.861642250E0;-1.173158810E-1;-8.728062630E0;-5.446808934E-1
4.881803250E0;7.110779285E-1;-1.005325317E1;2.406172752E-1
4.901612250E0;7.589619160E-1;-8.959102631E0;1.701080322E0
4.912870250E0;4.788403213E-2;-8.500613213E0;1.468842745E0
4.938079250E0;-1.855506301E-1;-5.869385242E0;7.433996201E-1
4.951051250E0;-8.894459605E-1;-5.863399982E0;1.284489155E0
4.961878250E0;-8.200140595E-1;-6.064512730E0;1.082179189E0
4.971928250E0;-4.201824069E-1;-6.132747650E0;9.277531505E-1
4.991997250E0;-7.972691655E-1;-6.898892403E0;-1.699883193E-1
5.002952250E0;-1.879448295E0;-9.998186111E0;-1.449689150E0
5.022060250E0;-1.169567585E0;-8.833407402E0;-6.752845764E0
5.042727250E0;-3.998316824E-1;-8.657433510E0;-4.291606426E0
5.061635250E0;6.584054977E-2;-9.425971985E0;-4.559757233E0
5.081553250E0;2.873042040E-2;-1.011310768E1;-5.228936672E0
5.091759250E0;-2.035071403E-1;-1.050934792E1;-5.395333767E0
5.111596250E0;-1.070208192E0;-1.090678596E1;-5.704185486E0
5.122504250E0;-1.541865945E0;-1.074517727E1;-5.626373768E0
5.141559250E0;-1.897404790E0;-1.014662647E1;-5.579687119E0
5.161532250E0;-1.936909199E0;-8.377311707E0;-4.176684856E0
5.172533250E0;-1.942894697E0;-7.855375767E0;-3.418920040E0
5.191531250E0;-2.652775526E0;-9.406818390E0;-1.471236944E0
5.201564250E0;-4.090493679E0;-1.315494156E1;-9.157821536E-1
5.221537250E0;-3.567360640E0;-1.649245834E1;-5.506663769E-2
5.231537250E0;-3.536235809E0;-1.742260551E1;1.168370485E0
5.241587250E0;-3.738545895E0;-1.672709084E1;6.392518282E-1
5.251604250E0;-4.369418144E0;-1.358709431E1;9.301473498E-1
5.271512250E0;-2.851494312E0;-7.060500622E0;5.287594318E0
5.283222250E0;-3.100491166E-1;-3.483563423E0;6.507440090E0
5.301612250E0;3.676296711E0;-7.110779285E-1;7.061697960E0
5.311686250E0;3.676296711E0;-3.995922565E0;3.246537447E0
5.331695250E0;2.592920542E0;-1.364096451E1;-3.114856482E0
5.351702250E0;8.525752068E0;-1.501523590E1;2.066195965E0
5.371703250E0;6.361393929E0;-1.065778923E1;1.021126986E0
5.385593250E0;3.275267839E0;-1.022324085E1;-7.817068696E-1
5.401617250E0;-1.225831270E0;-9.266757965E0;-1.132457376E0
5.411769250E0;-2.533065319E0;-7.965508938E0;-6.380547285E-1
5.425235250E0;-2.634819031E0;-6.835445881E0;-1.298854470E0
5.441589250E0;-3.083731890E0;-7.528567314E0;-1.695094824E0
5.452024250E0;-2.290053844E0;-7.395689011E0;-1.104924083E0
5.471516250E0;-2.142810524E-1;-7.672219276E0;2.765302956E-1
5.481881250E0;5.985504016E-3;-8.353369713E0;1.094150186E0
5.501603250E0;2.007538080E0;-9.424775124E0;6.727706790E-1
5.521557250E0;2.953247786E0;-1.013704967E1;-5.937620401E-1
5.541564250E0;2.230198860E0;-9.121908188E0;-2.825157940E-1
5.551863250E0;1.881842494E0;-8.572439194E0;1.036689281E0
5.571648250E0;1.877054095E0;-8.950722694E0;-6.703764945E-2
5.591517250E0;1.635239720E0;-8.860940933E0;-4.070142806E-1
5.601544250E0;1.546654344E0;-8.813055992E0;-1.879448295E-1
5.611683250E0;1.235408068E0;-8.949525833E0;-4.070143029E-2
5.631664250E0;5.015852451E-1;-9.786299706E0;2.837128937E-1
5.641675250E0;2.358288616E-1;-1.034893703E1;1.915361285E-1
5.661520250E0;4.189853072E-1;-1.097980881E1;-1.897404790E0
5.671612250E0;7.074866295E-1;-1.085650730E1;-2.673126221E0
5.691487250E0;1.564610839E0;-1.090917969E1;-2.147598982E0
5.701605250E0;2.145204782E0;-1.156878281E1;-8.966285586E-1
5.721536250E0;2.865859509E0;-1.190636539E1;5.099649429E-1
5.741486250E0;2.258929253E0;-1.158195114E1;-1.005564705E-1
5.751531250E0;1.326387763E0;-1.162624359E1;-1.340752989E-1
5.761534250E0;7.074866295E-1;-1.184052467E1;-4.189853072E-1
5.771823250E0;-1.221042871E-1;-1.188601398E1;-1.102529883E0
5.791500250E0;-5.171475410E-1;-1.140358257E1;-2.649184227E0
5.801535250E0;8.822633028E-1;-1.165736771E1;-3.120841980E0
5.811710250E0;2.479195833E0;-1.119408989E1;-2.299630642E0
5.831550250E0;4.258087635E0;-1.099776554E1;-2.492363930E0
5.841587250E0;4.485537052E0;-9.860519409E0;-3.483563423E0
5.851703250E0;4.465186119E0;-8.628703117E0;-2.649184227E0
5.871546250E0;1.355118155E0;-9.497797966E0;9.720458984E-1
5.881567250E0;5.434837937E-1;-1.082897472E1;1.969230890E0
5.891576250E0;1.432929754E0;-1.177588081E1;2.377442360E0
5.901620250E0;2.499546528E0;-1.256357384E1;2.293645144E0
5.921598250E0;1.981201887E0;-1.392348003E1;2.438494444E0
5.932014250E0;1.444900751E0;-1.409825706E1;2.442085743E0
5.951639250E0;-8.571242094E-1;-1.432929707E1;-1.194706678E0
5.971682250E0;6.655880809E-1;-1.264976501E1;-6.871358752E-1
5.982096250E0;1.186326981E0;-1.175792408E1;-9.337386489E-1
6.001667250E0;2.142810524E-1;-1.020767879E1;3.160346150E-1
6.012747250E0;-2.262520641E-1;-9.685743332E0;1.132457376E0
6.032269250E0;-6.727706790E-1;-9.156624794E0;1.486799240E0
6.051667250E0;1.148019671E0;-9.047688484E0;9.469067454E-1
6.061762250E0;2.206256866E0;-8.969876289E0;6.931213737E-1
6.081656250E0;2.038662672E0;-8.540117264E0;1.037886381E0
6.101716250E0;1.187524080E0;-6.544550419E0;7.661445141E-1
6.113090250E0;6.524199843E-1;-4.143166065E0;7.721300721E-1
6.131603250E0;-2.525882721E-1;-3.708618402E0;9.289502501E-1
6.145803250E0;-2.108094692E0;-3.541024208E0;1.329979062E0
6.162087250E0;-2.244564056E0;-4.094084740E0;1.233013868E0
6.182282250E0;-1.161187768E0;-4.141968727E0;1.510741234E0
6.201594250E0;3.531447649E-1;-4.241328239E0;5.291185975E-1
6.221557250E0;1.581370234E0;-4.381389141E0;-1.452083349E0
6.231563250E0;1.315613866E0;-4.689043999E0;-2.576161146E0
6.241613250E0;3.854664862E-1;-5.348646641E0;-4.538209438E0
6.251681250E0;-8.044517636E-1;-6.616376400E0;-6.776787758E0
6.271597250E0;-3.336320162E0;-1.129225254E1;-9.451110840E0
6.291570250E0;-4.629189014E0;-1.716044044E1;-9.396044731E0
6.303518250E0;-4.533421040E0;-2.045246887E1;-8.688557625E0
6.321585250E0;-4.226963043E0;-1.783081627E1;-1.057399178E1
6.341572250E0;-3.664325714E0;-9.125499725E0;-5.815515995E0
6.352948250E0;-2.018311977E0;-6.865373611E0;-3.954024076E0
6.373407250E0;-2.707842112E0;-6.320692539E0;-7.661445141E-1
6.391573250E0;-5.427655220E0;-1.036809063E1;8.200140595E-1
6.401600250E0;-6.105214119E0;-1.174954510E1;1.483207941E0
6.421575250E0;-5.604825974E0;-1.373314095E1;2.047042400E-1
6.441637250E0;-3.201047659E0;-1.302924538E1;4.908113554E-2
6.453318250E0;-2.279279947E0;-1.257793903E1;-2.527079821E0
6.471893250E0;3.278859138E0;-7.417236805E0;4.080916882E0
6.491559250E0;3.062183857E0;-4.894945145E0;5.006275654E0
6.501653250E0;3.166331768E0;-4.971560001E0;2.846705914E0
6.511750250E0;3.852270603E0;-5.408501625E0;2.512714624E0
6.531653250E0;5.111620426E0;-1.149456215E1;8.595184088E-1
6.551606250E0;4.944026470E0;-1.682764626E1;1.107318282E0
6.561774250E0;5.641936302E0;-1.614410210E1;8.008604646E-1
6.581563250E0;2.524685621E0;-1.184890461E1;-1.939303428E-1
6.591598250E0;-2.573766708E-1;-9.986215591E0;4.453215301E-1
6.602168250E0;-1.704671621E0;-8.535328865E0;-2.035071515E-2
6.621591250E0;-2.176329374E0;-6.279991150E0;-3.827131510E0
6.632398250E0;-2.213439465E0;-5.963956356E0;-2.488772631E0
6.651608250E0;-2.385822058E0;-7.049726963E0;-1.303642869E0
6.673376250E0;2.011129409E-1;-7.340622425E0;3.675099611E-1
6.691660250E0;2.645592928E0;-8.067262650E0;1.549048543E0
6.711538250E0;3.021482468E0;-9.288305283E0;9.816226959E-1
6.721559250E0;2.570175409E0;-9.478644371E0;7.433996201E-1
6.732036250E0;1.669955730E0;-9.215282440E0;1.028309584E0
6.743162250E0;1.391031146E0;-9.113529205E0;1.084573388E0
6.762155250E0;1.230619669E0;-9.361329079E0;-4.141969085E-1
6.781607250E0;9.373299479E-1;-9.493009567E0;-1.812410712E0
6.791704250E0;4.728548229E-1;-9.533711433E0;-2.674323320E0
6.801886250E0;4.728548229E-1;-9.477447510E0;-3.220201254E0
6.821964250E0;-4.201824069E-1;-1.002452278E1;8.152256608E-1
6.841755250E0;1.276109457E0;-1.091277122E1;2.498349428E0
6.861769250E0;1.393425345E0;-1.215655899E1;-3.117250681E0
6.881612250E0;6.057330370E-1;-1.245583439E1;-2.315192938E0
6.901646250E0;2.922123194E0;-1.078468132E1;-8.200140595E-1
6.921662250E0;3.867832899E0;-1.067574501E1;1.414973259E0
6.931778250E0;3.004723072E0;-1.292868900E1;-1.173158810E-1
6.951925250E0;2.128445387E0;-1.373194408E1;-7.972691655E-1
6.971553250E0;1.933317900E0;-1.266293240E1;-2.519897223E0
6.981564250E0;2.561795712E0;-1.141315937E1;-2.418143749E0
6.991733250E0;3.193865061E0;-1.083735371E1;-1.206677675E0
7.003341250E0;3.445256233E0;-1.020049667E1;-8.104372621E-1
7.013550250E0;2.879027605E0;-9.706093788E0;-1.690306425E0
7.033158250E0;5.374982953E-1;-1.065539455E1;-8.930372596E-1
7.043638250E0;-2.669534981E-1;-1.152329254E1;1.539471745E0
7.061723250E0;-1.215057373E0;-1.213501167E1;3.440467834E0
7.072534250E0;-1.227028370E0;-1.242351246E1;1.875856996E0
7.091817250E0;-5.159504414E-1;-1.295622253E1;4.740519226E-1
7.111668250E0;-8.307880163E-1;-1.437358952E1;1.030703783E0
7.121769250E0;-8.331822157E-1;-1.397974396E1;-5.470750928E-1
7.141562250E0;-6.428431273E-1;-1.101332760E1;-3.124433160E-1
7.151595250E0;-9.433154464E-1;-1.004128170E1;1.089361757E-1
7.171583250E0;1.065419793E0;-8.858546257E0;1.436521053E0
7.181819250E0;1.419761658E0;-8.900444984E0;1.374271750E0
7.201575250E0;9.888052940E-1;-8.444349289E0;9.516952038E-1
7.211618250E0;1.361103654E0;-8.024167061E0;1.460463047E0
7.221698250E0;1.276109457E0;-7.586028099E0;2.035071373E0
7.241619250E0;8.846575022E-1;-6.560112476E0;3.615244627E-1
7.251637250E0;6.991068721E-1;-5.882553577E0;-9.097966552E-2
7.271558250E0;5.087678432E-1;-4.697423935E0;1.352723986E-1
7.287626250E0;2.466027737E-1;-4.384980202E0;5.997475386E-1
7.301634250E0;-6.308721304E-1;-5.309142113E0;6.368576288E-1
7.321799250E0;-8.152256608E-1;-4.560954094E0;9.038111567E-1
7.332063250E0;-1.079784989E0;-4.387374401E0;6.907271743E-1
7.351758250E0;-7.326257229E-1;-3.726574898E0;3.914519846E-1
7.371516250E0;2.394201700E-3;-3.440467834E0;-8.858546019E-1
7.383226250E0;-2.118868530E-1;-3.786429882E0;-1.552639842E0
7.401628250E0;-1.766920805E0;-5.210979939E0;-3.945644379E0
7.421595250E0;-4.443638325E0;-8.887276649E0;-6.891709805E0
7.431898250E0;-5.538985729E0;-1.135929012E1;-9.294290543E0
7.451566250E0;-5.707777023E0;-1.754111862E1;-8.125920296E0
7.461601250E0;-5.549759388E0;-2.112045097E1;-8.956708908E0
7.481548250E0;-6.009446144E0;-1.956182480E1;-1.141076565E1
7.492905250E0;-6.405686855E0;-1.502720737E1;-1.046385860E1
7.511522250E0;-5.681440830E0;-8.603564262E0;-8.702923059E-1
7.521552250E0;-5.776011467E0;-1.183453941E1;8.487445116E-1
7.541528250E0;-5.279214859E0;-1.587355709E1;7.182605267E-1
7.551813250E0;-5.973533154E0;-1.759498787E1;-4.367023945E0
7.571546250E0;-2.895787001E0;-1.482848835E1;-1.328781962E0
7.581574250E0;6.476315856E-1;-7.392097950E0;4.383783340E0
7.601629250E0;8.110358238E0;4.692635536E0;1.526543045E1
7.621589250E0;3.459621429E0;-2.231395960E0;2.523488522E0
7.641568250E0;1.159990668E0;-1.493981838E1;-6.429628849E0
7.651631250E0;2.574964046E0;-1.657625580E1;3.672705412E0
7.672056250E0;8.040925980E0;-1.170285797E1;4.443638325E0
7.691500250E0;3.055001259E0;-1.105283260E1;-1.628057122E0
7.701584250E0;2.382230759E0;-1.006043530E1;-3.277662039E0
7.711595250E0;2.242169857E0;-9.399636269E0;-2.397793055E0
7.731579250E0;3.411737382E-1;-9.619902611E0;1.862688899E0
7.751535250E0;-7.038952708E-1;-8.164227486E0;-3.441664934E0
7.766842250E0;-1.649604917E0;-8.048109055E0;-3.615244627E0
7.781598250E0;-1.289277673E0;-7.710526466E0;-8.116343617E-1
7.791605250E0;-1.592144072E-1;-7.319074631E0;3.220201433E-1
7.811607250E0;8.726865053E-1;-7.933187485E0;1.468842745E0
7.821670250E0;1.808819413E0;-8.440757751E0;1.587355733E0
7.836937250E0;2.383427858E0;-8.998606682E0;1.235408068E0
7.851687250E0;1.728613615E0;-9.915586472E0;2.262520641E-1
7.861703250E0;1.255758762E0;-9.515754700E0;4.189853072E-1
7.881930250E0;8.870517015E-1;-9.078812599E0;8.355764151E-1
7.902279250E0;1.576581836E0;-9.024943352E0;-5.746084079E-2
7.921596250E0;1.999158382E0;-9.009381294E0;-5.087678432E-1
7.941602250E0;1.108515382E0;-9.495404243E0;-1.128866076E0
7.951621250E0;3.363853395E-1;-9.835380554E0;-1.222239971E0
7.961918250E0;-8.140286058E-2;-1.010712242E1;-2.394201607E-2
7.981614250E0;-7.876923680E-1;-1.097023201E1;5.470750928E-1
7.991674250E0;-3.268085420E-1;-1.098100567E1;-2.203862667E0
8.011598250E0;5.686228871E-1;-1.214339066E1;-3.603273630E0
8.021623250E0;1.568202138E0;-1.175553036E1;-2.383427858E0
8.032781250E0;3.081337690E0;-1.082897472E1;-1.272518158E0
8.051646250E0;5.610811710E0;-9.671378136E0;1.681926727E0
8.072454250E0;3.215412855E0;-1.278384018E1;-7.182605099E-3
8.091563250E0;2.513911761E-2;-1.321359921E1;-2.624045134E0
8.103924250E0;3.351882398E-1;-1.301488018E1;-1.045069098E0
8.121778250E0;2.800018787E0;-1.187284660E1;-2.705447912E0
8.141765250E0;4.286818027E0;-9.065644264E0;-1.340752959E0
8.161530250E0;2.014720678E0;-8.558073997E0;-2.153584480E0
8.171583250E0;1.167173386E0;-9.971850395E0;-6.464344859E-1
8.191601250E0;1.502361536E0;-1.295263100E1;4.301183224E0
8.201624250E0;1.247379065E0;-1.360624790E1;3.675099611E0
8.211713250E0;5.925649405E-1;-1.368525696E1;2.357091665E0
8.231607250E0;2.214636505E-1;-1.368884850E1;4.932055473E-1
8.251641250E0;-2.035071403E-1;-1.386242771E1;9.780313969E-1
8.271532250E0;1.325190663E0;-1.291911221E1;-2.753331885E-2
8.281569250E0;1.325190663E0;-1.250012684E1;4.285621047E-1
8.291692250E0;1.567005038E0;-1.156040287E1;-1.101332784E0
8.311974250E0;2.686294317E0;-9.190143585E0;6.667851806E-1
8.331543250E0;2.019509077E0;-9.139864922E0;7.625532150E-1
8.341985250E0;1.798045516E0;-8.948328972E0;1.115697980E0
8.361769250E0;2.375048161E0;-8.006210327E0;1.224634171E0
8.381572250E0;1.869871497E0;-6.525396824E0;7.062894851E-2
8.391832250E0;1.278503656E0;-5.978321552E0;-1.544260085E-1
8.403156250E0;1.057040095E0;-5.595249176E0;1.747767180E-1
8.421628250E0;3.567360640E-1;-4.677073002E0;1.543063045E0
8.441588250E0;-8.774749041E-1;-4.331110954E0;1.776497602E0
8.451597250E0;-1.513135433E0;-4.328716755E0;2.008735180E0
8.462792250E0;-1.829170108E0;-4.395754337E0;2.297236443E0
8.481590250E0;-1.861491799E0;-4.481945515E0;2.160767078E0
8.501598250E0;-3.232172430E-1;-3.738545895E0;7.481880188E-1
8.511821250E0;-9.074024558E-1;-3.906140089E0;1.101332754E-1
8.531601250E0;-1.777694821E0;-4.957194805E0;-1.532289028E0
8.551725250E0;-2.949656487E0;-7.852981567E0;-3.870227098E0
8.571531250E0;-4.497508049E0;-1.315613842E1;-1.147900009E1
8.581595250E0;-3.442862034E0;-1.649844360E1;-1.178186703E1
8.591649250E0;-2.383427858E0;-2.072301292E1;-1.202009010E1
8.612048250E0;-1.392228246E0;-2.428319168E1;-1.273954678E1
8.632027250E0;-2.346317768E0;-1.340154362E1;-9.855731010E0
8.651597250E0;-2.525882721E0;-6.017826080E0;-6.712144375E0
8.671534250E0;-2.437297344E0;-7.738059998E0;-1.736993313E0
8.681540250E0;-1.219845772E0;-1.021007347E1;6.476315856E-1
8.691570250E0;-2.501940727E-1;-1.087925243E1;7.170634270E-1
8.701626250E0;-1.482010841E0;-1.301009178E1;-2.257732153E0
8.721624250E0;1.436521020E-2;-1.650562668E1;4.829104900E0
8.741628250E0;-8.834604025E-1;-7.797914982E0;4.906916618E0
8.751638250E0;-7.817068696E-1;-2.669534922E0;1.009874249E1
8.761804250E0;-9.469067454E-1;-1.507149935E0;1.219845772E1
8.781590250E0;-7.517793179E-1;-4.062960148E0;1.152808070E0
8.791722250E0;3.064578176E-1;-7.430405140E0;-4.089296341E0
8.811653250E0;5.724536419E0;-1.278623390E1;1.993172884E0
8.821681250E0;7.955932140E0;-1.442745972E1;4.745307922E0
8.841659250E0;6.750451565E0;-1.593700409E1;3.148375273E0
8.861614250E0;5.717353821E0;-1.128387260E1;1.520318091E-1
8.881556250E0;2.209848166E0;-9.495404243E0;3.555389643E-1
8.891643250E0;-2.609679997E-1;-8.513781548E0;-3.848679304E0
8.901792250E0;-1.016338587E0;-7.861361504E0;-1.167173386E0
8.921585250E0;-2.008735180E0;-7.095216751E0;1.244984865E0
8.941604250E0;-1.607706428E0;-7.362170219E0;1.953668594E0
8.961585250E0;7.182605267E-1;-9.027337074E0;1.546654344E0
8.971656250E0;2.664746523E0;-9.309853554E0;7.685387731E-1
8.991605250E0;3.230975151E0;-9.136273384E0;2.274491638E-1
9.001719250E0;2.431311846E0;-8.621520042E0;5.626374111E-2
9.021577250E0;1.555034041E0;-7.770381451E0;-4.141969085E-1
9.032973250E0;1.748964310E0;-7.559691906E0;-1.675941199E-1
9.051618250E0;2.372653961E0;-8.155848503E0;6.943184882E-2
9.071579250E0;1.632845521E0;-8.775946617E0;-8.978256583E-1
9.081580250E0;7.374141216E-1;-9.487024307E0;-2.734178305E0
9.091820250E0;2.501940727E-1;-9.892841339E0;-3.545812607E0
9.102437250E0;5.686228871E-1;-9.623494148E0;-3.294421434E0
9.121597250E0;6.895300746E-1;-1.077989292E1;-1.472434103E-1
9.141599250E0;1.669955730E0;-1.186087513E1;-9.193734527E-1
9.151630250E0;2.215833664E0;-1.121444035E1;-1.978807688E0
9.172830250E0;3.320757866E0;-1.066137981E1;-5.027823448E-1
9.194407250E0;2.421735048E0;-1.172440529E1;-3.770867586E-1
9.211554250E0;-1.304839998E-1;-1.329021358E1;-2.619256735E0
9.221557250E0;9.816226959E-1;-1.351047993E1;-1.580173135E0
9.231624250E0;2.626439333E0;-1.315494156E1;1.101332754E-1
9.251586250E0;4.048594952E0;-1.196502304E1;-2.958036184E0
9.271631250E0;4.386177540E0;-1.023640919E1;-6.416460276E-1
9.281796250E0;1.519120932E0;-1.126591587E1;5.949591398E-1
9.301666250E0;5.303156972E-1;-1.330338192E1;2.911349297E0
9.321622250E0;2.070984364E0;-1.450167942E1;2.299630642E0
9.332772250E0;1.738190413E0;-1.526303577E1;1.713051319E0
9.351599250E0;1.349132657E0;-1.533366489E1;1.139639974E0
9.361656250E0;7.565677166E-1;-1.544140339E1;4.333505034E-1
9.371773250E0;2.513911761E-2;-1.580651951E1;-1.029506698E-1
9.391544250E0;1.441309452E0;-1.383848572E1;-1.333570361E0
9.401611250E0;4.345476031E-1;-1.251808357E1;-1.297657371E0
9.421621250E0;-1.304839998E-1;-1.000177765E1;1.795651317E-1
9.431745250E0;3.926490843E-1;-9.035717010E0;8.942343593E-1
9.453687250E0;2.409764051E0;-7.740454197E0;2.984372377E0
9.471557250E0;4.675876141E0;-7.201758862E0;2.018311977E0
9.481593250E0;3.081337690E0;-7.066486359E0;8.164227605E-1
9.491598250E0;1.602918029E0;-6.302735806E0;5.542576909E-1
9.501830250E0;1.398213744E0;-5.116408825E0;2.489969730E-1
9.521563250E0;8.164227605E-1;-2.837129116E0;1.374271750E0
9.532690250E0;-4.189852998E-2;-2.286462545E0;1.544260144E0
9.551610250E0;-2.090138197E0;-2.574964046E0;2.723404408E0
9.571557250E0;-2.067393064E0;-2.738966703E0;2.462436438E0
9.581580250E0;-1.581370234E0;-3.191470861E0;2.212242365E0
9.591600250E0;-7.398083210E-1;-3.359065056E0;1.778891921E0
9.601652250E0;1.915361360E-2;-3.350685358E0;1.203086376E0
9.621863250E0;-8.367735147E-1;-3.652354717E0;3.950432688E-2
9.641559250E0;-1.213860273E0;-5.266046524E0;-1.821987510E0
9.651623250E0;-2.293645144E0;-7.046135426E0;-2.839523315E0
9.661636250E0;-5.012261391E0;-9.610325813E0;-5.625176907E0
9.671671250E0;-6.839036942E0;-1.486799240E1;-1.142752457E1
9.683724250E0;-4.797980309E0;-1.873223495E1;-9.609128952E0
9.701690250E0;-2.254140854E0;-2.674921799E1;-1.067335129E1
9.721854250E0;-2.300827742E0;-1.684679985E1;-1.104804420E1
9.732283250E0;-2.947262287E0;-1.196861458E1;-7.767987251E0
9.751643250E0;-3.353079557E0;-6.007051945E0;-4.479551315E0
9.772119250E0;-1.477222443E0;-9.135076523E0;-2.993949175E0
9.782243250E0;-9.780313969E-1;-1.065659142E1;-1.806425214E0
9.802760250E0;-1.944091797E0;-1.222838497E1;-6.852205276E0
9.821618250E0;-6.631938815E-1;-1.516966152E1;-5.282805920E0
9.832379250E0;3.471592441E-2;-1.354998493E1;8.020575523E0
9.851618250E0;1.589749932E0;-9.289502501E-1;1.756386375E1
9.861667250E0;4.740519226E-1;5.913678408E-1;1.423712063E1
9.881590250E0;-2.066195965E0;-1.033217716E1;-1.810734749E1
9.891675250E0;2.430114746E-1;-1.380616379E1;-3.855861902E0
9.911552250E0;8.189367294E0;-1.205600262E1;7.784746647E0
9.932120250E0;7.060500622E0;-1.231936455E1;2.624045134E0
9.951667250E0;2.373851061E0;-1.354040813E1;-2.230198860E0
9.971701250E0;2.400187254E0;-1.024598598E1;-3.746925592E-1
9.981977250E0;1.419761658E0;-9.599552155E0;1.426944256E0
1.000246425E1;-4.153940082E-1;-8.562862396E0;1.470039845E0
1.001297425E1;-8.643068075E-1;-7.813477039E0;-1.577778935E0
1.003302725E1;-2.116474390E0;-7.672219276E0;6.500257850E-1
1.005162525E1;-1.620874524E0;-8.379706383E0;1.318008065E0
1.007160525E1;1.630451322E0;-7.744045258E0;5.087678432E-1
1.008235425E1;2.251746655E0;-7.933187485E0;-1.005564705E-1
1.010169525E1;2.286462545E0;-8.347384453E0;4.417302012E-1
1.012154425E1;2.273294449E0;-8.415618896E0;2.023100376E0
1.013158225E1;2.627636433E0;-8.420407295E0;1.750161409E0
1.014164125E1;2.930502892E0;-8.398859978E0;1.010353088E0
1.015166525E1;2.413355350E0;-8.437167168E0;3.435679376E-1
1.016169125E1;1.727416515E0;-8.419210434E0;-6.787561774E-1
1.018162425E1;5.027823448E-1;-9.216479301E0;-1.934514999E0
1.019163725E1;1.268926859E-1;-9.617507935E0;-2.001552582E0
1.020248825E1;-3.986345828E-1;-1.005325317E1;-1.693897724E0
1.022163525E1;1.915361360E-2;-1.068292809E1;-2.304419041E0
1.023219825E1;4.441244006E-1;-1.169567490E1;-2.309207439E0
1.025167125E1;1.765723705E0;-1.270363426E1;-1.801636815E0
1.027156025E1;4.562151432E0;-1.037407589E1;6.679822803E-1
1.028494325E1;4.774038315E0;-1.085411358E1;1.164779186E0
1.030243825E1;2.296039343E0;-1.325908947E1;-2.488772631E0
1.032170125E1;2.217030764E0;-1.351526833E1;-1.288080573E0
1.033211025E1;2.596511841E0;-1.361702251E1;1.795651205E-2
1.035170725E1;2.352303267E0;-1.233851814E1;-3.303998232E0
1.037158525E1;3.454833031E0;-9.549273491E0;-1.102529883E0
1.038375725E1;2.215833664E0;-8.756793022E0;-1.252167463E0
1.040167525E1;-8.056488633E-1;-1.057518864E1;-9.576806426E-2
1.042156425E1;-8.056488633E-1;-1.322078133E1;4.122815132E0
1.043267325E1;-1.723825186E-1;-1.323394966E1;1.764526606E0
1.045156725E1;-5.267243832E-2;-1.451484776E1;3.280056417E-1
1.046163025E1;6.236895323E-1;-1.490270805E1;9.588778019E-1
1.047184725E1;-4.872200489E-1;-1.541626453E1;1.128866076E0
1.049154525E1;-7.194576263E-1;-1.447893524E1;-1.999158412E-1
1.050177025E1;9.612720013E-1;-1.279341698E1;-1.689109325E0
1.052374225E1;8.008604646E-1;-1.061469364E1;-3.734954596E-1
1.054180425E1;1.024718285E0;-9.801861763E0;8.379706144E-1
1.055309225E1;1.456871748E0;-9.075222015E0;1.376665950E0
1.057160025E1;2.385822058E0;-8.073247910E0;2.729389906E0
1.058162025E1;2.592920542E0;-7.559691906E0;2.220622063E0
1.060158725E1;1.799242616E0;-6.756437302E0;4.189853072E-1
1.061159625E1;1.367089152E0;-6.184223175E0;-9.816227108E-2
1.063159525E1;1.485602140E0;-4.429273129E0;7.098808289E-1
1.064159525E1;1.201889277E0;-3.685873508E0;1.400607944E0
1.065172525E1;-5.267243981E-1;-3.663128614E0;1.871068597E0
1.067154525E1;-1.349132657E0;-3.600879431E0;2.477998734E0
1.068228025E1;-1.416170359E0;-3.517082214E0;2.408566952E0
1.070172325E1;-8.128314614E-1;-3.669114113E0;1.790862918E0
1.072160225E1;1.867477298E-1;-3.470395327E0;9.900023937E-1
1.073164325E1;-7.302315533E-2;-3.866635799E0;-2.035071515E-2
1.074226725E1;-4.788403511E-1;-4.310760021E0;-7.649474144E-1
1.075351325E1;-9.900023937E-1;-5.031414986E0;-2.082955360E0
1.077224425E1;-2.639607430E0;-7.933187485E0;-6.427234650E0
1.079222525E1;-6.775590897E0;-1.345182228E1;-1.316810894E1
1.080373525E1;-6.696582317E0;-1.698686028E1;-1.055842972E1
1.082159925E1;-3.803189516E0;-2.503616714E1;-9.625887871E0
1.084160925E1;-3.234566450E0;-1.729930496E1;-1.112824917E1
1.085171225E1;-3.829525709E0;-1.039562416E1;-8.164227486E0
1.087184225E1;-5.645527840E0;-1.236605167E1;-2.530671120E0
1.089156725E1;-2.336740971E0;-1.326028633E1;9.648633003E-1
1.090161125E1;-2.382230759E0;-1.312381649E1;-4.141969085E-1
1.091169025E1;-2.188300371E0;-1.289397335E1;-7.292738438E0
1.093160425E1;-2.043451071E0;-1.063025570E1;-2.874239206E0
1.094168225E1;1.268926859E-1;-5.115211964E0;4.418499470E0
1.096159625E1;4.693832397E0;2.803610086E0;1.915241623E1
1.098234025E1;2.588132143E0;-2.630030632E0;3.476380825E0
1.100159525E1;-3.412934542E0;-1.472074890E1;-1.846288681E1
1.102158425E1;4.910507679E0;-1.345900440E1;7.351396084E0
1.103226025E1;7.372944355E0;-1.016817474E1;7.882909298E0
1.105158925E1;3.925293684E0;-1.199135876E1;-1.066616893E0
1.107159025E1;1.945288897E0;-1.252526665E1;-2.620453835E0
1.108159425E1;1.128866076E0;-1.173996830E1;-1.233013868E0
1.110156725E1;1.735796183E-1;-9.429563522E0;1.416170359E0
1.111213425E1;-1.723825186E-1;-8.232462883E0;2.442085743E-1
1.112393025E1;-8.020575643E-1;-7.218518257E0;-6.775590777E-1
1.113696125E1;-1.493981838E0;-7.155071735E0;-9.840168953E-1
1.115168025E1;-2.825158119E0;-8.298302650E0;-2.178723514E-1
1.117170725E1;-7.781155705E-1;-8.257601738E0;1.007958889E0
1.119153425E1;1.212663174E0;-8.269572258E0;3.507505357E-1
1.120156525E1;2.021903276E0;-8.110358238E0;-3.770867586E-1
1.121157225E1;2.655169725E0;-8.115146637E0;-7.326257229E-1
1.122158925E1;2.858676910E0;-8.080430984E0;-5.027823523E-2
1.123409825E1;2.059013367E0;-7.839813232E0;2.389413357E0
1.125181925E1;1.221042871E0;-8.091204643E0;1.028309584E0
1.127157625E1;7.158663273E-1;-9.534908295E0;-1.923741102E0
1.128346125E1;7.146692276E-1;-1.022324085E1;-1.199495077E0
1.130162525E1;1.025915384E0;-1.122042656E1;-1.484405100E-1
1.131166425E1;1.037886381E0;-1.128746414E1;-1.873462796E0
1.132324725E1;4.094084799E-1;-1.108515358E1;-3.013102770E0
1.134162025E1;-1.711854219E0;-1.219366932E1;-2.060210466E0
1.135166325E1;-9.768342972E-1;-1.227866364E1;-1.996764183E0
1.136173225E1;9.277531505E-1;-1.170046329E1;-1.736993313E0
1.138229925E1;5.300762653E0;-1.067813969E1;-4.620809257E-1
1.140158325E1;5.553350925E0;-1.182975101E1;-7.338228226E-1
1.141158925E1;4.232948780E0;-1.293347740E1;-1.491587639E0
1.142165525E1;3.567360640E0;-1.360026264E1;-1.922544003E0
1.143166825E1;2.777273893E0;-1.358709431E1;-1.243787766E0
1.145164525E1;1.753752708E0;-1.230978775E1;-2.867056608E0
1.147156225E1;3.274070740E0;-8.504204750E0;-7.362170219E-1
1.148160625E1;1.121683478E0;-8.719682693E0;-1.789665818E0
1.150163725E1;-7.290344238E-1;-1.123359394E1;2.023100376E0
1.152183925E1;-1.096544385E0;-1.390552330E1;3.770867586E0
1.154156325E1;-1.249773264E0;-1.526303577E1;1.784877419E0
1.155160825E1;-1.762132406E0;-1.609262657E1;-2.513911761E-2
1.157155925E1;-2.205059767E0;-1.629972458E1;-1.540668845E0
1.158252625E1;-2.553416014E0;-1.539591408E1;-1.334767461E0
1.160161725E1;-1.016338587E0;-1.098818874E1;5.267243832E-2
1.162155325E1;1.221042871E0;-8.689755440E0;9.457096457E-2
1.163157925E1;1.714248419E0;-8.771158218E0;3.196259141E-1
1.164159825E1;2.372653961E0;-9.226056099E0;1.703474522E0
1.166189025E1;3.083731890E0;-8.449137688E0;2.302024841E0
1.168154325E1;1.537077546E0;-7.554903507E0;4.800374508E-1
1.169157525E1;1.114500880E0;-6.536170483E0;-9.576806426E-2
1.170165425E1;9.852139950E-1;-5.377377033E0;6.943184882E-2
1.172181725E1;5.003881454E-1;-3.914519787E0;1.562216640E0
1.173220225E1;3.160346150E-1;-3.476380825E0;2.122459888E0
1.175569625E1;-9.038111567E-1;-3.241749048E0;1.331176162E0
1.177173825E1;-1.754949808E0;-4.182670593E0;1.707065821E0
1.178221625E1;-1.878251195E0;-4.510675907E0;1.638831019E0
1.180340525E1;-1.505952835E0;-4.814739704E0;1.085770488E0
1.182155525E1;-5.147533491E-2;-4.604049683E0;6.943184882E-2
1.183261025E1;-8.858546615E-2;-4.522646904E0;-1.289277673E0
1.185166725E1;-2.189497471E0;-6.226121426E0;-4.534617901E0
1.187163525E1;-4.246116638E0;-9.008183479E0;-7.577648163E0
1.189157725E1;-5.823895454E0;-1.436880112E1;-9.589975357E0
1.190163425E1;-4.697423935E0;-1.810614967E1;-1.033098030E1
1.191165725E1;-3.373430252E0;-2.242888069E1;-1.172440529E1
1.193312125E1;-2.104503393E0;-2.210087585E1;-1.144787502E1
1.195318125E1;-3.381809950E0;-1.247857952E1;-8.529343605E0
1.197158925E1;-3.963600874E0;-6.636727333E0;-4.964377403E0
1.198334225E1;-4.393360138E0;-7.353790283E0;-3.573346138E0
1.200162825E1;-2.428917646E0;-8.694543839E0;-1.844732404E0
1.202163725E1;-4.920084476E-1;-1.065180302E1;-1.126471877E0
1.204159825E1;-2.209848166E0;-1.314656162E1;8.793902397E0
1.205596125E1;-2.027888775E0;-8.523358345E0;6.738480568E0
1.207156525E1;2.483984232E0;-2.607285738E0;3.427299738E0
1.208254725E1;3.676296711E0;-2.428917646E0;1.314416766E0
1.210229225E1;2.612074137E0;-7.988254070E0;-1.723825216E0
1.212157625E1;3.700238705E0;-1.247259331E1;2.130839586E0
1.213164025E1;5.541379929E0;-1.199614716E1;3.070563793E0
1.215154725E1;3.944447279E0;-1.235647488E1;1.543063045E0
1.217152325E1;3.254917145E0;-1.158434486E1;-6.607996821E-1
1.218244825E1;3.168725967E0;-1.084812832E1;-3.303998411E-1
1.220179025E1;-1.795651205E-2;-1.009994030E1;3.938461840E-1
1.222156925E1;-9.983820915E-1;-7.714118004E0;-1.521515131E0
1.224160825E1;-3.044227362E0;-6.872556210E0;3.507505357E-1
1.225161825E1;-2.270900249E0;-7.299921036E0;1.334767461E0
1.227163925E1;4.668693244E-1;-8.304288864E0;3.466804028E0
1.228166325E1;1.997961283E0;-9.284713745E0;3.411737442E0
1.230165525E1;3.514688015E0;-1.065778923E1;2.260126352E0
1.232155625E1;2.841917515E0;-9.694122314E0;-2.418143749E-1
1.233708625E1;1.887827992E0;-8.087613106E0;-2.299630642E0
1.235010125E1;1.711854219E0;-8.297105789E0;-2.875436306E0
1.236198425E1;1.711854219E0;-8.297105789E0;-2.875436306E0
1.238220225E1;1.644816518E0;-9.573215485E0;-1.699883223E0
1.240159525E1;3.998316824E-1;-1.037886429E1;2.801215947E-1
1.242160425E1;-2.873042040E-2;-1.040160942E1;-3.171120167E0
1.243227625E1;2.980781198E-1;-1.138203526E1;-3.187879562E0
1.245160825E1;2.019509077E0;-1.111987019E1;-1.628057122E0
1.247158025E1;4.151545525E0;-1.021965027E1;-7.410054207E-1
1.248350125E1;4.993107796E0;-1.053927612E1;3.830722719E-2
1.250168225E1;3.706224203E0;-1.272278786E1;-2.428917646E0
1.252162725E1;3.072957993E0;-1.347456741E1;-2.194285870E0
1.253163625E1;2.272097349E0;-1.343147182E1;-5.889736414E-1
1.255160625E1;2.701856613E0;-1.222359657E1;-1.884236693E0
1.256168625E1;3.588908434E0;-1.075714779E1;-8.607155085E-1
1.258274225E1;3.363853395E-1;-1.033217716E1;-1.412578970E-1
1.260191925E1;-1.845929503E0;-1.378581333E1;2.237381458E0
1.262164125E1;-1.691503525E0;-1.520677185E1;1.218648672E0
1.263168125E1;-9.157821536E-1;-1.548330212E1;1.113303781E0
1.265160725E1;-8.882488012E-1;-1.551921558E1;2.908954918E-1
1.267157525E1;-1.727416515E0;-1.521874332E1;-2.051830769E0
1.268159825E1;-7.697358727E-1;-1.385404778E1;-2.500743628E0
1.270161925E1;7.529764175E-1;-1.047104073E1;-1.315613866E0
1.272155725E1;2.841917515E0;-9.337387085E0;9.062053561E-1
1.273172725E1;3.066972494E0;-9.248801231E0;2.124854088E0
1.275155625E1;2.953247786E0;-8.827422142E0;2.896984100E0
1.276194525E1;2.820369720E0;-8.148665428E0;2.431311846E0
1.278178125E1;1.514332533E0;-6.507440090E0;3.076549172E-1
1.279231225E1;1.079784989E0;-5.861005783E0;-2.645592988E-1
1.281221725E1;1.161187768E0;-3.062183857E0;1.878251195E0
1.282261625E1;4.932055473E-1;-2.713827610E0;2.448071241E0
1.284159925E1;-1.067813993E0;-2.337938070E0;2.468421936E0
1.285165525E1;-1.429338455E0;-2.663549423E0;2.402581453E0
1.287159525E1;-1.411381960E0;-3.594893932E0;2.098517895E0
1.288163825E1;-9.313444495E-1;-3.555389643E0;1.863885999E0
1.290251125E1;1.616086215E-1;-3.574543238E0;4.872200489E-1
1.292156725E1;9.576806799E-3;-4.048594952E0;-1.241393566E0
1.293157625E1;-5.973533392E-1;-4.879383087E0;-2.789244890E0
1.294158625E1;-1.704671621E0;-6.357802391E0;-4.820724964E0
1.295161425E1;-3.331531763E0;-8.397662163E0;-7.454347134E0
1.297153425E1;-7.784746647E0;-1.378820801E1;-1.400248909E1
1.298162325E1;-7.724891663E0;-1.714368057E1;-1.097741508E1
1.300160325E1;-4.346673012E0;-2.645473099E1;-1.002093124E1
1.302162925E1;-4.350264549E0;-1.301847172E1;-8.711302757E0
1.304159725E1;-4.635174274E0;-6.714538574E0;-4.702212334E0
1.305195725E1;-5.027823448E0;-6.666654587E0;-3.645172119E0
1.307178325E1;-3.052607059E0;-8.570044518E0;-2.268506050E0
1.308187025E1;-2.515108824E0;-9.745597839E0;-4.010287762E0
1.310391725E1;-1.793257117E0;-1.430296135E1;-3.190273762E0
1.312172325E1;2.324769735E0;-1.158075333E1;1.270123959E1
1.314156125E1;1.527500629E0;-4.163516521E0;7.013813972E0
1.315721525E1;2.133233786E0;-3.902548790E0;2.851494312E0
1.317171525E1;1.440112352E0;-7.419631004E0;-3.642777920E0
1.319162525E1;3.840299606E0;-1.014303589E1;5.096058369E0
1.320176525E1;5.337872505E0;-1.031062984E1;3.473986626E0
1.321179825E1;5.017049789E0;-1.226788998E1;2.622848034E0
1.323160525E1;3.511096716E0;-1.420719242E1;-5.758054852E-1
1.324164225E1;3.002328873E0;-1.337520790E1;-1.131260276E0
1.325498925E1;3.248931646E0;-1.205001736E1;2.142810524E-1
1.327153625E1;-1.927332431E-1;-1.091037750E1;9.026140571E-1
1.328170425E1;-8.487445116E-1;-1.010353088E1;9.935937077E-2
1.330159325E1;-1.413776159E0;-6.941987991E0;-1.677138329E0
1.332157325E1;-4.541800499E0;-8.018181801E0;-2.008735180E0
1.333161325E1;-2.938882589E0;-7.183802128E0;-7.685387731E-1
1.335157225E1;-4.668693244E-2;-6.253654957E0;1.698686123E0
1.336159025E1;1.206677675E0;-6.622362137E0;2.467224836E0
1.337323825E1;2.997540474E0;-8.081627846E0;2.680308819E0
1.338411925E1;3.408146143E0;-8.550890923E0;2.334346771E0
1.340160625E1;3.153163671E0;-8.597578049E0;3.603273630E-1
1.342161825E1;2.319981337E0;-8.045714378E0;-1.968033791E0
1.343580325E1;1.665167332E0;-8.175002098E0;-2.586935043E0
1.345163625E1;6.165069342E-1;-9.215282440E0;-1.054645896E0
1.346175225E1;1.268926859E-1;-9.846154213E0;4.429273009E-1
1.347590225E1;-4.513070285E-1;-1.048540592E1;5.889736414E-1
1.349157625E1;-1.157596469E0;-1.130661774E1;-3.775655985E0
1.350208425E1;-1.359906554E0;-1.198537350E1;-3.964797974E0
1.351242125E1;-8.786720037E-1;-1.236724854E1;-3.008314371E0
1.353158325E1;2.845508814E0;-1.174715042E1;-1.971625090E0
1.354160525E1;5.331887245E0;-1.096065521E1;-7.817068696E-1
1.356156725E1;6.907271862E0;-1.105881786E1;1.036689281E0
1.358161425E1;3.046621561E0;-1.316571522E1;-2.443282843E0
1.360168325E1;1.005564705E-1;-1.339675522E1;-1.616086125E0
1.362158825E1;3.163937569E0;-1.144907284E1;-3.605667830E0
1.363176925E1;4.668693542E0;-9.725247383E0;-2.121262789E0
1.365164225E1;2.463633537E0;-8.087613106E0;-7.829039693E-1
1.367156725E1;-8.858546019E-1;-1.095706367E1;1.893813491E0
1.368159425E1;-1.073799491E0;-1.306037045E1;3.829525709E0
1.370165725E1;-6.033388376E-1;-1.524268532E1;3.293224335E0
1.372157725E1;-1.043871999E0;-1.688750076E1;1.487996340E0
1.373233025E1;-1.447294950E0;-1.756625748E1;1.260547161E0
1.374908225E1;-2.511517525E0;-1.689468384E1;-7.410054207E-1
1.376171825E1;-1.984793186E0;-1.541267300E1;-1.577778935E0
1.378191225E1;-8.140285611E-1;-1.122162342E1;-1.668758631E0
1.379244225E1;1.454477549E0;-9.334992409E0;4.058171809E-1
1.380272425E1;2.075772762E0;-9.114726067E0;1.084573388E0
1.382160825E1;1.877054095E0;-8.787917137E0;2.211045265E0
1.384153825E1;2.713827610E0;-8.215703011E0;2.835932016E0
1.385158625E1;2.145204782E0;-7.776367188E0;1.771709204E0
1.387366425E1;1.067813993E0;-5.936423302E0;2.178723514E-1
1.389151725E1;1.121683478E0;-3.847482204E0;1.776497602E0
1.390171825E1;9.564836025E-1;-2.949656487E0;2.292448044E0
1.392173225E1;-3.591302410E-2;-2.306813240E0;2.121262789E0
1.393240125E1;-7.481880188E-1;-2.377442360E0;1.990778685E0
1.395160225E1;-9.552865028E-1;-2.936488390E0;1.996764183E0
1.396163825E1;-9.409212470E-1;-3.051409960E0;1.881842494E0
1.398155025E1;-6.392518282E-1;-3.136404276E0;1.017535686E0
1.400164925E1;-1.010353088E0;-3.977966070E0;-1.256955862E0
1.402178425E1;-2.264914751E0;-6.622362137E0;-4.370615005E0
1.404166225E1;-6.357802391E0;-1.160709000E1;-1.136288166E1
1.405179325E1;-7.372944355E0;-1.426345634E1;-1.278623390E1
1.407156425E1;-7.344213486E0;-2.294722557E1;-8.161833763E0
1.409193125E1;-4.577713490E0;-2.334466362E1;-1.207156467E1
1.410197825E1;-4.881777287E0;-1.764167595E1;-1.081221485E1
1.412153225E1;-5.667075634E0;-1.046625233E1;-5.188235283E0
1.413166925E1;-6.697779179E0;-9.771934509E0;-1.312022567E0
1.414192725E1;-6.220136166E0;-1.024838066E1;-2.098517895E0
1.416152225E1;-6.270414352E0;-1.337401104E1;4.991910458E-1
1.417203925E1;-7.226897717E0;-1.592742634E1;-7.015010834E0
1.419151725E1;3.780444384E0;-5.203797340E0;8.919598579E0
1.420160725E1;9.461885452E0;2.657563925E0;1.784877396E1
1.421167625E1;9.291896820E0;4.137180328E0;1.788109589E1
1.423167925E1;3.208230257E0;-3.705027103E0;1.774103403E0
1.424168825E1;9.229647517E-1;-9.943120003E0;-1.160230160E1
1.426152725E1;2.841917515E0;-1.661097145E1;6.708553314E0
1.427153025E1;7.960720539E0;-1.411142445E1;7.996633530E0
1.428153325E1;8.534132004E0;-1.275870132E1;4.345476151E0
1.429176425E1;5.096058369E0;-1.303283691E1;1.759738177E-1
1.431159325E1;3.377021551E0;-1.180580902E1;-2.336740971E0
1.432175825E1;2.780865192E0;-1.143231297E1;-1.941697598E0
1.434155525E1;1.221042871E-1;-1.022084713E1;9.804255962E-1
1.435168125E1;-5.231330991E-1;-9.222464561E0;2.542642117E0
1.436171425E1;-7.038952708E-1;-8.140285492E0;2.676717520E0
1.437215025E1;-1.189918280E0;-7.867346764E0;-6.715735912E0
1.438230325E1;-3.445256233E0;-8.356961250E0;-3.791218281E0
1.440161025E1;-9.145850539E-1;-7.599195957E0;3.615244627E-1
1.441176525E1;6.105214357E-1;-7.188590527E0;1.138442874E0
1.443184025E1;1.538274646E0;-7.190984726E0;1.296460271E0
1.445174325E1;2.147598982E0;-7.953537941E0;6.117185354E-1
1.447156625E1;2.264914751E0;-8.421604156E0;8.403648138E-1
1.448167225E1;2.009932280E0;-8.552088737E0;1.470039845E0
1.449187325E1;1.769315004E0;-8.677783966E0;1.370680451E0
1.451154725E1;1.995567083E0;-8.482656479E0;-3.627215624E-1
1.452168425E1;1.916558504E0;-8.489839554E0;-8.511387110E-1
1.454156625E1;1.545457244E0;-8.641871452E0;-7.625532150E-1
1.455160725E1;1.072602391E0;-9.160215378E0;-1.205480576E0
1.457155825E1;-2.334346622E-1;-9.896432877E0;-2.898181200E0
1.458182925E1;-6.811503768E-1;-1.063145256E1;-3.136404157E-1
1.460161725E1;5.770025849E-1;-1.269525433E1;-2.393004656E0
1.462155525E1;2.387019157E0;-1.176151562E1;-2.420537949E0
1.463164825E1;3.991134167E0;-1.095347309E1;-1.146822572E0
1.465174725E1;5.254075527E0;-1.179383755E1;6.691793799E-1
1.466182725E1;3.671508312E0;-1.332133865E1;-9.971849918E-1
1.468346525E1;6.212953329E-1;-1.420719242E1;-3.350685358E0
1.470169425E1;2.621650934E0;-1.351766300E1;-7.242460251E-1
1.472167925E1;3.998316765E0;-1.100375080E1;-3.793612480E0
1.473229925E1;4.984727859E0;-9.289502144E0;-2.481590033E0
1.475198425E1;2.497152328E0;-7.949946880E0;-7.122750282E-1
1.476204925E1;5.183446407E-1;-1.022443867E1;-6.224924326E-1
1.478204025E1;1.956062794E0;-1.431972027E1;4.082113743E0
1.480198725E1;1.364694953E0;-1.594298935E1;4.548983276E-1
1.482211425E1;1.635239720E0;-1.516846466E1;9.193734527E-1
1.484154325E1;4.070143029E-2;-1.474828243E1;-2.154781483E-2
1.485158525E1;1.314416766E0;-1.386242771E1;-4.094084799E-1
1.486166825E1;5.602431893E-1;-1.332612705E1;-1.230619669E0
1.488153525E1;-1.100135684E0;-1.168609810E1;-3.938461840E-1
1.489163725E1;-1.915361360E-2;-1.050336266E1;2.525882721E-1
1.491153825E1;2.536656618E0;-8.614337921E0;1.267729759E0
1.492159925E1;3.581725836E0;-7.990648270E0;1.782483220E0
1.494166425E1;3.192667961E0;-7.939172745E0;3.059789658E0
1.495175125E1;2.483984232E0;-7.474697590E0;1.744175911E0
1.497181725E1;1.394622445E0;-4.316745758E0;7.134721279E-1
1.499154125E1;1.383848548E0;-2.354697466E0;2.193088770E0
1.500178225E1;6.691793799E-1;-2.044648170E0;1.751358509E0
1.502163325E1;-1.058237195E0;-2.722207308E0;2.647987127E0
1.504152025E1;-1.174355984E0;-3.557783842E0;3.179499865E0
1.505153525E1;-1.148019671E0;-3.779247284E0;3.149572372E0
1.506165525E1;-1.185129881E0;-3.869029999E0;2.838326216E0
1.507184525E1;-1.258152962E0;-3.817554712E0;1.954865694E0
1.509166125E1;-1.742978811E0;-4.005499363E0;6.823474914E-2
1.511151725E1;-1.210268974E0;-5.662287235E0;-2.398990154E0
1.512159525E1;-2.867056608E0;-7.990648270E0;-4.050989151E0
1.514152825E1;-8.081627846E0;-1.405516148E1;-1.451125622E1
1.515158425E1;-7.347805023E0;-1.701798630E1;-1.040520096E1
1.517156925E1;-3.507505417E0;-2.561317062E1;-1.150533581E1
1.518158025E1;-3.845088005E0;-1.951992607E1;-1.301488018E1
1.520171625E1;-4.229357243E0;-1.122641182E1;-7.161057472E0
1.521171625E1;-3.863044500E0;-8.836998940E0;-3.421314240E0
1.523203625E1;-1.820790410E0;-9.478644371E0;-1.505952835E0
1.525155525E1;-9.744400978E-1;-1.008677197E1;-1.568202078E-1
1.527163925E1;-1.266532660E0;-1.403720474E1;-1.519839191E1
1.528173325E1;-1.465251446E0;-1.586158657E1;-9.188945770E0
1.529189025E1;-9.696517140E-2;-1.299572659E1;4.090493679E0
1.531153325E1;3.439270735E0;5.434837937E-1;1.971265984E1
1.532170125E1;2.819172382E0;1.557428241E0;1.626500893E1
1.534150725E1;1.212663174E0;-3.946841478E0;1.952471495E0
1.535165225E1;-2.460042238E0;-9.471462250E0;-1.109592819E1
1.537161125E1;7.056909561E0;-1.249414158E1;7.444770336E0
1.539151825E1;7.738059998E0;-1.176151562E1;2.978386879E0
1.540161425E1;4.601655483E0;-1.259948635E1;-1.053448766E-1
1.541184025E1;2.977189779E0;-1.245343971E1;-2.051830769E0
1.543600725E1;1.547851443E0;-1.026992798E1;-5.494692922E-1
1.545161425E1;1.352723986E-1;-8.831012726E0;9.481038451E-1
1.547165225E1;-1.944091797E0;-7.873332500E0;-2.886210203E0
1.549163325E1;-2.808398485E0;-8.378508568E0;-2.633621991E-1
1.550169625E1;-1.996764183E0;-7.921216488E0;8.188169599E-1
1.552172325E1;-1.029506698E-1;-7.199364662E0;1.851915002E0
1.554159925E1;1.185129881E0;-7.941566944E0;5.698199868E-1
1.556159225E1;2.537853718E0;-8.628703117E0;2.234987259E0
1.557160725E1;2.242169857E0;-8.661025047E0;2.834734917E0
1.558171525E1;1.853112102E0;-8.392873764E0;2.345120668E0
1.560161325E1;1.419761658E0;-8.391676903E0;1.149216816E-1
1.561182125E1;1.401805043E0;-8.617929459E0;-9.732429981E-1
1.563241725E1;8.966285586E-1;-9.435548782E0;-2.342726469E0
1.565188325E1;5.841852427E-1;-1.070208168E1;-1.917755604E0
1.567193525E1;3.315969408E-1;-1.122401714E1;-1.282094955E0
1.569162825E1;9.109937549E-1;-1.169447803E1;-2.732981205E0
1.570164625E1;7.565677166E-1;-1.233253288E1;-2.744952202E0
1.572179625E1;2.401384354E0;-1.152688408E1;-2.135627985E0
1.573192025E1;4.092887878E0;-1.031422138E1;-1.376665950E0
1.575160625E1;4.733336926E0;-1.086129570E1;-2.226607651E-1
1.576160825E1;1.630451322E0;-1.383848572E1;-2.179920673E0
1.577321225E1;1.011550188E0;-1.423352909E1;-2.312798738E0
1.579161725E1;1.254561663E0;-1.373074722E1;-3.926490843E-1
1.580170925E1;1.988384485E0;-1.257554436E1;-2.043451071E0
1.581267825E1;3.451241732E0;-1.114860058E1;-2.336740971E0
1.583165625E1;4.071340084E0;-7.627926826E0;-1.256955862E-1
1.585176225E1;1.106121182E0;-1.111508179E1;7.038952708E-1
1.587153925E1;3.172317147E-1;-1.503319263E1;4.544194698E0
1.588157225E1;1.316810995E-1;-1.475426769E1;4.021061897E0
1.590197625E1;-4.118026793E-1;-1.500446224E1;3.423708379E-1
1.592159325E1;-7.302315235E-1;-1.516607094E1;6.248866320E-1
1.594158825E1;-1.158793569E0;-1.495298672E1;-5.638344884E-1
1.596167025E1;2.729389966E-1;-1.137964058E1;-7.769184709E-1
1.598166825E1;7.936778665E-1;-9.667786598E0;8.044517636E-1
1.599168525E1;2.306813240E0;-9.112331390E0;9.923965931E-1
1.601168825E1;3.627215624E0;-9.139864922E0;1.640028119E0
1.602172625E1;3.135207176E0;-9.058462143E0;2.630030632E0
1.603182525E1;3.434482336E0;-8.192957878E0;2.711433411E0
1.605163325E1;2.070984364E0;-6.651092529E0;1.022324085E0
1.607219325E1;1.516726732E0;-4.505887508E0;9.516952038E-1
1.609161925E1;1.092953086E0;-2.262520552E0;2.142810583E0
1.611153825E1;-7.003039718E-1;-2.536656618E0;2.006340981E0
1.613158525E1;-1.399410844E0;-3.076549292E0;2.785653591E0
1.614159925E1;-1.614889026E0;-3.596091032E0;2.651578426E0
1.615192425E1;-9.385270476E-1;-3.960009575E0;2.105700493E0
1.617156425E1;-6.619967818E-1;-3.621230125E0;8.583213091E-1
1.618156825E1;-1.334767461E0;-3.999513865E0;-5.985504389E-2
1.619156925E1;-1.499967337E0;-4.458003521E0;-9.313444495E-1
1.620159425E1;-1.516726732E0;-5.464765549E0;-1.883039594E0
1.622153525E1;-4.580107689E0;-1.033816338E1;-6.783970356E0
1.623173825E1;-6.797138691E0;-1.378461647E1;-1.399889755E1
1.625155625E1;-5.950788498E0;-2.065597534E1;-1.059075165E1
1.627179625E1;-2.864662409E0;-2.587533569E1;-1.077271080E1
1.628185225E1;-2.450465441E0;-2.045127106E1;-1.232295609E1
1.630173425E1;-3.119644880E0;-1.045787334E1;-8.202534676E0
1.632160525E1;-3.544615507E0;-5.361814499E0;-3.796006680E0
1.633218825E1;-2.743755102E0;-5.986701488E0;-2.024297476E0
1.635164425E1;2.418143749E-1;-9.159018517E0;-3.653551817E0
1.637177125E1;8.104372621E-1;-1.224634171E1;-9.149441719E0
1.639158625E1;-5.698199868E-1;-1.582447624E1;9.973047256E0
1.640181125E1;-1.035492182E0;-1.282454109E1;1.013585281E1
1.642155425E1;6.619967818E-1;-3.687070608E0;9.753977776E0
1.644157525E1;2.322375625E-1;-4.789600372E0;1.185129881E0
1.646171625E1;1.412578970E-1;-9.642647743E0;-5.451597214E0
1.647177925E1;3.003525972E0;-1.037048435E1;2.434903145E0
1.648239125E1;5.790376663E0;-1.057040024E1;4.507084846E0
1.650153925E1;7.025784969E0;-1.112824917E1;2.819172382E0
1.651173625E1;5.164293289E0;-1.184172153E1;5.482721925E-1
1.653157825E1;3.435679436E0;-1.151132202E1;-1.600523829E0
1.654159225E1;7.888894677E-1;-9.922768593E0;4.776432514E-1
1.655164125E1;5.267243832E-2;-9.088389397E0;9.923965931E-1
1.656170225E1;-1.411381960E0;-8.389283180E0;1.903390288E-1
1.657194525E1;-2.483984232E0;-7.449558735E0;-2.200271368E0
1.659150425E1;-2.492363930E0;-6.017826080E0;-5.590460896E-1
1.660155125E1;-2.906560898E0;-6.880935669E0;2.489969730E-1
1.662171325E1;-2.178723514E-1;-8.694543839E0;2.989160776E0
1.663182025E1;1.757344007E0;-8.992621422E0;3.107673883E0
1.665156125E1;3.169923067E0;-9.550470352E0;2.358288765E0
1.666162525E1;3.454833031E0;-9.549273491E0;2.547430515E0
1.667165425E1;3.383007050E0;-9.409213066E0;2.201468468E0
1.668214725E1;3.053804159E0;-8.918401718E0;1.589749932E0
1.670185325E1;1.505952835E0;-8.087613106E0;1.747767180E-1
1.672182625E1;9.050082564E-1;-8.944737434E0;-1.944091797E0
1.674160925E1;1.795651317E-1;-1.071165848E1;-2.809595585E0
1.675306425E1;2.729389966E-1;-1.053568459E1;-1.612494826E0
1.677158825E1;9.840168953E-1;-1.026513958E1;-2.879027605E0
1.678176925E1;1.436521053E0;-1.066257763E1;-3.355473757E0
1.679178725E1;1.515529633E0;-1.137485218E1;-3.100491285E0
1.681155225E1;3.544615507E0;-1.121204662E1;-3.178302765E0
1.682162825E1;5.561730385E0;-1.029506683E1;-1.982398987E0
1.684156925E1;6.373364925E0;-1.100853920E1;1.405396342E0
1.685163325E1;4.295197964E0;-1.290355015E1;6.189011335E-1
1.687158025E1;-5.746083856E-1;-1.238999367E1;-5.303156972E-1
1.689172025E1;-4.264073372E0;-1.316691208E1;-2.404975653E0
1.691166825E1;1.315613866E0;-1.160709000E1;-1.807622313E0
1.693192525E1;2.938882589E0;-8.055291176E0;-2.507926226E0
1.695160425E1;1.224634171E0;-8.212111473E0;1.343147159E0
1.697149625E1;3.543418646E-1;-1.331056404E1;4.531026840E0
1.698154425E1;9.828197956E-1;-1.510501862E1;4.933252811E0
1.699177825E1;3.818751574E-1;-1.569878101E1;3.938461781E0
1.701169925E1;-2.076969862E0;-1.684679985E1;-8.858546615E-2
1.703155025E1;-2.798821688E0;-1.646492577E1;6.607996821E-1
1.704157925E1;-2.780865192E0;-1.573708820E1;-5.075707436E-1
1.705169225E1;-2.345120668E0;-1.445499229E1;-1.234210968E0
1.706171325E1;1.675941199E-1;-1.249294472E1;-1.659181833E0
1.708170425E1;-3.603273630E-1;-1.040041256E1;-5.841852427E-1
1.710158325E1;1.598129630E0;-9.257181168E0;9.265560508E-1
1.711163525E1;2.916137695E0;-8.838195801E0;8.906430602E-1
1.713177925E1;2.741360903E0;-9.148244858E0;1.982398987E0
1.715163225E1;2.513911724E0;-8.342596054E0;1.406593442E0
1.716173725E1;2.211045265E0;-7.501033783E0;3.651157618E-1
1.717177525E1;1.836352706E0;-6.520608425E0;2.609679997E-1
1.719154225E1;1.808819413E0;-3.523067713E0;2.197877169E0
1.720163025E1;1.304839969E0;-2.699462414E0;2.152387381E0
1.721169625E1;2.226607651E-1;-2.430114746E0;2.525882721E0
1.723180025E1;-1.200692177E0;-2.297236443E0;2.449268341E0
1.724223775E1;-1.465251446E0;-2.803610086E0;2.268506050E0
1.725376525E1;-1.726219416E0;-3.181894064E0;1.976413488E0
1.727206225E1;-1.177947283E0;-3.497928619E0;1.337161660E0
1.728311025E1;-5.434837937E-1;-3.303998232E0;5.351040959E-1
1.730160825E1;-6.536170840E-1;-3.858256102E0;-7.098808289E-1
1.732157025E1;-1.356315255E0;-7.290344238E0;-4.189853191E0
1.733171725E1;-6.617573261E0;-1.397615242E1;-1.307712936E1
1.735168925E1;-7.218518257E0;-2.153584480E1;-1.079186440E1
1.736425625E1;-4.572925091E0;-2.569217873E1;-9.706093788E0
1.738159625E1;-3.427299738E0;-1.941098976E1;-1.213860226E1
1.739168925E1;-3.691859007E0;-1.378222179E1;-1.118810463E1
1.740170325E1;-3.988739967E0;-9.066842079E0;-8.553285599E0
1.741170525E1;-2.924517393E0;-5.239710331E0;-6.057330132E0
1.742337725E1;-2.049436569E0;-3.524264812E0;-4.054580688E0
1.744164825E1;-2.252943754E0;-9.038111687E0;-1.731007814E0
1.745278125E1;-1.266532660E0;-1.083017159E1;-4.186261654E0
1.747245425E1;4.261679053E-1;-1.463814926E1;-1.161068153E1
1.749173525E1;1.774103403E0;-1.705150414E1;1.045787334E1
1.751161925E1;4.333505034E-1;-6.573280811E0;1.192192745E1
1.752165825E1;-2.262520641E-1;-2.078166962E0;7.260416508E0
1.754158225E1;1.309628367E0;-6.330269337E0;-8.948328972E0
1.755158225E1;1.069011092E0;-1.092354488E1;-4.355052948E0
1.757152625E1;5.483919144E0;-1.217092419E1;6.676231384E0
1.758156325E1;7.386112213E0;-1.091396809E1;5.540182590E0
1.759175725E1;5.322310448E0;-1.097502041E1;2.616862535E0
1.761153325E1;3.955221176E0;-1.064581776E1;-7.122750282E-1
1.763157125E1;1.735796213E0;-9.640253067E0;-2.729389966E-1
1.764162125E1;8.140285611E-1;-9.309853554E0;1.057040095E0
1.765209525E1;-5.578489900E-1;-9.161413193E0;1.614889026E0
1.767174425E1;-2.582146645E0;-7.750030994E0;-2.467224836E0
1.769173725E1;-2.620453835E0;-6.576871872E0;-1.780089021E0
1.771175425E1;3.112462163E-1;-7.551311970E0;8.248024583E-1
1.773160225E1;4.606443882E0;-9.955090523E0;4.405331016E-1
1.774161525E1;4.353855610E0;-9.719262123E0;-2.861070931E-1
1.775504825E1;3.648763418E0;-9.312247276E0;-5.925649405E-1
1.777162525E1;3.138798475E0;-8.513781548E0;-6.931213737E-1
1.778313325E1;2.893392801E0;-8.382100105E0;-1.197100878E-1
1.780162425E1;1.885433793E0;-9.692925453E0;5.961562395E-1
1.781165825E1;1.793257117E0;-1.012507915E1;-2.765302956E-1
1.782167725E1;1.634042621E0;-1.023162079E1;-1.605312228E0
1.784156525E1;2.657563984E-1;-1.067454815E1;-8.463503122E-1
1.785157125E1;-3.411737382E-1;-1.064222622E1;-3.591302410E-2
1.787180125E1;-1.404199243E0;-9.902418137E0;-2.400187254E0
1.789151625E1;-3.100491166E-1;-1.111149025E1;-3.344699860E0
1.790153125E1;8.738836050E-1;-1.201051235E1;-2.321178436E0
1.791170825E1;2.178723574E0;-1.179982281E1;-9.624691010E-1
1.793171525E1;6.349422932E0;-1.067574501E1;-1.338358760E0
1.794177725E1;6.143521786E0;-1.148139381E1;-1.605312228E0
1.796161025E1;3.412934542E0;-1.185249519E1;-1.544260144E0
1.797207325E1;1.413776159E0;-1.209071827E1;-1.772906303E0
1.799295625E1;-8.463503122E-1;-1.235647488E1;-1.789665818E0
1.801154625E1;1.411381960E0;-1.187643719E1;-2.821566820E0
1.802171125E1;2.902969599E0;-1.024000072E1;-1.833958507E0
1.803198725E1;3.457227230E0;-8.505401611E0;-1.012747288E0
1.805201725E1;5.339069963E-1;-8.178592682E0;-8.523358107E-1
1.807160225E1;-1.182735682E0;-1.063025570E1;3.898957491E0
1.808175025E1;-1.480813742E0;-1.236844635E1;3.552995205E0
1.810554425E1;-1.598129630E0;-1.495059204E1;1.377863050E0
1.812172425E1;-1.918952703E0;-1.606150246E1;3.603273630E-1
1.814155625E1;-2.187103271E0;-1.558026791E1;-2.345120668E0
1.815161125E1;-1.112106681E0;-1.397136402E1;-2.397793055E0
1.816163525E1;5.626373887E-1;-1.200452709E1;-1.255758762E0
1.817171425E1;1.344344258E0;-1.082418633E1;-1.210268974E0
1.819164725E1;1.825578809E0;-9.829395294E0;-1.783680320E-1
1.820166925E1;1.763329506E0;-9.593565941E0;1.229422569E0
1.822169025E1;2.409764051E0;-8.494627953E0;3.251325846E0
1.824157225E1;2.796427488E0;-8.413225174E0;1.740584612E0
1.825157825E1;1.395819545E0;-8.105569839E0;9.121908545E-1
1.827209125E1;-8.499415964E-2;-6.190208435E0;-5.530605912E-1
1.829212025E1;-2.346317619E-1;-4.498704910E0;7.888894677E-1
1.831157725E1;-1.187524080E0;-2.833537817E0;1.352723956E0
1.832179025E1;-1.823184609E0;-2.646790028E0;1.478419542E0
1.833206025E1;-2.050633669E0;-2.634819031E0;1.376665950E0
1.835162625E1;-1.357512355E0;-3.265691042E0;8.212111592E-1
1.836164925E1;-8.068459630E-1;-3.536235809E0;6.584054828E-1
1.837187225E1;-1.675941199E-1;-3.651157618E0;1.316810958E-2
1.838337525E1;3.387795389E-1;-3.781641483E0;-6.512228847E-1
1.840157925E1;-6.751648784E-1;-5.287594318E0;-1.808819413E0
1.841168025E1;-1.617283225E0;-6.702567577E0;-3.025073767E0
1.843157525E1;-3.835511208E0;-1.038963795E1;-7.762001991E0
1.845158025E1;-7.129932880E0;-1.626381302E1;-1.194826317E1
1.847180625E1;-4.072536945E0;-2.236543465E1;-8.845377922E0
1.848212725E1;-3.752911091E0;-2.325368309E1;-9.296685219E0
1.850171025E1;-3.903745890E0;-1.388517284E1;-7.893682957E0
1.852172025E1;-3.214215755E0;-5.433640957E0;-5.708973885E0
1.853188825E1;-3.433285236E0;-7.358579159E0;-2.643198729E0
1.855168125E1;-1.625662923E0;-1.115937424E1;1.604115129E0
1.856172925E1;-1.513135433E0;-1.244984913E1;-1.498770237E0
1.858164325E1;-9.624691010E-1;-1.479496956E1;-7.608773232E0
1.860163425E1;1.807622313E0;-1.151251888E1;6.080075264E0
1.862159625E1;3.797203779E0;-2.776076794E0;1.221162605E1
1.863188025E1;4.253299236E0;-1.641225219E0;9.595960617E0
1.865183125E1;2.766499996E0;-6.530185223E0;-5.123591423E-1
1.867167725E1;4.046200812E-1;-1.384686565E1;-2.274491638E-1
1.868213725E1;2.978386879E0;-1.239957047E1;3.681085110E0
1.870170825E1;3.175908566E0;-1.001494598E1;9.971849918E-1
1.871174425E1;2.304419041E0;-9.771934509E0;-1.699883193E-1
1.873177025E1;1.216254473E0;-9.560047150E0;-5.279214978E-1
1.875867825E1;-2.322375625E-1;-9.533711433E0;2.813186944E-1
1.877166725E1;-1.625662923E0;-8.498218536E0;-1.920149803E0
1.878175825E1;-1.918952703E0;-7.515398979E0;-2.474407434E0
1.879244925E1;-1.679532528E0;-7.242460251E0;-9.852139950E-1
1.881160125E1;-2.585737705E-1;-7.272387505E0;-1.173158810E-1
1.882182525E1;1.288080573E0;-7.624335289E0;4.740519226E-1
1.883379625E1;2.681505919E0;-8.486248016E0;9.253589511E-1
1.885158625E1;4.410119534E0;-9.730035782E0;5.470750928E-1
1.887156125E1;3.282450438E0;-1.007240677E1;4.082113802E-1
1.888164625E1;2.598906040E0;-9.550470352E0;6.584054828E-1
1.890162725E1;1.157596469E0;-8.996212959E0;1.316810958E-2
1.891181925E1;1.076193690E0;-9.713275909E0;-2.262520641E-1
1.893158125E1;5.650315881E-1;-1.078707600E1;-8.116343617E-1
1.895220725E1;-1.316810958E-2;-1.107198620E1;-2.803610086E0
1.897163325E1;1.376665980E-1;-1.012148762E1;-3.384204149E0
1.898177825E1;8.655039072E-1;-1.035492229E1;-2.955641985E0
1.900197725E1;2.525882721E0;-1.216134739E1;-2.256535053E0
1.902162025E1;3.756502390E0;-1.134971333E1;-2.171540976E0
1.903181725E1;4.492719650E0;-1.081820011E1;-1.657984734E0
1.905158125E1;5.056553841E0;-1.148378849E1;-9.109937549E-1
1.907183525E1;4.209006786E0;-1.360744572E1;-1.303642869E0
1.909158125E1;1.854309201E0;-1.422874069E1;-8.690952063E-1
1.910158325E1;7.015010715E-1;-1.221401978E1;-9.720458984E-1
1.911161125E1;1.157596469E0;-1.161427212E1;1.340752989E-1
1.912170425E1;1.769315004E0;-1.065659142E1;-1.687912196E-1
1.913235925E1;1.137245774E0;-9.720458984E0;-1.223437071E0
1.915165325E1;-2.466027737E0;-1.020887566E1;-2.294842243E0
1.917154525E1;-2.528276920E0;-1.020289040E1;3.992331266E0
1.918156025E1;-2.073378563E0;-1.072482681E1;4.854243755E0
1.919158325E1;-1.687912226E0;-1.169208431E1;1.908178806E0
1.921177825E1;-1.484405100E-1;-1.248695850E1;-1.298854470E0
1.923157525E1;1.149216816E-1;-1.429936981E1;-2.370259613E-1
1.925153125E1;-7.936778665E-1;-1.529535770E1;-4.800374508E-1
1.927157825E1;-2.250549644E-1;-1.220324612E1;-6.284779310E-1
1.928235025E1;1.004367590E0;-9.737217903E0;1.628057122E0
1.930165125E1;1.963245392E0;-9.275136948E0;1.939303398E0
1.932187425E1;1.782483220E0;-9.020154953E0;1.553836942E0
1.934154525E1;1.171961784E0;-8.316259384E0;7.362170219E-1
1.935161825E1;8.726865053E-1;-7.612364292E0;3.591302410E-2
1.936170025E1;5.195417404E-1;-6.660669327E0;-1.292868853E-1
1.938158925E1;5.662286878E-1;-4.027047157E0;1.003170490E0
1.939159125E1;3.399766386E-1;-3.039438963E0;1.234210968E0
1.941165925E1;-8.547300100E-1;-2.774879694E0;1.443703651E0
1.943157025E1;-1.316810966E0;-2.813186884E0;1.643619418E0
1.944160825E1;-1.248576164E0;-2.862268209E0;1.546654344E0
1.946160625E1;-4.800374508E-1;-3.153163671E0;1.004367590E0
1.948283325E1;2.980781198E-1;-3.635595322E0;-4.153940082E-1
1.950171025E1;-1.036689281E0;-6.285976410E0;-3.840299606E0
1.952156925E1;-5.037400246E0;-1.094629002E1;-9.221267700E0
1.953175725E1;-7.023390770E0;-1.372835255E1;-1.339316463E1
1.955163025E1;-6.068104267E0;-2.085589027E1;-9.387664795E0
1.957152925E1;-4.031835556E0;-2.143528748E1;-1.042076302E1
1.958162325E1;-3.904942989E0;-1.545936012E1;-1.051772785E1
1.960180125E1;-4.958391666E0;-8.480262756E0;-8.428787231E0
1.962166025E1;-4.390965939E0;-7.735665798E0;-2.333149672E0
1.964154725E1;-2.626439333E0;-1.161666679E1;5.901707411E-1
1.965160425E1;-4.442441463E0;-1.201530170E1;-2.030282974E0
1.966164025E1;-5.638344765E0;-1.272637939E1;-1.007480049E1
1.967165725E1;-3.623624325E0;-1.245822811E1;-8.608352661E0
1.968172525E1;5.734112859E-1;-1.166574764E1;9.357737541E0
1.970158825E1;4.914099216E0;-5.013458252E0;1.201649857E1
1.972625025E1;1.065419793E0;-6.341042995E0;-2.717418969E-1
1.974216225E1;3.938461840E-1;-9.983820915E0;5.829881430E-1
1.976162925E1;5.276820660E0;-8.303091049E0;3.697844505E0
1.977400925E1;4.681861401E0;-9.297882080E0;2.319981337E0
1.979162725E1;3.803189516E0;-1.213022327E1;1.006761789E0
1.981159025E1;2.420537949E0;-1.393784523E1;-1.335964561E0
1.982366825E1;2.032677174E0;-1.311184597E1;-1.975216389E0
1.983666175E1;1.072602391E0;-1.055723286E1;1.065419793E0
1.985169625E1;3.878606856E-1;-9.440337181E0;9.385270476E-1
1.987153525E1;-2.889801502E0;-7.961917877E0;-3.487154722E0
1.988258825E1;-3.119644880E0;-7.672219276E0;-4.967968464E-1
1.990174025E1;-6.859387755E-1;-7.054515362E0;5.937620401E-1
1.991225425E1;5.374982953E-1;-7.349001884E0;1.174355984E0
1.993165325E1;2.084152699E0;-8.506598473E0;1.661576033E0
1.995164325E1;2.099714994E0;-8.477868080E0;1.285686255E0
1.996174225E1;1.376665950E0;-8.237251282E0;1.708262920E0
1.998217325E1;1.883039594E0;-7.764396191E0;1.526303530E0
2.000156825E1;2.427720547E0;-8.166622162E0;6.596025825E-1
2.002155825E1;1.614889026E0;-8.801085472E0;-3.052607179E-1
2.003161925E1;1.212663174E0;-9.124302864E0;-1.052251697E0
2.005160325E1;-6.165069342E-1;-1.035492229E1;-1.544260144E0
2.007151225E1;-1.859097600E0;-1.086728191E1;-2.434903145E0
2.008185825E1;-2.094926536E-1;-1.222120285E1;-3.427299738E0
2.010281025E1;2.692279816E0;-1.267490387E1;-3.287238836E0
2.012234625E1;5.373785496E0;-1.114261436E1;-1.192312479E0
2.014263525E1;3.810372114E0;-1.274313831E1;-1.325190663E0
2.016158125E1;2.730587006E0;-1.545337486E1;-3.038241863E0
2.018209925E1;4.465186119E0;-1.454118443E1;-1.238999367E0
2.020161725E1;4.390965939E0;-1.160948372E1;-1.690306425E0
2.021219625E1;4.639962673E0;-1.029506683E1;4.955997467E-1
2.023172425E1;1.000776291E0;-1.033098030E1;3.088520169E-1
2.025165925E1;-2.662352324E0;-1.256836224E1;1.662773132E0
2.027178425E1;-1.802833915E0;-1.440112305E1;2.458845139E0
2.029172325E1;-7.864952683E-1;-1.531211662E1;3.112462163E-2
2.031184225E1;-7.505822182E-1;-1.586637497E1;3.004723191E-1
2.033155825E1;-7.841010690E-1;-1.438196945E1;7.422025502E-2
2.034160625E1;-3.208230138E-1;-1.273834991E1;-3.088520169E-1
2.035162425E1;-8.619125932E-2;-1.153646088E1;5.985504016E-3
2.037155525E1;2.801215947E-1;-9.671378136E0;9.097966552E-1
2.038171325E1;1.225831270E0;-9.070432663E0;1.533486247E0
2.040191425E1;1.110909581E0;-8.201337814E0;2.300827742E0
2.042243925E1;1.499967337E0;-7.328651428E0;2.139219284E0
2.044162825E1;1.935712099E0;-5.491101742E0;2.597708702E-1
2.045198725E1;1.927332401E0;-4.525041103E0;4.273650050E-1
2.047196525E1;1.315613866E0;-1.902193308E0;1.031900883E0
2.049177125E1;-1.197100850E-3;-1.932120800E0;1.393425345E0
2.051151925E1;-2.262520641E-1;-2.316390038E0;2.183511972E0
2.052161425E1;-5.147533491E-2;-2.576161146E0;2.240972757E0
2.053180425E1;2.849099934E-1;-2.749740601E0;1.987187386E0
2.055191025E1;5.913678408E-1;-2.869450808E0;8.583213091E-1
2.057154625E1;-6.655880809E-1;-3.514688015E0;-9.026140571E-1
2.058161125E1;-1.189918280E0;-4.614823818E0;-2.264914751E0
2.060155425E1;-3.157952070E0;-8.860940933E0;-6.513425827E0
2.061168525E1;-6.070498466E0;-1.223317337E1;-1.077031612E1
2.063176625E1;-6.364984989E0;-1.924100113E1;-1.085052204E1
2.064215525E1;-6.203376770E0;-2.402461624E1;-7.708132267E0
2.066170925E1;-5.935225964E0;-1.548210526E1;-1.109712505E1
2.067184925E1;-5.726930618E0;-1.103128433E1;-8.900444984E0
2.068187325E1;-5.819107056E0;-8.379706383E0;-5.826289654E0
2.070260625E1;-6.449979305E0;-9.868899345E0;1.902193308E0
2.072153125E1;-2.992752075E0;-1.251329517E1;1.975216419E-1
2.073536625E1;-4.912901878E0;-1.321359921E1;-1.772906303E0
2.075291625E1;-4.183867455E0;-1.354160500E1;-1.083855152E1
2.077182425E1;2.546233416E0;-6.864176273E0;5.094861031E0
2.079161625E1;7.782352448E0;5.123591423E-1;1.652358246E1
2.080163825E1;3.594893932E0;-1.951274395E0;9.068038940E0
2.082181725E1;-1.125274777E0;-1.081700325E1;-7.920019150E0
2.084152525E1;2.365471363E0;-1.228704357E1;4.892550945E0
2.085181225E1;5.673060894E0;-1.065419769E1;5.102043629E0
2.087154325E1;2.858676910E0;-1.222359657E1;-6.835445762E-1
2.088158025E1;2.917334795E0;-1.251568985E1;-9.780313969E-1
2.089158825E1;2.968810081E0;-1.258033276E1;-5.734112859E-1
2.091157825E1;1.886630893E0;-1.141196251E1;9.337386489E-1
2.093160025E1;1.867477298E-1;-9.695320129E0;1.748964310E0
2.095154925E1;-2.409764051E0;-8.310274124E0;-3.952826977E0
2.097165525E1;-3.398569345E0;-7.310694695E0;-2.607285738E0
2.099155525E1;-1.747767210E0;-6.968324184E0;4.932055473E-1
2.100156725E1;-6.512228847E-1;-7.272387505E0;9.804255962E-1
2.101171825E1;3.375824392E-1;-7.951143742E0;1.140837073E0
2.102196325E1;1.319205165E0;-8.530540466E0;1.025915384E0
2.103206225E1;2.141613483E0;-9.022548676E0;5.554547906E-1
2.104305725E1;2.085349798E0;-8.483853340E0;-2.094926536E-1
2.106150325E1;1.346738458E0;-7.620744228E0;2.057816267E0
2.107170525E1;1.674744129E0;-7.756016254E0;2.846705914E0
2.108211625E1;2.126051188E0;-8.322244644E0;2.488772631E0
2.110164125E1;1.977610588E0;-9.003395081E0;6.344634295E-1
2.112165225E1;1.582567334E0;-9.563638687E0;-6.631938815E-1
2.113235925E1;8.762778044E-1;-9.804255486E0;-9.229647517E-1
2.115158125E1;-2.047042400E-1;-1.034534550E1;-2.692279816E0
2.117152925E1;-7.864952683E-1;-1.111268711E1;-2.904166698E0
2.118403825E1;-4.094084799E-1;-1.166215611E1;-1.859097600E0
2.120159625E1;1.304839969E0;-1.252526665E1;-2.337938070E0
2.122155325E1;4.375403404E0;-1.148139381E1;-1.514332533E0
2.123181425E1;5.749675274E0;-1.086009884E1;-1.125274822E-1
2.125161125E1;4.022258759E0;-1.324352646E1;-1.650802016E0
2.127178825E1;1.425747156E0;-1.414015484E1;-2.817975283E0
2.128184125E1;3.037044764E0;-1.359667110E1;-1.164779186E0
2.130313225E1;4.472368717E0;-1.173398209E1;-2.316390038E0
2.132161025E1;3.847482204E0;-8.942343712E0;-2.788047791E0
2.134160925E1;4.201824069E-1;-8.185775757E0;-1.411381960E0
2.135308625E1;-9.888052940E-1;-9.129091263E0;-8.858546615E-2
2.137163325E1;-1.225831270E0;-1.287242508E1;3.368641853E0
2.138215225E1;-2.585737705E-1;-1.377144814E1;2.680308819E0
2.140311725E1;-1.831564307E-1;-1.465131760E1;8.343793154E-1
2.142153525E1;4.058171809E-1;-1.581968784E1;7.733271718E-1
2.143181325E1;-4.453215301E-1;-1.634521484E1;1.735796183E-1
2.145163525E1;-1.052251697E0;-1.372715569E1;-1.902193308E0
2.147159225E1;8.427590132E-1;-1.008557510E1;-1.544260085E-1
2.148197025E1;1.656787634E0;-9.410409927E0;-3.962403834E-1
2.150162025E1;2.305616140E0;-9.208099365E0;4.429273009E-1
2.152163625E1;2.303221941E0;-8.797493935E0;3.019088268E0
2.153166725E1;2.604891539E0;-8.036137581E0;2.647987127E0
2.155158925E1;1.790862918E0;-6.357802391E0;7.613561153E-1
2.156164825E1;1.558625340E0;-5.301959515E0;2.837128937E-1
2.157170525E1;1.238999367E0;-4.745307922E0;8.702923059E-1
2.158205125E1;1.031900883E0;-3.560178041E0;1.624465823E0
2.160166825E1;1.035492182E0;-2.340332270E0;2.019509077E0
2.162164025E1;-1.843535304E-1;-2.548627615E0;2.557007313E0
2.163241125E1;-8.810662031E-1;-3.447650433E0;2.624045134E0
2.165177225E1;-5.758054852E-1;-3.740940094E0;2.090138197E0
2.167157725E1;-2.489969730E-1;-3.383007050E0;9.564836025E-1
2.168272725E1;-5.279214978E-1;-3.739742994E0;1.077390742E-2
2.170155725E1;-1.304839969E0;-5.190629482E0;-1.610100627E0
2.172158625E1;-3.892971992E0;-9.739612579E0;-6.630741596E0
2.173828725E1;-6.855796337E0;-1.328662205E1;-1.415332317E1
2.175159425E1;-7.589619160E0;-2.082476616E1;-1.062786102E1
2.176276025E1;-6.645106792E0;-2.571851540E1;-9.156624794E0
2.178166625E1;-3.659537315E0;-1.973420715E1;-1.198657036E1
2.180161425E1;-3.716998100E0;-1.017655468E1;-9.662998199E0
2.182160125E1;-5.092466831E0;-7.331045628E0;-3.418920040E0
2.183165225E1;-4.471171856E0;-9.709685326E0;-2.178723514E-1
2.185156425E1;-4.716577530E0;-1.431732655E1;-3.637989521E0
2.186163225E1;-3.165134668E0;-1.495777512E1;-1.204044056E1
2.188165125E1;-7.661445439E-2;-1.243308926E1;5.006275654E0
2.190164625E1;5.421669960E0;-5.255272985E-1;1.876335907E1
2.191165825E1;3.421314240E0;1.233013868E-1;1.388158131E1
2.193170925E1;-4.908113480E-1;-7.264008045E0;-5.822698593E0
2.194171325E1;-1.574187636E0;-1.202487850E1;-8.864531517E0
2.196174125E1;5.510255337E0;-1.071405220E1;7.422025204E0
2.198168125E1;5.846640587E0;-1.092953110E1;3.716998100E0
2.200178025E1;3.823540211E0;-1.348055267E1;-1.165976286E0
2.202166125E1;3.524264812E0;-1.241633034E1;-1.443703651E0
2.204272325E1;3.842693865E-1;-8.951920509E0;1.125274777E0
2.206153025E1;-2.229001760E0;-7.113173485E0;-5.055356979E0
2.207159025E1;-3.563769341E0;-7.629123688E0;-4.007893562E0
2.208260925E1;-3.506308317E0;-7.621941090E0;-2.061407566E0
2.210160625E1;-8.930372596E-1;-7.105990410E0;8.499415964E-2
2.212157825E1;1.653196216E0;-8.323442459E0;8.750807047E-1
2.213161425E1;2.823961020E0;-8.943540573E0;2.693476975E-1
2.215161025E1;2.387019157E0;-8.847772598E0;-3.687070608E-1
2.217170225E1;9.636662006E-1;-8.145073891E0;1.499967337E0
2.218215025E1;9.720458984E-1;-8.184578896E0;1.685518026E0
2.220158525E1;1.570596337E0;-8.765172005E0;1.073799491E0
2.222159525E1;1.552639842E0;-9.048885345E0;-1.158793569E0
2.223662525E1;1.365892053E0;-9.182960510E0;-1.751358509E0
2.225156125E1;4.776432514E-1;-1.017894840E1;-2.606088638E0
2.226158625E1;-2.394201700E-3;-1.073560047E1;-3.411737442E0
2.227192425E1;-3.363853395E-1;-1.112824917E1;-3.098097086E0
2.229192625E1;4.273650050E-1;-1.187045193E1;-1.411381960E0
2.231162125E1;4.278438568E0;-1.159272480E1;-1.449689150E0
2.232179625E1;6.376956463E0;-1.079665279E1;-2.609679997E-1
2.233275325E1;6.771999359E0;-1.143350983E1;5.949591398E-1
2.235157825E1;3.951629877E0;-1.448970890E1;-1.723825216E0
2.237185325E1;2.191891670E0;-1.472912884E1;-2.448071241E0
2.239153925E1;2.075772762E0;-1.398094082E1;-2.530671120E0
2.240179025E1;2.468421936E0;-1.195664310E1;-3.242946148E0
2.242156625E1;3.228580952E0;-8.768763542E0;-2.103306293E0
2.243184925E1;-4.716577232E-1;-8.944737434E0;-1.158793569E0
2.245178825E1;-2.118868589E0;-1.270961952E1;3.471592426E0
2.247160625E1;-1.003170490E0;-1.456033802E1;2.962824583E0
2.248165225E1;-1.424550056E0;-1.489073753E1;1.406593442E0
2.250158225E1;-3.459621370E-1;-1.493143845E1;6.871358752E-1
2.251179025E1;-8.595184088E-1;-1.507509136E1;7.242460251E-1
2.253162925E1;-2.061407566E0;-1.499368858E1;-2.067393064E0
2.255174725E1;-9.397241473E-1;-1.237443161E1;-6.667851806E-1
2.257156825E1;1.142034173E0;-9.783905029E0;5.985504389E-2
2.258158325E1;1.243787766E0;-9.528923035E0;1.244984865E-1
2.260157725E1;1.218648672E0;-9.109937668E0;2.069787264E0
2.262156925E1;1.808819413E0;-7.718906403E0;2.622848034E0
2.263163725E1;1.403002143E0;-6.766014099E0;6.296750307E-1
2.264170125E1;9.959878922E-1;-5.936423302E0;1.747767180E-1
2.266156625E1;7.697358727E-1;-4.611232281E0;1.381454349E0
2.267160025E1;6.045359373E-1;-3.281253338E0;1.781286120E0
2.268174625E1;7.649474144E-1;-2.494758129E0;1.355118155E0
2.270165225E1;-6.584054977E-2;-2.560598612E0;2.038662672E0
2.272161325E1;-7.194576263E-1;-2.922123194E0;2.360682964E0
2.273187625E1;-4.848258495E-1;-3.242946148E0;2.280477047E0
2.275181525E1;2.035071403E-1;-3.614047527E0;1.516726732E0
2.277206225E1;-1.125274822E-1;-3.678690910E0;5.997475386E-1
2.278214225E1;-7.386112213E-1;-4.115632534E0;-5.267243832E-2
2.280174225E1;-1.444900751E0;-6.001066685E0;-2.199074268E0
2.282167425E1;-4.106055737E0;-1.060391903E1;-1.253963184E1
2.283216725E1;-6.974309444E0;-1.758181953E1;-1.620874596E1
2.285164825E1;-5.793968201E0;-2.716102028E1;-9.388861656E0
2.287157825E1;-4.278438568E0;-1.999038696E1;-1.269166279E1
2.288158125E1;-4.212597847E0;-1.360505104E1;-1.127908421E1
2.290248225E1;-4.000710964E0;-5.021838188E0;-5.602431774E0
2.292165325E1;-3.144783974E0;-7.100005150E0;7.266402245E-1
2.294174025E1;-3.101688385E0;-1.073919201E1;1.612494826E0
2.295198725E1;-4.226963043E0;-1.298255825E1;-6.293159008E0
2.297163425E1;-7.996633649E-1;-1.447175217E1;-3.471592367E-1
2.298204225E1;9.672574997E-1;-1.323514652E1;7.460332394E0
2.300162025E1;2.574964046E0;-5.203797340E0;1.218528938E1
2.302158725E1;-3.591302410E-2;-6.785167694E0;-5.566518784E0
2.303226725E1;2.992752194E-1;-8.101978302E0;1.039083481E0
2.305156825E1;5.340266705E0;-8.979453087E0;4.127603531E0
2.306158625E1;5.532999992E0;-1.034774017E1;2.944868088E0
2.307174025E1;5.318718910E0;-1.231816769E1;3.259705544E0
2.308178225E1;4.390965939E0;-1.407910347E1;2.142810583E0
2.310156325E1;4.456806660E0;-1.394383049E1;-6.584054977E-2
2.312158425E1;3.605667830E0;-1.190516758E1;-2.513911761E-2
2.313178225E1;1.131260276E0;-1.137245846E1;-1.472434103E-1
2.315156025E1;-8.343793154E-1;-7.896077156E0;-1.359906554E0
2.317170525E1;-4.405331135E0;-6.786364555E0;-2.319981337E0
2.318189525E1;-6.531382084E0;-7.783549786E0;-1.641225219E0
2.320160425E1;-3.495534420E0;-6.351817131E0;-3.076549172E-1
2.322162925E1;3.700238705E0;-8.288725853E0;1.624465823E0
2.323165425E1;3.852270603E0;-8.938752174E0;1.665167332E0
2.325152325E1;2.706645012E0;-8.835801125E0;1.272518158E0
2.326154825E1;2.416946650E0;-8.367734909E0;1.283292055E0
2.327209725E1;2.426523447E0;-7.854178905E0;1.210268974E0
2.329154025E1;1.832761407E0;-8.188169479E0;-1.843535304E-1
2.330160725E1;1.574187636E0;-8.517372131E0;-1.082179189E0
2.331167325E1;1.228225470E0;-8.702922821E0;-1.328781962E0
2.333192025E1;5.231330991E-1;-9.755174637E0;-1.763329506E0
2.335183225E1;2.154781520E-1;-1.056082344E1;-2.072181463E0
2.337166225E1;2.873042040E-2;-1.151012421E1;-2.873042107E0
2.339158525E1;8.643068075E-1;-1.273236465E1;-1.532289028E0
2.340165425E1;2.082955360E0;-1.234570122E1;-1.045069098E0
2.342157425E1;5.625176907E0;-1.074038887E1;8.212111592E-1
2.343186025E1;4.015076160E0;-1.274433517E1;-7.230489254E-1
2.345188125E1;8.116343617E-1;-1.448252583E1;-2.760514498E0
2.347174325E1;1.792060018E0;-1.477581596E1;-6.081272364E-1
2.349159825E1;2.552218914E0;-1.261624622E1;-3.797203779E0
2.350183625E1;2.996343374E0;-1.160709000E1;-4.128800869E0
2.352207725E1;2.833537817E0;-7.477091789E0;-1.580173135E0
2.354166025E1;-1.347935557E0;-9.162610054E0;-9.397241473E-1
2.356168925E1;-1.936909199E0;-1.272637939E1;1.999158382E0
2.358157825E1;1.033097982E0;-1.363258457E1;2.905363798E0
2.359158625E1;5.171475410E-1;-1.422514915E1;2.251746655E0
2.360165025E1;5.171475410E-1;-1.473032570E1;1.162384868E0
2.362165525E1;-1.206677675E0;-1.623508263E1;-6.045359373E-1
2.364154125E1;-1.491587639E0;-1.346139908E1;-1.833958507E0
2.365173725E1;-2.466027737E-1;-1.140358257E1;-9.481038451E-1
2.367157025E1;1.786074519E0;-8.749609947E0;3.986345828E-1
2.368158525E1;1.654393315E0;-8.476671219E0;-3.244143426E-1
2.369171125E1;1.405396342E0;-8.645462036E0;-5.722141862E-1
2.371150725E1;1.225831270E0;-8.112752914E0;2.950853586E0
2.372169025E1;1.740584612E0;-7.572859764E0;3.142389774E0
2.374159325E1;1.467645645E0;-6.362590790E0;5.614402890E-1
2.375256525E1;8.822633028E-1;-5.810727596E0;1.065419763E-1
2.377176125E1;1.210268974E0;-3.799597979E0;1.079784989E0
2.378221125E1;1.307234168E0;-2.932897091E0;1.327584863E0
2.380166725E1;4.405331016E-1;-2.443282843E0;1.600523829E0
2.381197525E1;-4.309563041E-1;-3.135207176E0;1.772906303E0
2.383303225E1;-8.738836050E-1;-3.956418276E0;2.108094692E0
2.385169825E1;-7.194576263E-1;-4.185064793E0;1.539471745E0
2.387158725E1;-1.064222693E0;-4.547786236E0;5.171475410E-1
2.389153325E1;-1.927332401E0;-5.747281075E0;-9.564836025E-1
2.390153725E1;-1.799242616E0;-6.573280811E0;-1.842338204E0
2.391174025E1;-2.087743998E0;-8.001421928E0;-3.703830004E0
2.393160325E1;-5.232527733E0;-1.339795303E1;-1.418923664E1
2.395191425E1;-5.088875771E0;-2.120783806E1;-1.165736771E1
2.397152325E1;-3.168725967E0;-2.464591217E1;-1.049977112E1
2.398157725E1;-3.584120035E0;-1.948760414E1;-1.107916832E1
2.400166225E1;-3.869029999E0;-7.319074631E0;-6.895300865E0
2.402165925E1;-3.241749048E0;-7.024587631E0;-3.292027414E-1
2.403173025E1;-1.228225470E0;-9.679757118E0;7.254431248E-1
2.405159925E1;-7.374141216E-1;-1.115937424E1;-2.495955229E0
2.406171425E1;-8.283938169E-1;-1.242590714E1;-7.024587631E0
2.408159725E1;-1.053448796E0;-1.547133160E1;1.659181833E0
2.409162825E1;-5.722141862E-1;-1.293826580E1;8.582015991E0
2.411165125E1;-6.823474765E-1;-2.315192938E0;1.204283428E1
2.412170525E1;-1.301248670E0;-1.288080573E0;9.879673004E0
2.413207925E1;-1.271321058E0;-2.470816135E0;4.307168961E0
2.415161225E1;-1.865083098E0;-8.196549416E0;-6.931213856E0
2.417156825E1;3.378218651E0;-1.157357121E1;3.872621298E0
2.418157025E1;5.853823185E0;-1.163222885E1;4.776432514E0
2.419173325E1;6.745663166E0;-1.241273880E1;4.999093056E0
2.421151425E1;5.282805920E0;-1.354519653E1;-8.523358107E-1
2.422161525E1;5.226542473E0;-1.232415295E1;-1.059434295E0
2.424153125E1;5.398924947E-1;-1.065180302E1;-4.513070285E-1
2.425169625E1;-1.244984865E-1;-9.421183586E0;-2.968810201E-1
2.427161325E1;-1.693897724E0;-7.656657219E0;-4.189853072E-1
2.429171525E1;-3.294421434E0;-7.852981567E0;-1.047463298E0
2.431155125E1;-3.021482468E0;-7.983465672E0;2.346317619E-1
2.432159025E1;-1.218648672E0;-7.370550156E0;9.911994934E-1
2.434160225E1;1.523909330E0;-7.456741333E0;7.086837292E-1
2.435161725E1;2.215833664E0;-7.981071472E0;4.201824069E-1
2.437166425E1;2.094926596E0;-8.730456352E0;1.279700756E0
2.439189425E1;2.303221941E0;-8.395268440E0;6.679822803E-1
2.441186125E1;1.951274395E0;-7.967903137E0;-4.225766063E-1
2.443170825E1;1.286883354E0;-8.686163902E0;-1.318008065E0
2.445167325E1;7.158663273E-1;-9.515754700E0;-2.440888643E0
2.447274325E1;4.884171486E-1;-1.031302357E1;-2.551021814E0
2.449174825E1;-4.908113554E-2;-1.163582039E1;-3.004723072E0
2.451162125E1;9.241618514E-1;-1.214219379E1;-3.214215755E0
2.452165225E1;2.636016130E0;-1.179024601E1;-2.559401512E0
2.454162125E1;5.402516365E0;-1.102051067E1;1.033097982E0
2.456159625E1;3.932476282E0;-1.416888523E1;-2.455253839E0
2.458197925E1;3.569754839E0;-1.463814926E1;-3.383007050E0
2.460160225E1;4.016273499E0;-1.158793640E1;-1.830367208E0
2.461302725E1;4.663905144E0;-9.859322548E0;-9.421183467E-1
2.463184625E1;9.947907925E-1;-9.944316864E0;-9.720458984E-1
2.465176225E1;-2.335543871E0;-1.431732655E1;1.734599113E0
2.467166125E1;-2.506729126E0;-1.474828243E1;2.377442360E0
2.468172625E1;-2.499546528E0;-1.514811420E1;1.048660398E0
2.469175725E1;-1.978807688E0;-1.542224979E1;7.553706169E-1
2.471156825E1;-5.195417404E-1;-1.501882744E1;1.657984734E0
2.472182625E1;-9.780313969E-1;-1.469680691E1;5.817909837E-1
2.473362725E1;-1.874659896E0;-1.467525959E1;-1.067813993E0
2.474533225E1;-1.109712481E0;-1.315015316E1;-1.800439715E0
2.476156225E1;1.436521020E-2;-1.161786366E1;-1.259350061E0
2.477185925E1;8.942343593E-1;-1.033217716E1;-8.559271097E-1
2.479158025E1;2.519897223E0;-8.487444878E0;1.194706678E0
2.480171225E1;2.300827742E0;-8.143877029E0;2.756923199E0
2.481345325E1;2.151190281E0;-7.699752808E0;3.404554844E0
2.483162225E1;2.033874273E0;-6.194996834E0;1.138442874E0
2.484162425E1;1.588552833E0;-5.455188751E0;1.077390742E-2
2.485210325E1;1.561019540E0;-4.850652695E0;-2.657563984E-1
2.487182825E1;1.596932530E0;-3.017891169E0;1.744175911E0
2.489169825E1;9.516952038E-1;-2.385822058E0;2.080561161E0
2.491155525E1;-1.029506698E-1;-2.685097218E0;2.313995838E0
2.492161725E1;-6.464344859E-1;-2.835932016E0;2.753331900E0
2.494164725E1;-9.397241473E-1;-3.068169594E0;2.632424831E0
2.496160825E1;-1.221042871E0;-3.468001127E0;1.817199111E0
2.497161525E1;-1.244984865E0;-3.558980942E0;1.064222693E0
2.499155125E1;-1.687912226E0;-6.096834660E0;-1.885433793E0
2.500161025E1;-2.427720547E0;-8.001421928E0;-3.598485231E0
2.502190325E1;-7.110779285E0;-1.466927338E1;-1.578138065E1
2.503234125E1;-7.782352448E0;-1.814086533E1;-1.207036781E1
2.505156825E1;-6.610390663E0;-2.639487648E1;-8.060079575E0
2.506197825E1;-4.808753967E0;-2.320340538E1;-1.069609642E1
2.508226525E1;-5.149928093E0;-1.326387787E1;-1.140717411E1
2.510162725E1;-6.482301235E0;-1.153406715E1;-3.539827108E0
2.511295225E1;-6.403292656E0;-1.276708031E1;6.093243361E-1
2.513157725E1;-3.429693937E0;-1.319803715E1;1.349132657E0
2.515154525E1;-3.576937437E0;-1.503319263E1;-1.081341171E1
2.516154525E1;-1.262941360E0;-1.541147614E1;-1.300171280E1
2.518167225E1;7.783549786E0;3.624821424E0;1.849880028E1
2.520156725E1;4.951209068E0;2.601300240E0;1.493981838E1
2.522171125E1;-4.291606426E0;-9.279925346E0;-1.421557236E1
2.524159925E1;1.364694983E-1;-1.663730812E1;4.331110954E0
2.525173025E1;6.576871872E0;-1.408030033E1;1.038484955E1
2.526639825E1;9.488221169E0;-1.148738003E1;7.299921036E0
2.528161325E1;4.173093796E0;-1.228704357E1;1.029506698E-1
2.529162425E1;3.423708439E0;-1.221521664E1;-2.276885748E0
2.530321225E1;3.060986757E0;-1.175672722E1;-3.623624325E0
2.532157925E1;5.051765442E-1;-1.038245583E1;-2.178723514E-1
2.533181525E1;-4.967968464E-1;-9.617507935E0;9.840168953E-1
2.535153425E1;-8.415619135E-1;-7.948749542E0;-8.930372596E-1
2.537168725E1;-2.790441990E0;-8.519766808E0;-9.409212470E-1
2.539156925E1;-1.045069098E0;-8.420407295E0;1.577778935E0
2.540161325E1;-5.398924947E-1;-8.378508568E0;1.127668977E0
2.542251825E1;8.152256608E-1;-8.469488144E0;-6.572083831E-1
2.544158925E1;8.822633028E-1;-8.524555206E0;-1.863885999E0
2.545162325E1;8.631097078E-1;-8.124723434E0;-8.714894056E-1
2.547154625E1;1.711854219E0;-7.691372871E0;2.558204412E0
2.548178425E1;2.574964046E0;-7.989450932E0;2.911349297E0
2.550159525E1;2.834734917E0;-8.854954720E0;1.511938334E0
2.552158425E1;1.988384485E0;-8.790311813E0;-5.243301988E-1
2.553164325E1;1.759738207E0;-9.018958092E0;-1.666364431E0
2.554181925E1;1.423352957E0;-9.562441826E0;-2.863465309E0
2.556160825E1;9.421183467E-1;-1.014423275E1;-3.745728493E0
2.558163025E1;-6.775590777E-1;-1.100973606E1;-2.019509077E0
2.559264225E1;1.819593310E-1;-1.135929012E1;-2.190694571E0
2.561154425E1;3.858256102E0;-1.184052467E1;-2.164358377E0
2.563185325E1;5.354631901E0;-1.251568985E1;-6.141127348E-1
2.565168525E1;2.622848034E0;-1.464533138E1;-3.148375273E0
2.567155725E1;1.211466074E0;-1.457949162E1;-2.299630642E0
2.568169225E1;1.750161409E0;-1.443344498E1;-1.920149803E0
2.570164525E1;4.471171856E0;-1.156997967E1;-1.926135302E0
2.572159325E1;3.060986757E0;-8.188169479E0;-7.673416734E-1
2.573159625E1;7.841010690E-1;-9.002198219E0;-7.924807668E-1
2.574163025E1;-5.386953950E-1;-1.060870743E1;-2.035071515E-2
2.575179125E1;-1.810016513E0;-1.269525433E1;2.148796082E0
2.577161225E1;-1.786074519E0;-1.446337223E1;2.778470993E0
2.578191925E1;-1.470039845E0;-1.492066479E1;8.164227605E-1
2.580286125E1;-1.017535686E0;-1.544140339E1;-2.837128937E-1
2.582234425E1;-2.245761156E0;-1.450407410E1;-1.244984865E0
2.583373225E1;-2.369062662E0;-1.327225685E1;-1.490390539E0
2.585169625E1;-1.042674899E0;-9.773131371E0;-4.632780254E-1
2.587153025E1;2.078166962E0;-7.521384716E0;6.476315856E-1
2.588154925E1;2.365471363E0;-7.812280178E0;-1.520318091E-1
2.589155025E1;2.351106167E0;-8.240841866E0;8.738835901E-2
2.590207525E1;2.036268473E0;-8.694543839E0;1.307234168E0
2.592157125E1;2.935291290E0;-8.027758598E0;2.506729126E0
2.594158025E1;1.638831019E0;-6.783970356E0;4.872200489E-1
2.595161025E1;5.650315881E-1;-5.947196960E0;-1.352723986E-1
2.597163425E1;7.517793179E-1;-3.271676540E0;1.541865945E0
2.598167525E1;2.657563984E-1;-2.735375404E0;1.974019289E0
2.600166425E1;-7.960720658E-1;-2.882618904E0;1.620874524E0
2.601170625E1;-9.648633003E-1;-3.198653460E0;1.787271619E0
2.603173525E1;-1.189918280E0;-4.261679173E0;1.814804912E0
2.605165725E1;-5.470750928E-1;-4.098873138E0;1.231816769E0
2.606169125E1;6.344634295E-2;-4.005499363E0;7.613561153E-1
2.607172025E1;2.035071403E-1;-4.401739597E0;3.256114423E-1
2.609180525E1;-6.679822803E-1;-6.338648796E0;-1.194706678E0
2.611150425E1;-2.964021683E0;-1.001733971E1;-4.717774391E0
2.612157325E1;-4.866214752E0;-1.242590714E1;-7.753622055E0
2.613179225E1;-6.939593792E0;-1.545457172E1;-1.233492756E1
2.615165125E1;-4.077325344E0;-2.120305061E1;-1.219486618E1
2.617161625E1;-2.868253708E0;-1.671990776E1;-1.094150162E1
2.619158525E1;-2.503137827E0;-9.270348549E0;-8.804677010E0
2.620165825E1;-3.156754971E0;-6.976703644E0;-7.230489254E0
2.622169825E1;-2.584540844E0;-8.707711220E0;-2.773682594E0
2.624164025E1;-2.082955539E-1;-1.236365795E1;1.640028208E-1
2.626154825E1;-6.428431273E-1;-1.475307083E1;-3.865438700E0
2.627178025E1;-1.273715258E0;-1.762371826E1;-2.604891539E0
2.629154725E1;-8.619125932E-2;-1.092833328E1;1.123479176E1
2.630156425E1;-8.822633028E-1;-3.841496706E0;1.161666679E1
2.632166725E1;1.604115069E-1;-1.209071875E-1;8.389283180E0
2.633184725E1;-6.009446383E-1;-3.049015760E0;1.752555609E0
2.635158825E1;-1.016338587E0;-1.182975101E1;-5.413290024E0
2.637162225E1;7.602787495E0;-1.137485218E1;5.492298603E0
2.638180925E1;6.664260387E0;-1.151491261E1;3.648763418E0
2.640168425E1;4.564545631E0;-1.232894135E1;-1.304839969E0
2.641179325E1;3.605667830E0;-1.170525169E1;-2.165555477E0
2.642191025E1;2.525882721E0;-1.085650730E1;-1.698686123E0
2.644182925E1;3.052607179E-1;-9.447520256E0;5.781996846E-1
2.645210125E1;4.800374508E-1;-8.408436775E0;5.913678408E-1
2.647158825E1;-8.547300100E-1;-7.262810707E0;6.404489279E-1
2.648171125E1;-1.714248419E0;-7.344213486E0;4.082113802E-1
2.650153325E1;-1.274912357E0;-8.718485832E0;-5.770025849E-1
2.651167525E1;-1.412578970E-1;-8.826224327E0;3.280056417E-1
2.652168925E1;9.337386489E-1;-8.798690796E0;6.356605291E-1
2.654151125E1;2.704250813E0;-8.443152428E0;-2.729389966E-1
2.655168125E1;2.657563925E0;-8.010998726E0;5.015852451E-1
2.657164525E1;2.068590164E0;-7.947552681E0;1.104924083E0
2.659151525E1;1.966836691E0;-8.014590263E0;3.675099611E-1
2.660166825E1;1.837549806E0;-8.022970200E0;-3.591302549E-3
2.662158325E1;1.388636947E0;-9.516951561E0;-1.370680451E0
2.663165425E1;1.397016644E0;-9.920374870E0;-2.749740601E0
2.665160925E1;1.213860273E0;-9.775525093E0;-4.648342609E0
2.667194525E1;-1.855506301E-1;-1.114141750E1;-1.857900500E0
2.669176025E1;3.268085420E-1;-1.201290703E1;-2.525882721E0
2.671152025E1;3.866635799E0;-1.160230160E1;-8.212111592E-1
2.672158925E1;5.017049789E0;-1.162504673E1;-8.858546615E-2
2.673160825E1;5.163095951E0;-1.234809494E1;-1.036689281E0
2.674169925E1;3.824737310E0;-1.420240402E1;-3.038241863E0
2.676163125E1;3.032256365E0;-1.440471458E1;-9.947907925E-1
2.678161125E1;3.263296843E0;-1.290474701E1;-2.555810213E0
2.680161625E1;3.706224203E0;-9.676166534E0;-4.680664241E-1
2.681169425E1;1.839944005E0;-8.932766914E0;-2.861070931E-1
2.683266225E1;-2.088941097E0;-1.221641445E1;6.596025825E-1
2.685166625E1;-1.776497602E0;-1.397016716E1;3.982754469E0
2.687155425E1;-1.865083098E0;-1.467047119E1;7.613561153E-1
2.688160525E1;-6.847416759E-1;-1.458667374E1;2.597708702E-1
2.689163225E1;-1.209071875E-1;-1.449689102E1;8.415619135E-1
2.691150525E1;-1.133654475E0;-1.419282722E1;-3.447650373E-1
2.692171025E1;-1.928529501E0;-1.413895798E1;-1.256955862E0
2.694153925E1;-5.482721925E-1;-1.259350109E1;-1.045069098E0
2.695161825E1;1.011550188E0;-1.019331360E1;-8.068459630E-1
2.697157225E1;3.202244759E0;-9.188945770E0;-4.836287498E-1
2.698187525E1;3.439270735E0;-9.161413193E0;1.018732786E0
2.700154225E1;3.463212729E0;-8.334216118E0;2.847903013E0
2.701164425E1;3.292027235E0;-7.546523571E0;1.742978811E0
2.703160825E1;1.586158633E0;-5.773617268E0;1.556231081E-1
2.705151025E1;1.414973259E0;-4.059369087E0;1.394622445E0
2.707177725E1;7.326257229E-1;-2.553416014E0;2.185906172E0
2.708185125E1;2.023100406E-1;-2.384624958E0;2.229001760E0
2.710170725E1;-1.024718285E0;-2.561795712E0;2.479195833E0
2.712155425E1;-1.278503656E0;-3.072957993E0;2.313995838E0
2.713159025E1;-1.410184860E0;-3.143586874E0;2.461239338E0
2.714172225E1;-3.687070608E-1;-3.369838953E0;1.569399238E0
2.716161125E1;-6.883329749E-1;-4.364629745E0;2.442085743E-1
2.717167225E1;-9.828197956E-1;-5.341464043E0;-6.129156351E-1
2.719157725E1;-2.096123695E0;-8.567650795E0;-3.254917145E0
2.720159225E1;-4.246116638E0;-1.153167248E1;-8.092401505E0
2.722171325E1;-6.667851925E0;-1.881962204E1;-1.318127728E1
2.724177725E1;-3.013102770E0;-2.698624420E1;-1.118331623E1
2.726157725E1;-3.547009706E0;-1.793257141E1;-1.271201420E1
2.727220625E1;-2.777273893E0;-1.240795040E1;-1.109592819E1
2.729152825E1;-4.848258495E0;-8.713697433E0;-6.564900875E0
2.730164425E1;-5.300762653E0;-1.066616821E1;-2.958036184E0
2.732166925E1;-3.471592441E-2;-1.258152962E1;1.086967587E0
2.734185925E1;3.986345828E-1;-1.547971153E1;-1.063264942E1
2.735216025E1;3.950432837E-1;-1.394981575E1;5.925649405E-1
2.736231225E1;2.586935043E0;-6.861782074E0;9.178172112E0
2.738155825E1;1.416170359E0;2.955641985E0;2.104144096E1
2.739161225E1;1.096544385E0;1.416170359E0;1.185728359E1
2.741163325E1;-4.262876034E0;-9.780313492E0;-1.077390766E1
2.743167025E1;5.183446407E-1;-1.521036339E1;5.707777023E0
2.744176825E1;6.681019783E0;-1.194108105E1;8.032546997E0
2.746162025E1;6.661866188E0;-1.198417664E1;2.588132143E0
2.748159925E1;3.835511208E0;-1.343386555E1;-4.198232651E0
2.750156425E1;2.507926226E0;-1.114620590E1;-2.507926226E0
2.751170425E1;1.898601890E0;-1.014542961E1;-3.471592367E-1
2.753168925E1;5.339069963E-1;-8.228871346E0;-2.142810524E-1
2.755154325E1;-6.871358752E-1;-8.209717751E0;1.699883193E-1
2.756156425E1;-6.081272364E-1;-8.376114845E0;5.243301988E-1
2.758159325E1;-3.435679376E-1;-7.940370083E0;1.235408068E0
2.759188425E1;1.125274822E-1;-7.796717644E0;7.709329724E-1
2.761186825E1;8.331822157E-1;-7.848193169E0;-7.541735470E-2
2.763203525E1;2.310404629E-1;-7.966706276E0;1.065419793E0
2.765161225E1;1.516726732E0;-8.113949776E0;1.229422569E0
2.766170925E1;2.507926226E0;-8.206126213E0;1.071405292E0
2.768156425E1;2.024297476E0;-8.471882820E0;4.548983276E-2
2.769186325E1;1.752555609E0;-8.392873764E0;-1.012747288E0
2.771162025E1;1.672349930E0;-9.088389397E0;-2.177526474E0
2.772163925E1;1.570596337E0;-9.700108528E0;-2.895787001E0
2.773204325E1;1.029506683E0;-1.028309631E1;-3.074155092E0
2.775184025E1;1.161187813E-1;-1.145984650E1;-1.449689150E0
2.777161825E1;6.189011335E-1;-1.237084007E1;-2.597708941E0
2.778187025E1;1.933317900E0;-1.150533581E1;-2.557007313E0
2.780163425E1;4.316745758E0;-1.085650730E1;6.811503768E-1
2.781301825E1;4.000710964E0;-1.215536213E1;6.560112834E-1
2.783173925E1;1.432929754E0;-1.390552330E1;-3.022679567E0
2.784175725E1;5.267243981E-1;-1.442865658E1;-3.384204149E0
2.786175725E1;2.369062662E0;-1.350808620E1;-2.047042400E-1
2.788170225E1;3.366247654E0;-1.149456215E1;-3.055001259E0
2.789172925E1;3.466804028E0;-1.030943298E1;-1.630451322E0
2.791153525E1;1.777694821E0;-7.966706276E0;-3.387795389E-1
2.792155725E1;-9.337386489E-1;-8.525752068E0;-1.192312479E0
2.793158725E1;-3.673902512E0;-1.162744045E1;2.272097349E0
2.794162925E1;-2.683900118E0;-1.253125191E1;3.949235678E0
2.796188825E1;-2.024297476E0;-1.384566879E1;1.997961283E0
2.798155025E1;-5.386953950E-1;-1.497932339E1;-4.560954273E-1
2.800255625E1;-1.789665818E0;-1.573469353E1;-3.160346150E-1
2.802152425E1;-2.347514868E0;-1.461420727E1;-3.365050554E0
2.803178625E1;-1.234210968E0;-1.262223148E1;-2.889801502E0
2.805242025E1;1.727416515E0;-9.572018623E0;-3.962403834E-1
2.807187925E1;2.284068346E0;-8.971074104E0;-1.206677675E0
2.808189125E1;1.629254222E0;-8.967482567E0;3.866635859E-1
2.810156225E1;2.509123325E0;-7.723694801E0;2.609679937E0
2.812155325E1;1.429338455E0;-7.150283337E0;7.876923680E-1
2.813208025E1;3.016694188E-1;-5.237316132E0;1.233013868E-1
2.815162425E1;4.441244006E-1;-3.055001259E0;1.126471877E0
2.817168525E1;-3.064578176E-1;-2.875436306E0;9.217676520E-1
2.818188725E1;-3.459621370E-1;-3.020285368E0;1.358709455E0
2.820153325E1;-6.045359373E-1;-3.217807055E0;1.751358509E0
2.821160425E1;-7.481880188E-1;-3.621230125E0;1.416170359E0
2.822170025E1;-8.367735147E-1;-3.942053080E0;1.085770488E0
2.824149125E1;-5.722141862E-1;-4.013879299E0;5.578489900E-1
2.825167225E1;-4.046200812E-1;-4.163516521E0;2.286462635E-1
2.827192925E1;-5.470750928E-1;-5.455188751E0;-1.470039845E0
2.829176225E1;-1.599326730E0;-7.547720909E0;-4.645948410E0
2.831170625E1;-5.843049049E0;-1.361582470E1;-1.165138245E1
2.833217925E1;-5.787982464E0;-2.344162941E1;-1.061469364E1
2.835163125E1;-5.276820660E0;-1.807861710E1;-1.106240940E1
2.837160325E1;-5.421669960E0;-1.050575733E1;-8.323442459E0
2.839150825E1;-5.307945251E0;-1.007240677E1;5.458779931E-1
2.840162125E1;-3.268085241E0;-1.121084976E1;1.090558887E0
2.842170525E1;-4.158728123E0;-1.276348972E1;-2.661155224E0
2.844163125E1;-2.691082716E0;-1.642542076E1;-4.844666958E0
2.846170325E1;6.877344608E0;-7.724891663E0;1.240675354E1
2.848160525E1;4.273650169E0;-1.016338587E0;1.363138771E1
2.850168125E1;-1.647210717E0;-5.352237701E0;-2.190694511E-1
2.852155825E1;3.641580820E0;-1.041477776E1;4.083311081E0
2.853202325E1;6.175843239E0;-1.093551636E1;4.192247391E0
2.855170925E1;6.147112846E0;-1.436401272E1;1.448492050E0
2.857149125E1;4.902127743E0;-1.504037476E1;-1.885433793E0
2.858162225E1;3.806780815E0;-1.354040813E1;-2.997540474E0
2.859166725E1;1.006761789E0;-1.174715042E1;-2.269703150E0
2.861192125E1;-1.143231273E0;-8.910021782E0;-3.711012751E-2
2.863236725E1;-1.604115129E0;-7.113173485E0;-8.559271097E-1
2.865163325E1;-2.628833532E0;-7.368155956E0;-1.432929754E0
2.867173125E1;-1.413776159E0;-7.325059891E0;-9.397241473E-1
2.868180625E1;1.891419291E-1;-7.189787865E0;-5.195417404E-1
2.870169725E1;1.501164436E0;-7.369352818E0;7.589619160E-1
2.872161025E1;8.391677141E-1;-7.568071365E0;8.930372596E-1
2.874259425E1;1.558625340E0;-7.753622055E0;1.565807939E0
2.876157225E1;2.129642487E0;-8.449137688E0;1.465251446E0
2.878187125E1;1.464054346E0;-8.499416351E0;1.651999205E-1
2.880198325E1;9.600749016E-1;-9.154230118E0;-3.758896589E-1
2.882159225E1;3.603273630E-1;-1.068771648E1;-1.377863050E0
2.884158525E1;-4.141969085E-1;-1.172799683E1;-3.578134537E0
2.885172425E1;-4.596867263E-1;-1.184531307E1;-4.453215122E0
2.887166725E1;4.860229492E-1;-1.221641445E1;-2.594117641E0
2.889189125E1;3.226186752E0;-1.258033276E1;-1.959654093E0
2.891165925E1;5.204994678E0;-1.237084007E1;-6.584054977E-2
2.893163925E1;2.671929121E0;-1.449569416E1;-1.630451322E0
2.895161625E1;3.144783974E0;-1.435922432E1;-7.637503147E-1
2.896197525E1;4.203021049E0;-1.445379543E1;3.591302410E-2
2.898193725E1;5.014655590E0;-1.233732128E1;-1.392228246E0
2.900158125E1;3.065775394E0;-1.063145256E1;-2.021903276E0
2.902159025E1;1.033097982E0;-8.714894295E0;1.065419763E-1
2.903177225E1;-4.082113802E-1;-8.080430984E0;-1.747767180E-1
2.905170625E1;-3.694253206E0;-9.691728592E0;-2.992752194E-1
2.907154825E1;-2.136825085E0;-1.161427212E1;5.702988625E0
2.908168925E1;-1.126471877E0;-1.202248383E1;5.826289654E0
2.910205025E1;3.016694188E-1;-1.275870132E1;5.458779931E-1
2.912165725E1;-1.367089152E0;-1.499967384E1;-4.141969085E-1
2.913185725E1;-1.802833915E0;-1.443464184E1;-6.488286853E-1
2.915172225E1;-2.346317619E-1;-1.134492493E1;-2.585737705E-1
2.916173325E1;7.194576263E-1;-9.795876503E0;8.822633028E-1
2.917207625E1;1.444900751E0;-9.220070839E0;6.320692301E-1
2.919177225E1;1.783680320E0;-9.038111687E0;-8.271966577E-1
2.921154725E1;2.467224836E0;-8.889671326E0;1.736993313E0
2.922154925E1;3.620033026E0;-8.209717751E0;2.692279816E0
2.923165825E1;4.188655853E0;-7.782352448E0;1.650802016E0
2.924167125E1;3.104082584E0;-7.618350029E0;6.631938815E-1
2.926161725E1;7.601590157E-1;-6.054935932E0;-6.392518282E-1
2.927200525E1;7.805097699E-1;-4.843470097E0;-2.932897210E-1
2.929153625E1;4.393360019E-1;-3.379415751E0;7.433996201E-1
2.930158025E1;-1.915361285E-1;-3.604470730E0;1.167173386E0
2.931167025E1;-1.509544134E0;-3.877409697E0;1.696291924E0
2.932184425E1;-2.115277290E0;-4.279635429E0;2.021903276E0
2.933208625E1;-2.345120668E0;-4.550180435E0;1.891419291E0
2.935166325E1;-1.449689150E0;-4.089296341E0;1.091755986E0
2.937160725E1;-4.022258818E-1;-3.956418276E0;6.165069342E-1
2.938164825E1;-5.937620401E-1;-4.508281708E0;1.759738177E-1
2.940159425E1;-1.191115379E0;-6.205770969E0;-1.128866076E0
2.942176425E1;-1.862688899E0;-8.805873871E0;-4.035427094E0
2.944184125E1;-5.572504520E0;-1.374032402E1;-1.106480312E1
2.946181525E1;-2.618059635E0;-1.964203072E1;-1.219007778E1
2.948169025E1;-8.487445116E-1;-2.129163551E1;-1.138802052E1
2.950217325E1;-2.239775658E0;-1.009036350E1;-1.022084713E1
2.952150425E1;-5.006275654E0;-9.664195061E0;-6.539762020E0
2.953168225E1;-5.064933777E0;-1.428739834E1;-2.257732153E0
2.955161925E1;-1.151610970E0;-1.476863289E1;3.396175146E0
2.957151925E1;-1.284489155E0;-1.440231991E1;-6.876147270E0
2.958157725E1;-1.733402014E0;-1.430415821E1;-3.223792553E0
2.959160925E1;-5.422866940E-1;-9.911994934E0;3.440467834E0
2.960163625E1;1.101332784E0;-2.868253708E0;8.686163902E0
2.962156225E1;1.122880578E0;2.384624958E0;1.764047813E1
2.963159325E1;-1.903390288E-1;-8.068459630E-1;9.165003777E0
2.965160825E1;-4.821922302E0;-1.259230423E1;-1.175193882E1
2.967183025E1;4.610035419E0;-1.370201588E1;5.147533417E0
2.969159225E1;8.002618790E0;-1.059434223E1;4.545392036E0
2.970160925E1;4.431667328E0;-1.275510979E1;6.643909812E-1
2.972153925E1;4.059369087E0;-1.145266342E1;-2.560598612E0
2.973158625E1;3.505111217E0;-1.044470501E1;-2.495955229E0
2.974158825E1;1.419761658E0;-1.022443867E1;-2.203862667E0
2.975291025E1;4.776432514E-1;-9.783905029E0;-1.177947283E0
2.977195325E1;1.448491961E-1;-8.282740593E0;9.900023937E-1
2.979164725E1;-1.254561663E0;-8.504204750E0;2.513911761E-2
2.980165225E1;-1.526303530E0;-8.639476776E0;-2.035071515E-2
2.982161125E1;-5.327098966E-1;-7.704541206E0;1.735796183E-1
2.983165125E1;-2.873041928E-1;-7.528567314E0;3.016694188E-1
2.985151225E1;9.900023937E-1;-8.092401505E0;4.070142806E-1
2.986158725E1;1.517923832E0;-8.680178642E0;6.308721304E-1
2.987160525E1;2.037465572E0;-9.050082207E0;8.702923059E-1
2.989159125E1;1.845929503E0;-8.719682693E0;9.373299479E-1
2.990167525E1;1.938106298E0;-8.446743965E0;1.161187813E-1
2.992159825E1;1.991975784E0;-8.474276543E0;-4.118026793E-1
2.993174925E1;2.038662672E0;-8.453926086E0;-2.849099934E-1
2.994178025E1;2.049436569E0;-8.307879448E0;-6.200982332E-1
2.996153225E1;1.174355984E0;-8.889671326E0;-1.921346903E0
2.997155925E1;2.023100406E-1;-9.397241592E0;-1.872265697E0
2.998170925E1;-4.644751251E-1;-9.690531731E0;-1.740584612E0
3.000154325E1;-1.975216419E-1;-1.038006115E1;-1.746570110E0
3.001202325E1;3.387795389E-1;-1.148738003E1;-1.668758631E0
3.003209625E1;2.154781580E0;-1.223197651E1;-1.960851192E0
3.005152925E1;3.916913986E0;-1.137126064E1;-1.520318031E0
3.007158625E1;3.392583847E0;-1.187643719E1;3.675099611E-1
3.008170525E1;1.956062794E0;-1.255040550E1;-1.061828494E0
3.009189625E1;-3.734954596E-1;-1.452801609E1;-3.991134167E0
3.011152125E1;3.871424198E0;-1.351766300E1;-3.280056417E-1
3.012166425E1;4.768052578E0;-1.203325748E1;-1.199495077E0
3.014176525E1;4.717774391E0;-1.005684471E1;-2.074575663E0
3.016165625E1;1.958456993E0;-8.797493935E0;4.668693244E-1
3.018167625E1;-1.015141487E0;-1.240795040E1;7.733271718E-1
3.020162625E1;-5.195417404E-1;-1.385883617E1;3.685873508E0
3.022151725E1;-5.626373887E-1;-1.454357815E1;1.843535304E0
3.023164025E1;-7.589619160E-1;-1.490270805E1;7.038952708E-1
3.025200025E1;1.568202078E-1;-1.426225948E1;1.151610970E0
3.027155425E1;-1.092953086E0;-1.438436413E1;-3.100491166E-1
3.028161025E1;-1.030703783E0;-1.396777248E1;-6.823474765E-1
3.029207825E1;5.698199868E-1;-1.192432117E1;-8.870517015E-1
3.030257825E1;3.722983599E-1;-1.069609642E1;-7.553706169E-1
3.032250025E1;2.619256735E0;-9.160215378E0;1.328781992E-1
3.033269625E1;3.456030130E0;-8.750806808E0;1.879448295E-1
3.034269725E1;3.367444754E0;-8.762778282E0;1.430535555E0
3.036166525E1;2.859874010E0;-7.759607792E0;3.154360771E0
3.038157825E1;1.914164305E0;-6.358999729E0;7.410054207E-1
3.039166625E1;1.751358509E0;-5.468356609E0;4.513070285E-1
3.041155225E1;1.760935307E0;-3.916913986E0;1.641225219E0
3.042164025E1;1.414973259E0;-2.449268341E0;1.916558504E0
3.044164025E1;-9.576806799E-3;-2.190694571E0;1.776497602E0
3.046152925E1;-1.634042621E0;-3.578134537E0;2.395398855E0
3.047155125E1;-1.731007814E0;-3.785232782E0;2.269703150E0
3.048159025E1;-1.746570110E0;-3.518279314E0;2.595314741E0
3.049205425E1;-1.085770488E0;-3.120841980E0;1.969230890E0
3.051152325E1;-1.095347285E0;-4.210203648E0;1.711854190E-1
3.052152325E1;-7.266402245E-1;-5.495890141E0;-4.812345505E-1
3.053273725E1;-3.699041605E-1;-7.048529625E0;-1.584961534E0
3.055178625E1;-3.245340347E0;-1.149935055E1;-5.975927353E0
3.057157825E1;-5.175066948E0;-1.732683754E1;-1.513973427E1
3.058163225E1;-3.549403906E0;-2.104623032E1;-1.316332054E1
3.060207625E1;-5.817909837E-1;-2.407250023E1;-1.221162605E1
3.062153425E1;-1.922544003E0;-1.406593513E1;-1.127070427E1
3.063168225E1;-2.041056871E0;-9.119514465E0;-8.645462036E0
3.065168525E1;-1.497573137E0;-3.478775024E0;-6.993463039E0
3.067161125E1;2.394201700E-3;-7.854178905E0;-2.837128937E-1
3.069175125E1;3.866635799E0;-1.098699188E1;-4.254496574E0
3.071161725E1;2.416946650E0;-1.887349129E1;6.524199486E0
3.072163325E1;9.457096457E-2;-1.998679543E1;1.108156300E1
3.073262525E1;-3.393780947E0;-1.588792229E1;5.693411827E0
3.074649225E1;-4.916493416E0;-8.057685852E0;5.525817394E0
3.076181725E1;-4.487931252E0;-1.525106430E0;8.923190117E0
3.078161225E1;-3.517082214E0;-2.557007313E0;-6.279991150E0
3.079234225E1;-6.607996821E-1;-5.114014626E0;-5.422866821E0
3.081162825E1;4.305971622E0;-1.280419064E1;4.485537052E0
3.082163925E1;6.707355976E0;-1.420958710E1;5.002684593E0
3.083204325E1;7.766790390E0;-1.425507736E1;3.854664803E0
3.085160725E1;6.404489517E0;-1.334887123E1;1.094150186E0
3.086161825E1;5.171475887E0;-1.247977638E1;-8.104372621E-1
3.088162125E1;8.846575022E-1;-9.157821655E0;-1.205480576E0
3.089164525E1;-8.068459630E-1;-8.602366447E0;-1.256955862E-1
3.090164525E1;-1.666364431E0;-7.808688641E0;8.499415964E-2
3.092162925E1;-2.941276789E0;-6.986280441E0;8.020575345E-2
3.093163425E1;-2.955641985E0;-7.641094685E0;-8.259996027E-2
3.095179525E1;-6.320692301E-1;-9.249998093E0;7.374141216E-1
3.097155225E1;2.467224836E0;-8.538920403E0;2.142810524E-1
3.098193025E1;3.031059265E0;-8.161833763E0;9.696517140E-2
3.100264525E1;2.545036316E0;-8.166622162E0;1.046266198E0
3.102233925E1;1.924938202E0;-7.811082840E0;1.734599113E0
3.104326925E1;1.612494826E0;-7.471106529E0;-2.035071403E-1
3.106183925E1;7.541735172E-1;-8.874108315E0;-9.947907925E-1
3.107218825E1;9.540894032E-1;-9.594763756E0;-2.325966835E0
3.108331025E1;9.493009448E-1;-9.447520256E0;-2.919728994E0
3.110162625E1;3.711012602E-1;-1.064940929E1;-2.663549423E0
3.112298425E1;-1.244984865E-1;-1.231218243E1;-2.881421804E0
3.114535725E1;3.414131641E0;-1.118930149E1;-1.565807939E0
3.116159025E1;6.288370609E0;-1.116535950E1;5.674257874E-1
3.117161425E1;5.592854977E0;-1.230499935E1;-1.106121182E0
3.118167025E1;4.261679173E0;-1.398333549E1;-3.057395458E0
3.120154225E1;2.312798738E0;-1.455914021E1;-1.748964310E0
3.121159125E1;2.849099934E-1;-1.520796967E1;-2.171540976E0
3.122216525E1;3.567360640E-1;-1.442626190E1;-3.685873508E0
3.123246725E1;1.844732404E0;-1.278264332E1;-1.600523829E0
3.125154125E1;1.672349930E0;-8.661025047E0;-1.137245774E0
3.126154125E1;-7.733271718E-1;-9.126696587E0;-8.391677141E-1
3.127157225E1;-2.883816004E0;-1.171842003E1;1.318008065E0
3.128173225E1;-2.798821688E0;-1.267849541E1;2.768894196E0
3.130161225E1;-2.438494444E0;-1.417846203E1;1.703474522E0
3.132159525E1;-1.017535686E0;-1.487397766E1;6.428431273E-1
3.133165325E1;-9.660604000E-1;-1.473152351E1;1.071405292E0
3.135155525E1;-2.184709072E0;-1.439513779E1;-1.322796464E0
3.137428525E1;-1.659181833E0;-1.257195282E1;-1.816002011E0
3.138888625E1;2.072181463E0;-9.436745644E0;-8.164227605E-1
3.140179925E1;2.072181463E0;-9.436745644E0;-8.164227605E-1
3.142152225E1;2.542642117E0;-8.805873871E0;1.436520964E-1
3.143156125E1;2.487575531E0;-8.694543839E0;2.072181463E0
3.145155725E1;2.476801634E0;-7.967903137E0;2.039859772E0
3.146226025E1;9.576807022E-1;-7.526173115E0;-1.233013868E-1
3.147624025E1;1.496376097E-1;-5.773617268E0;-5.398924947E-1
3.148848025E1;7.541735470E-2;-3.796006680E0;1.066616893E0
3.150173025E1;-4.979939461E-1;-3.107673883E0;1.334767461E0
3.152157125E1;-1.194706678E0;-3.222595453E0;1.386242747E0
3.153159625E1;-1.559822440E0;-3.484760523E0;1.438915253E0
3.154166625E1;-1.801636815E0;-3.567360640E0;1.405396342E0
3.155297625E1;-1.677138329E0;-3.580528736E0;1.329979062E0
3.157151425E1;-6.141127348E-1;-3.191470861E0;9.971849918E-1
3.158224925E1;1.604115069E-1;-3.062183857E0;7.769184709E-1
3.160169925E1;9.935936928E-1;-3.587711334E0;-3.076549172E-1
3.162201525E1;1.197100850E-3;-5.564124584E0;-2.176329374E0
3.164157125E1;-1.444900751E0;-9.088389397E0;-6.623558998E0
3.166168725E1;-7.791929245E0;-1.902791786E1;-1.344823074E1
3.167217425E1;-6.186617374E0;-2.298553276E1;-1.287841129E1
3.169158725E1;-2.979583979E0;-2.148197556E1;-1.019690514E1
3.170159025E1;-2.856282711E0;-1.555871964E1;-9.198522568E0
3.171159225E1;-3.821146011E0;-1.123120022E1;-8.999804497E0
3.172159525E1;-4.642356873E0;-8.248024940E0;-7.887697697E0
3.173160125E1;-4.197035789E0;-6.378153324E0;-5.944802761E0
3.174869225E1;-3.465606928E0;-1.204044056E1;-6.153098345E-1
3.176158425E1;-2.055422068E0;-1.306515884E1;-5.351040959E-1
3.177170525E1;-1.719036818E0;-1.385644245E1;-4.268861771E0
3.178262925E1;-1.266532660E0;-1.448970890E1;-6.301538944E0
3.180196025E1;1.990778685E0;-1.286045456E1;1.119648457E1
3.182156925E1;3.034650564E0;-3.495534420E0;1.205121422E1
3.183162125E1;1.654393315E0;-2.701856613E0;7.803900242E0
3.184302125E1;-7.457938194E-1;-7.345410824E0;-7.366958618E0
3.186156325E1;3.217807055E0;-1.006522369E1;5.590460777E0
3.187264225E1;5.275623322E0;-1.018972206E1;4.848258495E0
3.189153525E1;4.036623955E0;-1.187164879E1;3.495534360E-1
3.190156525E1;2.973598480E0;-1.250970364E1;-1.425747156E0
3.191218925E1;2.488772631E0;-1.261624622E1;-2.363077164E0
3.193165425E1;2.163161278E0;-1.160828686E1;-7.912836671E-1
3.195166525E1;1.472434103E-1;-1.006881523E1;1.371877551E0
3.196169925E1;-3.603273630E-1;-8.757989883E0;-4.094084799E-1
3.198161325E1;-1.971625090E0;-7.745242596E0;-4.031835556E0
3.200164125E1;-1.517923832E0;-7.975085735E0;-1.442506552E0
3.202154825E1;2.454056740E-1;-7.879317760E0;7.637503147E-1
3.203157125E1;1.133654475E0;-7.856573105E0;1.583764434E0
3.204165725E1;1.483207941E0;-8.116343498E0;1.343147159E0
3.205169825E1;2.087743998E0;-8.409633636E0;5.279214978E-1
3.207168325E1;1.655590534E0;-8.370129585E0;1.357512355E0
3.209153725E1;1.574187636E0;-8.055291176E0;5.626373887E-1
3.210161725E1;1.431732655E0;-8.021772385E0;-4.632780254E-1
3.211165925E1;1.270123959E0;-8.335412979E0;-1.092953086E0
3.213163225E1;1.801636815E0;-9.471462250E0;-7.266402245E-1
3.215152925E1;1.587355733E0;-1.041717148E1;-2.861070931E-1
3.216156425E1;7.242460251E-1;-1.029746151E1;-7.086837292E-1
3.217158825E1;-4.644751251E-1;-1.019690514E1;-2.069787264E0
3.218163225E1;-1.567005038E0;-1.062427044E1;-3.114856482E0
3.220161225E1;-5.183446407E-1;-1.194586945E1;-2.657563925E0
3.222160425E1;3.160346270E0;-1.133295345E1;-6.679822803E-1
3.223306225E1;4.944026470E0;-1.216613579E1;3.591302549E-3
3.225151025E1;3.569754839E0;-1.391749477E1;-2.167949677E0
3.226170625E1;2.913743496E0;-1.405635834E1;-2.213439465E0
3.228160225E1;2.285265446E0;-1.444781017E1;-1.602918029E0
3.230161125E1;2.495955229E0;-1.137964058E1;-1.383848548E0
3.232165025E1;1.162384868E0;-9.653421402E0;-7.290344238E-1
3.233173525E1;-9.804255962E-1;-8.918401718E0;-1.872265697E0
3.235179625E1;-3.853467703E0;-1.006642151E1;6.177040339E-1
