"Time (s)";"Linear Acceleration x (m/s^2)";"Linear Acceleration y (m/s^2)";"Linear Acceleration z (m/s^2)"
6.996009500E-2;-2.721402049E-2;1.912956238E-1;5.792722702E-1
9.008258600E-2;-8.087873459E-3;4.516625404E-2;1.255674362E-1
1.100859590E-1;2.785331011E-2;-1.633977890E-1;-4.242401123E-1
1.298740520E-1;1.413959265E-2;-7.957053185E-2;-2.124757767E-1
1.407194010E-1;1.211088896E-2;-7.020640373E-2;-1.913099289E-1
1.600714120E-1;-8.540749550E-4;6.727933884E-3;1.943778992E-2
1.799684150E-1;2.971261740E-2;4.941821098E-2;5.107994080E-1
1.998794160E-1;-1.338300109E-2;1.140615940E-1;3.503875732E-1
2.098865830E-1;-4.314392805E-3;2.739691734E-2;8.018398285E-2
2.199201660E-1;2.185070515E-2;-1.341218948E-1;-3.690948486E-1
2.299314580E-1;1.301617622E-1;-2.755672932E-1;-7.469730377E-1
2.499609270E-1;6.599366665E-3;-1.082978249E-1;-2.688131332E-1
2.699017940E-1;-3.458559513E-4;3.280639648E-3;9.970664978E-3
2.800357720E-1;1.376599073E-2;-5.412817001E-2;-1.681776047E-1
2.901997610E-1;-4.772424698E-2;1.409265995E-1;4.359455109E-1
3.100502520E-1;5.744946003E-2;1.219470501E-1;-1.074571609E-1
3.203900010E-1;7.171213627E-3;-3.247880936E-2;-9.668350220E-2
3.403318120E-1;8.309376240E-2;-3.230113983E-1;-8.620052338E-1
3.601440150E-1;1.034479737E-1;-4.208703041E-1;-1.049041748E0
3.800115660E-1;2.922034264E-2;-9.424209595E-2;-2.600536346E-1
3.902156580E-1;-4.622280598E-2;9.760236740E-2;2.911834717E-1
4.099402270E-1;-1.517554522E-1;3.062834740E-1;1.049491882E0
4.299346190E-1;-1.761988997E-1;5.664274693E-1;2.340440750E0
4.498682170E-1;-2.923376858E-2;7.261538506E-1;3.417886734E0
4.599584830E-1;1.722676158E-1;4.513044357E-1;1.971940994E0
4.799089330E-1;-5.659255981E-1;-9.084714651E-1;-3.487792492E0
4.998660450E-1;2.597422600E-1;-9.154067039E-1;-1.601959229E0
5.199553230E-1;3.343051076E-1;-1.020917892E0;-3.253687382E0
5.300020360E-1;3.641098738E-1;-5.302534103E-1;-2.010354042E0
5.499028210E-1;-4.683092833E-1;7.256429195E-1;2.953581810E0
5.699355170E-1;-3.919022083E-1;8.906228542E-1;3.614747047E0
5.898561910E-1;-1.836270094E-1;5.548694134E-1;2.001030922E0
6.000004700E-1;-9.426438808E-2;3.221349716E-1;1.135809898E0
6.199136800E-1;-6.857663393E-3;5.709314346E-2;1.880207062E-1
6.300037150E-1;-9.671103954E-2;3.841516972E-1;1.329118729E0
6.400767320E-1;7.854521275E-2;-3.084714413E-1;-6.736345291E-1
6.501207410E-1;1.075889468E-1;-3.344979286E-1;-9.861879349E-1
6.700214970E-1;-1.529088020E-1;2.003052235E-1;6.672229767E-1
6.899594360E-1;-4.431533813E-1;6.077394485E-1;1.414707184E0
7.099249210E-1;-3.797473907E-1;-2.720922232E-1;-1.393813133E0
7.298520420E-1;-5.600526333E-1;-1.398867846E0;-3.029831886E0
7.499528230E-1;1.594004631E-1;-5.058877468E-1;-1.294907093E0
7.601917860E-1;-4.056301117E-1;1.066191196E0;1.909102440E0
7.800842590E-1;-6.360573769E-1;1.897147894E-1;6.566629410E-1
7.902535040E-1;-1.502056122E-1;1.499089003E-1;8.564672470E-1
8.099631880E-1;-7.983118296E-3;-5.792093277E-2;-2.825908661E-1
8.299166090E-1;6.775784492E-2;-1.588554382E-1;-4.777336121E-1
8.498782140E-1;5.877900124E-2;-1.689500809E-1;-4.343662262E-1
8.599469820E-1;5.543917418E-2;-3.417236805E-1;-9.037952423E-1
8.799710580E-1;8.531354368E-3;-1.919178963E-1;-8.737773895E-1
8.900199040E-1;-1.601552963E-1;1.082346439E-1;7.185525894E-1
9.099890380E-1;-6.007671356E-2;-3.589344025E-2;-4.519157410E-1
9.200313940E-1;-4.890489578E-2;-3.345417976E-2;-2.047195435E-1
9.304590720E-1;1.408614874E0;3.600846529E-1;5.273947716E0
9.500485800E-1;8.184227943E-1;2.822757959E-1;1.442938805E0
9.698919570E-1;7.676500082E-2;6.356539726E-1;1.741808891E0
9.804033530E-1;-5.577702075E-3;4.196434021E-1;9.938793182E-1
1.000100900E0;-2.547189593E-3;2.389166355E-1;7.395267487E-1
1.020033787E0;1.939930916E-1;3.248744011E-1;8.731813431E-1
1.040013259E0;-1.479989290E-2;-4.557275772E-2;-1.584663391E-1
1.050195004E0;-4.473602772E-2;-2.248816490E-1;-7.606372833E-1
1.070032063E0;-7.564998865E-1;-7.894577980E-1;-3.465822220E0
1.080326406E0;5.938899517E-2;-7.403192520E-1;-4.874418736E0
1.100067664E0;-6.140342951E-1;-8.823679686E-1;-1.382925987E0
1.119929728E0;1.581805348E0;1.164196014E0;-1.133934975E0
1.129930739E0;3.885272980E0;8.038463593E-1;-9.055433273E-1
1.139995244E0;3.377790451E0;8.893914223E-1;-2.668788910E0
1.151062997E0;1.935275555E0;1.303714991E0;-2.252777576E0
1.170310561E0;-1.465743661E0;-6.173653603E-1;7.143716812E-1
1.190006202E0;-8.729174137E-1;-9.439670444E-1;-3.789471626E0
1.200286976E0;-7.260551453E-1;-4.057884216E-3;-3.648450375E0
1.219978056E0;1.200900078E-1;2.303501368E-1;-4.377639771E0
1.230063403E0;7.959730625E-1;5.190085173E-1;-4.097851753E0
1.240063576E0;9.209506512E-1;6.060574055E-1;-4.043564320E0
1.259993706E0;-1.636380911E0;-7.323220372E-1;-5.303315639E0
1.280010739E0;-2.301791191E0;-1.196107388E0;-6.200860023E0
1.300191997E0;1.118040085E-2;-1.126246691E0;-4.816179276E0
1.320100811E0;3.545508862E0;2.410297155E0;-1.005639553E0
1.340010265E0;-7.160553932E-1;1.148782015E0;-4.760457039E0
1.359933128E0;-3.325502396E0;-5.715150833E-1;-7.789528847E0
1.369935939E0;-2.998618364E0;-1.046647549E0;-6.985434055E0
1.379977844E0;-2.353397369E0;-1.376446962E0;-4.991812706E0
1.390120797E0;-1.045109272E0;-8.775411248E-1;-1.990723610E0
1.409924761E0;-1.591175556E0;-9.020392895E-1;1.300478458E0
1.419986755E0;-3.171795368E0;-1.630114794E0;5.750303268E-1
1.439923001E0;-4.579347610E0;-2.067138195E0;-2.528081417E0
1.459878062E0;-2.585981846E0;-2.129819155E0;-1.574205875E0
1.470139406E0;-1.171491146E0;-1.763315320E0;-7.375359535E-1
1.480251078E0;3.797044754E-1;-1.326673269E0;-7.972192764E-2
1.490299914E0;1.390261650E0;-2.569939613E0;1.240691662E0
1.510299041E0;2.479313850E0;-4.717273712E0;2.030345440E0
1.529963072E0;6.449120522E0;-6.256828308E0;2.487397194E0
1.540001911E0;9.720495224E0;-6.339141369E0;3.233531713E0
1.559870290E0;1.885811996E1;-3.255025387E0;6.530982018E0
1.579869885E0;2.417673874E1;5.575950146E-1;1.264092064E1
1.599887283E0;1.891648865E1;-5.116982460E-1;1.378056335E1
1.619887383E0;1.198552704E1;-2.004341364E0;9.962059975E0
1.640110908E0;6.497293472E0;-2.074094057E0;5.804031372E0
1.660066789E0;3.702804565E0;-1.338909149E0;3.686137676E0
1.674037769E0;1.614459038E0;-3.535330296E-1;1.836121082E0
1.690555750E0;1.549018860E0;-5.570666790E-1;1.813189745E0
1.709898750E0;-2.255017281E0;-7.130453587E-1;-1.382633328E0
1.729906750E0;-3.419321060E0;-6.316213608E-1;-1.987899899E0
1.739933750E0;-4.128319263E0;-8.063468933E-1;-2.524329185E0
1.760280750E0;-5.408854008E0;-1.507583618E0;-3.120038986E0
1.770467750E0;-5.502931595E0;-1.803571343E0;-2.945533276E0
1.790119750E0;-6.224529266E0;-2.304784298E0;-2.718848228E0
1.810098750E0;-7.293916225E0;-3.170151472E0;-3.007130146E0
1.830090750E0;-8.968509674E0;-5.014165878E0;-3.491916418E0
1.849912750E0;-9.920068741E0;-7.158489704E0;-2.725196123E0
1.869864750E0;-1.056520653E1;-8.607127190E0;-1.046682239E0
1.879963750E0;-1.071160221E1;-9.069497108E0;-2.170785666E-1
1.890177750E0;-1.095463562E1;-9.506987572E0;4.291635752E-1
1.909979750E0;-1.160133743E1;-1.144040203E1;-4.770178795E-1
1.920417750E0;-1.129617310E1;-1.173463917E1;-9.359357357E-1
1.939908750E0;-1.018991089E1;-1.261108780E1;-1.505403519E0
1.950156750E0;-9.409503937E0;-1.294435120E1;-1.411437988E0
1.969886750E0;-7.566404819E0;-1.414513588E1;-7.690012455E-1
1.989975750E0;-3.687694550E0;-1.470261192E1;2.062134743E-1
2.009886750E0;1.356062412E0;-1.310435295E1;1.088524222E0
2.030144750E0;7.483745098E0;-1.004748535E1;3.531502008E0
2.040217750E0;1.032894993E1;-8.245632172E0;4.415174961E0
2.059969750E0;1.378780556E1;-7.368741989E0;4.406359196E0
2.070155750E0;1.371137714E1;-8.393534660E0;2.912901640E0
2.080279750E0;1.338294983E1;-9.856921196E0;1.320292950E0
2.100000750E0;1.715382957E1;-9.399408340E0;-8.117957115E-1
2.119858750E0;2.387887764E1;-3.250945091E0;-7.521557808E-1
2.130007750E0;2.668135262E1;6.382312775E-1;-1.961534023E-1
2.149976750E0;2.803922844E1;5.996758938E0;1.237574339E0
2.160269750E0;2.619677353E1;6.439834118E0;9.002585411E-1
2.179988750E0;2.062986565E1;4.331936359E0;-2.254805565E-1
2.190195750E0;1.802773285E1;3.359856606E0;-3.975274563E-1
2.209911750E0;1.441704082E1;2.398852348E0;5.790507793E-1
2.219948750E0;1.325490379E1;2.641628265E0;1.417069316E0
2.239805750E0;1.129374886E1;4.418886185E0;2.951236963E0
2.249913750E0;9.884519577E0;5.379937649E0;3.124352455E0
2.259978750E0;8.171012878E0;6.297586441E0;2.739773989E0
2.279871750E0;4.380945206E0;8.181068420E0;3.015203476E0
2.290237750E0;2.144970655E0;1.076698303E1;4.642789364E0
2.309868750E0;-1.567625999E-2;1.257732010E1;5.639769554E0
2.330126750E0;-1.523059130E0;1.346128654E1;5.812430859E0
2.349883750E0;-2.201014280E0;1.311825657E1;4.792825699E0
2.359889750E0;-2.682223320E0;1.247630882E1;4.211945534E0
2.369954750E0;-2.949165344E0;1.180181313E1;3.917195797E0
2.384790750E0;-2.758450031E0;1.119539452E1;3.702285051E0
2.399909750E0;-1.258030891E0;1.022639179E1;4.472125053E0
2.409923750E0;-4.591941833E-2;9.598497391E0;5.574397564E0
2.419997750E0;1.763037205E0;9.209794044E0;6.708727360E0
2.430709750E0;4.618707657E0;8.931943893E0;7.086297035E0
2.441918750E0;8.695487976E0;7.949857712E0;6.593591213E0
2.459893750E0;1.445791721E1;2.851643562E-1;4.331499100E0
2.479873750E0;1.361586761E1;-1.314965820E1;3.621456146E0
2.489928750E0;1.742174530E1;-1.618134689E1;3.892694950E0
2.509910750E0;2.379333878E1;-1.818484688E1;2.699848175E0
2.529901750E0;2.250801086E1;-1.969101143E1;-2.190541983E0
2.550155750E0;1.404413319E1;-1.998491859E1;-1.711416483E0
2.569860750E0;4.898883820E0;-2.038784027E1;4.300309420E-1
2.579861750E0;8.766841888E-1;-2.038683891E1;2.049870491E-1
2.590100750E0;-2.029676437E-1;-1.783889580E1;5.845867395E-1
2.609883750E0;-2.584447861E-1;-1.338455772E1;2.997267485E0
2.629988750E0;-9.705471039E0;-1.476627350E1;1.030196905E0
2.640605750E0;-1.451762486E1;-1.501917076E1;2.662158012E-1
2.660045750E0;-1.652548027E1;-1.205555534E1;4.433581352E0
2.679854750E0;-1.948600006E1;-7.535593510E0;2.094573498E0
2.690198750E0;-1.945626068E1;-5.980370998E0;-4.711141586E-1
2.709861750E0;-1.877097321E1;-4.201938629E0;-2.775131226E0
2.719875750E0;-1.860987091E1;-3.749075890E0;-2.660250187E0
2.741270750E0;-1.707773399E1;-3.616363525E0;-1.348644495E0
2.762173750E0;-1.417921066E1;-4.118427277E0;1.164044619E0
2.780108750E0;-1.074725437E1;-4.144467831E0;2.389363766E0
2.790470750E0;-8.890894890E0;-4.105922699E0;1.771134138E0
2.810014750E0;-2.631695271E0;-4.767509937E0;-5.632510185E-1
2.820275750E0;5.507478714E-1;-6.737326145E0;-1.787792206E0
2.840111750E0;8.155134201E0;-7.438982010E0;-2.453947544E0
2.860834750E0;2.125718307E1;-3.863124132E0;2.261573553E0
2.880600750E0;3.134486961E1;2.499727249E0;1.484204197E1
2.890915750E0;3.038177872E1;3.851382256E0;1.795996475E1
2.909930750E0;1.871240425E1;4.020336151E0;1.079894066E1
2.929901750E0;9.294172287E0;5.444402695E0;3.977770329E0
2.940245750E0;5.664166451E0;6.381518841E0;3.117712736E0
2.959917750E0;1.524765968E0;8.045557976E0;4.452608109E0
2.969974750E0;5.818176270E-1;8.413578033E0;6.503856659E0
2.990164750E0;-9.746584892E-1;8.765631676E0;1.061493874E1
3.009866750E0;-2.359424591E0;9.681011200E0;1.238561440E1
3.029890750E0;-4.843155861E0;9.994131088E0;1.114755058E1
3.039910750E0;-6.307159424E0;9.811156273E0;9.894068718E0
3.049964750E0;-7.444710255E0;9.510323524E0;8.680681229E0
3.070310750E0;-9.929031372E0;6.846678257E0;7.613006592E0
3.089857750E0;-1.149450874E1;4.278079033E0;6.981396198E0
3.109887750E0;-1.012135124E1;2.836908102E0;6.487779140E0
3.129925750E0;-7.014971256E0;1.847260356E0;5.389910221E0
3.139936750E0;-4.019950390E0;2.190766335E0;5.076708317E0
3.150129750E0;-5.752115250E-1;2.956361532E0;4.758457184E0
3.170053750E0;4.079977036E0;2.803233862E0;5.588429451E0
3.190141750E0;5.625298500E0;5.316557884E-1;7.128107548E0
3.209847750E0;1.164418411E1;-3.056221008E-1;7.465591908E0
3.229969750E0;2.148794174E1;-2.239077806E0;5.539178371E0
3.249823750E0;2.846228600E1;-2.702988148E0;-2.380236149E0
3.269902750E0;1.782867813E1;-7.528962135E0;2.060912848E0
3.290243750E0;5.898324013E0;-1.033243561E1;2.705945969E0
3.309913750E0;3.043786049E0;-9.579406738E0;2.238430500E0
3.330147750E0;7.306904793E-1;-9.644329071E0;1.345655322E0
3.349916750E0;-2.633864880E0;-1.024109936E1;-6.495612860E-1
3.360014750E0;-4.266580582E0;-1.047521687E1;-6.370779872E-1
3.370122750E0;-6.021996021E0;-1.081909180E1;-1.362469196E-1
3.389920750E0;-8.379070282E0;-1.154933548E1;4.620873630E-1
3.410329750E0;-9.626849174E0;-1.139025211E1;-9.383753538E-1
3.429896750E0;-1.078064919E1;-1.119804192E1;-3.063185930E0
3.449900750E0;-1.089693165E1;-9.798057556E0;-5.042547226E0
3.469931750E0;-1.243874931E1;-1.009916496E1;-5.331821442E0
3.490018750E0;-1.302496147E1;-1.063944435E1;-4.178454399E0
3.509865750E0;-1.024567318E1;-9.899559975E0;-3.218855619E0
3.529924750E0;-2.577728271E0;-6.086604118E0;-2.601343870E0
3.540522750E0;1.350916862E0;-3.985883951E0;-2.600027561E0
3.559848750E0;6.045076370E0;-1.743601322E0;-1.670406103E0
3.569943750E0;9.417045593E0;-1.029223800E-1;1.767400265E0
3.589918750E0;2.396930313E1;7.787291527E0;6.716793060E0
3.609822750E0;3.008665085E1;1.332636452E1;8.412534714E0
3.619881750E0;3.070331955E1;1.469567394E1;9.443920135E0
3.629942750E0;2.872917366E1;1.488528633E1;1.006773567E1
3.640127750E0;2.370943260E1;1.382612801E1;9.674926758E0
3.659843750E0;7.877626419E0;8.918982506E0;5.540055275E0
3.670019750E0;3.839488983E0;7.459568977E0;4.098925114E0
3.680228750E0;2.237443924E-1;6.299050808E0;2.927801371E0
3.699979750E0;-4.385559082E0;4.572271347E0;3.453096867E0
3.719822750E0;-6.546706200E0;3.283665180E0;5.920035362E0
3.730040750E0;-7.306559086E0;2.744686604E0;7.349766731E0
3.740609750E0;-8.194775581E0;2.171620131E0;8.408885002E0
3.760276750E0;-1.071766376E1;3.531217575E-3;8.514802933E0
3.779902750E0;-1.339317703E1;-1.617556930E0;7.859052658E0
3.789951750E0;-1.419365883E1;-1.511708617E0;8.490723610E0
3.800091750E0;-1.431994820E1;-1.137123585E0;1.003512001E1
3.810176750E0;-1.410892963E1;-9.998288155E-1;1.124193192E1
3.829973750E0;-1.332995129E1;-6.935305595E-1;1.098332596E1
3.849961750E0;-1.195188808E1;-1.120554209E0;6.616852760E0
3.860051750E0;-1.104604530E1;-1.475267649E0;5.383395195E0
3.880240750E0;-7.248538971E0;-7.514431477E-1;4.449155807E0
3.900238750E0;-3.539841175E0;1.415737629E0;6.431967735E0
3.911344750E0;-7.543492317E-1;3.497531414E0;8.635869026E0
3.930097750E0;8.075773239E0;8.279212952E0;1.071797657E1
3.950074750E0;2.236338043E1;9.893774033E0;1.316179180E1
3.969819750E0;3.100757599E1;1.118840504E1;1.293368816E1
3.980096750E0;3.105240059E1;9.869792938E0;1.180511761E1
4.000268750E0;2.949990845E1;3.170630455E0;5.451665878E0
4.019856750E0;1.605805206E1;-2.389312744E0;-3.241966963E-1
4.029988750E0;1.100962639E1;-4.466172218E0;-1.685848832E0
4.040093750E0;7.861270905E0;-5.970664978E0;-2.017706156E0
4.060033750E0;2.687421322E0;-9.978467941E0;6.291445494E-1
4.079886750E0;-3.430478096E0;-1.381547165E1;6.296526194E-1
4.090107750E0;-6.505147457E0;-1.531760597E1;9.125919342E-1
4.109894750E0;-1.211939049E1;-1.740302467E1;4.495162964E-1
4.130218750E0;-1.805175018E1;-1.857027817E1;-2.019028425E0
4.149924750E0;-2.097840691E1;-1.946057892E1;-4.515578270E0
4.160257750E0;-2.015410233E1;-1.844168854E1;-5.709961891E0
4.180110750E0;-1.624327469E1;-1.523545361E1;-5.685168743E0
4.191669750E0;-1.435723305E1;-1.385813046E1;-5.007880688E0
4.210209750E0;-9.991889000E0;-1.241616249E1;-3.392967224E0
4.230210750E0;-6.670570850E0;-1.196493912E1;3.433656693E-2
4.240979750E0;-2.150021076E0;-1.022177887E1;2.032821178E0
4.259996750E0;9.648775101E0;-5.424440384E0;4.516544342E-1
4.270160750E0;1.418525505E1;-4.792208195E0;-1.365756989E-1
4.290067750E0;2.021364975E1;-5.225078106E0;4.491951466E0
4.309872750E0;3.149564552E1;3.531045675E0;1.195531845E1
4.319973750E0;3.145044899E1;7.460121155E0;1.999566269E1
4.330553750E0;3.145522690E1;9.689973831E0;2.691144943E1
4.350131750E0;3.093982506E1;1.215881729E1;2.661407852E1
4.369836750E0;1.793275452E1;1.043195820E1;1.484748936E1
4.379857750E0;1.161784744E1;9.135291100E0;1.010531616E1
4.389963750E0;6.539734364E0;8.091735840E0;7.102894306E0
4.409941750E0;4.005556107E-1;7.088139057E0;5.082502365E0
4.430020750E0;-1.702787399E0;6.735864639E0;5.425920486E0
4.441073750E0;-3.533559799E0;5.847826004E0;6.808259964E0
4.459891750E0;-6.387324810E0;4.423675537E0;7.539390087E0
4.479865750E0;-8.775304794E0;3.273111343E0;7.244752884E0
4.492198750E0;-9.613951683E0;2.830951214E0;7.047338009E0
4.509843750E0;-1.072015190E1;2.449866772E0;6.866645813E0
4.530210750E0;-1.112588501E1;2.163192749E0;6.527278900E0
4.549874750E0;-1.115230370E1;1.722056866E0;6.605299950E0
4.569900750E0;-1.074634552E1;1.400903702E0;7.459397316E0
4.589865750E0;-1.004669094E1;3.155190945E-1;7.815877914E0
4.599890750E0;-9.069290161E0;-7.411956787E-2;7.360339165E0
4.619857750E0;-4.843009949E0;-2.188761234E-1;5.612821579E0
4.629870750E0;-1.364638805E0;1.318174601E0;6.098553658E0
4.650104750E0;-9.278230667E-1;2.317967176E0;8.012578964E0
4.669877750E0;1.674272728E1;3.580029964E0;1.469005871E1
4.680041750E0;2.949163437E1;7.845945358E0;1.910759163E1
4.690210750E0;3.044586563E1;1.266548061E1;2.357740211E1
4.709905750E0;3.045351028E1;8.266638756E0;1.377713394E1
4.729970750E0;2.216351128E1;-1.992499828E0;2.459007740E0
4.750024750E0;9.814929008E0;-6.374053955E0;-8.241035938E-1
4.769825750E0;2.773773670E0;-1.018015671E1;-9.658725262E-1
4.779891750E0;-1.722140312E-1;-1.202196884E1;-5.251340866E-1
4.789898750E0;-2.800861835E0;-1.339912033E1;5.005836487E-3
4.810045750E0;-6.421374798E0;-1.465277481E1;1.952884197E-1
4.829963750E0;-1.325530243E1;-1.717051125E1;-6.463449001E-1
4.849837750E0;-1.531328773E1;-1.718110275E1;-1.213594913E0
4.860016750E0;-1.412067223E1;-1.562911606E1;-2.540237427E0
4.870067750E0;-1.349882221E1;-1.411682606E1;-3.470513582E0
4.880284750E0;-1.322098064E1;-1.305307293E1;-3.842144966E0
4.899919750E0;-1.370876694E1;-1.177342224E1;-2.835390568E0
4.919813750E0;-1.381176376E1;-1.101118851E1;-5.911631584E-1
4.930203750E0;-1.267023087E1;-1.024348927E1;2.797784805E-1
4.940230750E0;-1.169658947E1;-9.873948097E0;5.155324936E-1
4.960008750E0;-8.117540359E0;-7.886326790E0;-6.552929878E-1
4.970183750E0;-4.838022232E0;-6.147670269E0;-1.491688251E0
4.990028750E0;5.463314056E-1;-4.257913589E0;-8.366541862E-1
5.009959750E0;4.452226639E0;-5.264449120E0;4.086766243E-1
5.020072750E0;1.926368713E1;-3.856343508E0;5.440217018E0
5.030140750E0;3.060000229E1;8.547941208E0;7.816429615E0
5.049866750E0;3.201279068E1;1.995809937E1;1.369053459E1
5.059870750E0;3.215670395E1;2.092515945E1;1.726434898E1
5.069904750E0;3.220410919E1;1.870480537E1;1.762177467E1
5.080010750E0;2.963678169E1;1.579085827E1;1.583860302E1
5.099821750E0;1.249698830E1;1.028705025E1;8.720905304E0
5.110021750E0;6.981527805E0;8.655013084E0;5.023170471E0
5.129930750E0;4.686765671E-1;7.002689838E0;2.953190804E0
5.139931750E0;-1.731764317E0;6.481383801E0;3.543916225E0
5.150321750E0;-3.197694778E0;6.063434601E0;4.475755692E0
5.170081750E0;-4.841444492E0;5.241239548E0;6.461331367E0
5.190110750E0;-6.339106083E0;4.158570766E0;8.770798683E0
5.200163750E0;-7.247946739E0;3.377740383E0;9.976987839E0
5.219895750E0;-8.498430252E0;2.065313816E0;1.204413033E1
5.229960750E0;-8.117025375E0;2.711356401E0;1.183724403E1
5.240751750E0;-7.998145580E0;3.064587831E0;1.120086861E1
5.259983750E0;-8.262273788E0;3.345582962E0;1.019816875E1
5.270011750E0;-8.058526993E0;3.617799997E0;9.965718269E0
5.290194750E0;-8.150848389E0;3.267906427E0;9.945295334E0
5.300458750E0;-8.789878845E0;2.728838205E0;9.527733803E0
5.319883750E0;-9.883086205E0;1.578404427E0;8.552462578E0
5.330304750E0;-1.036086082E1;6.733257771E-1;7.488569260E0
5.349945750E0;-1.017846870E1;-1.409758210E0;5.904825687E0
5.360045750E0;-8.620457649E0;-1.410147905E0;6.546895981E0
5.379866750E0;-3.486984730E0;1.187252522E0;6.639637470E0
5.400557750E0;-7.163252831E-1;5.426265717E0;6.240273476E0
5.419896750E0;1.511271667E1;9.859642029E0;1.354063988E1
5.431099750E0;2.371470261E1;9.471203804E0;2.054106522E1
5.441328750E0;2.941469955E1;8.962160110E0;2.439396286E1
5.459858750E0;3.089233398E1;6.508512974E0;1.286739540E1
5.469931750E0;3.071126556E1;4.700170994E0;5.099226475E0
5.490014750E0;1.994624329E1;7.322969437E-1;-8.537323475E-1
5.509876750E0;1.074589539E1;-5.299635887E0;4.453335762E0
5.529864750E0;4.236454964E0;-9.043988228E0;7.289666176E0
5.549914750E0;-1.107430458E0;-1.047860527E1;3.818289518E0
5.570116750E0;-6.216144085E0;-1.189397621E1;-1.210111380E0
5.589882750E0;-1.067273331E1;-1.295252132E1;-3.150633335E0
5.610213750E0;-1.331213284E1;-1.328277016E1;-1.920474291E0
5.629838750E0;-1.441998577E1;-1.282793236E1;-1.247946501E0
5.640099750E0;-1.494862080E1;-1.222280312E1;-1.678145885E0
5.650247750E0;-1.522736931E1;-1.172464561E1;-2.314467192E0
5.660581750E0;-1.492382812E1;-1.123764610E1;-3.187884331E0
5.679878750E0;-1.291086674E1;-1.076343155E1;-4.157296658E0
5.689939750E0;-1.111264420E1;-1.053148460E1;-2.965840816E0
5.699968750E0;-8.714359283E0;-1.042784786E1;-1.296210766E0
5.710128750E0;-4.270810127E0;-8.886012077E0;-1.645803452E-1
5.729944750E0;9.247654915E0;-1.857199192E0;-8.939309120E-1
5.740041750E0;1.268543720E1;-1.287555695E-2;-1.062063217E0
5.760864750E0;8.388493538E0;-3.412810326E0;2.148683310E0
5.779850750E0;1.969903183E1;4.946207523E0;4.024483204E0
5.792250750E0;3.012668800E1;1.076558399E1;5.564369202E0
5.810111750E0;3.148748970E1;1.636578369E1;2.214625931E1
5.830377750E0;2.243383217E1;1.214066029E1;1.996811295E1
5.850164750E0;6.015311718E0;6.897924423E0;1.088640022E1
5.869919750E0;-8.330841064E-1;5.507611752E0;3.963489532E0
5.890064750E0;-5.268356800E0;4.371525764E0;1.894630909E0
5.910001750E0;-8.204051971E0;2.897306442E0;3.758573055E0
5.929981750E0;-1.002185631E1;1.315364838E0;6.843107224E0
5.940252750E0;-1.081104660E1;5.627934933E-1;8.479641914E0
5.959915750E0;-1.136573124E1;5.903530121E-2;1.050252914E1
5.970183750E0;-1.081902313E1;6.214563847E-1;1.095535088E1
5.990017750E0;-8.812048912E0;2.097037554E0;1.155840111E1
6.000220750E0;-7.187389374E0;3.717914104E0;1.169989014E1
6.019994750E0;-7.501056194E0;3.258464575E0;1.051492119E1
6.030163750E0;-8.068320274E0;2.519182205E0;1.004628181E1
6.041787750E0;-9.016422272E0;1.303265333E0;9.519199371E0
6.060441750E0;-1.010236549E1;-1.328743458E0;9.242089272E0
6.080126750E0;-7.614980221E0;-2.035135746E0;8.801541328E0
6.100036750E0;-1.444505215E0;-1.099929810E-1;8.990701675E0
6.119878750E0;4.302409172E0;5.170868874E0;8.876792908E0
6.129981750E0;4.576440811E0;5.595074177E0;8.781614304E0
6.141222750E0;5.993923664E0;5.440172672E0;9.563694000E0
6.160001750E0;2.048015022E1;8.035146713E0;1.363346100E1
6.170064750E0;2.886914253E1;9.048755646E0;1.608268547E1
6.190189750E0;3.221649170E1;5.769181728E0;1.024016953E1
6.200191750E0;2.840689087E1;2.225041389E-1;5.392642021E0
6.219949750E0;1.682735443E1;-3.880123138E0;1.866148949E0
6.239999750E0;7.972072124E0;-7.671514988E0;1.955065966E0
6.250092750E0;4.682638645E0;-9.126016617E0;1.812368393E0
6.260404750E0;1.578919888E0;-1.046601582E1;1.533135891E0
6.279974750E0;-2.481457710E0;-1.189136505E1;-2.244272232E-1
6.290464750E0;-3.109918118E0;-1.158222485E1;-4.218397141E-1
6.310154750E0;-4.344535828E0;-1.056612206E1;-3.605675697E-1
6.330089750E0;-7.514656067E0;-1.090670013E1;-9.984540939E-2
6.350595750E0;-1.020533562E1;-1.152586079E1;6.811237335E-1
6.370104750E0;-1.215314102E1;-1.187217522E1;2.018563509E0
6.389962750E0;-1.328945541E1;-1.215459061E1;1.224973202E0
6.404439750E0;-1.287008667E1;-1.231805229E1;8.132967949E-1
6.420711750E0;-8.141583443E0;-1.055617619E1;1.690330982E0
6.439933750E0;-1.111442089E0;-7.483232498E0;2.328892469E0
6.450066750E0;1.717280865E0;-5.752898216E0;2.573014498E0
6.469938750E0;2.893052578E0;-5.477055550E0;3.885154009E0
6.480792750E0;4.357831001E0;-5.090488911E0;4.287679195E0
6.499861750E0;1.340515327E1;8.980592489E-1;5.812499523E0
6.509949750E0;1.921836090E1;4.412985802E0;5.785257339E0
6.529852750E0;2.786627388E1;1.058694649E1;8.376549721E0
6.540041750E0;3.052328682E1;1.273841667E1;1.165593243E1
6.559977750E0;2.859856796E1;1.375950146E1;1.385183811E1
6.570127750E0;2.415956116E1;1.331823254E1;1.220907402E1
6.591869750E0;9.003602982E0;8.546025276E0;7.113743305E0
6.610082750E0;1.741546154E0;6.278556824E0;5.481799126E0
6.629871750E0;-2.474153996E0;4.988685131E0;5.663923740E0
6.640169750E0;-3.208693743E0;4.596472740E0;6.630239010E0
6.660229750E0;-4.600745201E0;3.495986223E0;8.783521652E0
6.679847750E0;-7.570880890E0;1.932166576E0;9.662861824E0
6.689909750E0;-8.638621330E0;1.139733076E0;9.662601471E0
6.699959750E0;-9.342391968E0;5.395987034E-1;9.239588737E0
6.720090750E0;-1.014611530E1;-9.293079376E-2;8.483224869E0
6.740427750E0;-1.015584755E1;-2.909183502E-3;8.188986778E0
6.760279750E0;-1.004536247E1;1.785311699E-1;9.048843384E0
6.779912750E0;-8.825271606E0;9.907989502E-1;9.362272263E0
6.790057750E0;-4.988972664E0;2.309042931E0;8.872749329E0
6.809936750E0;-2.212665558E0;2.232309341E0;6.830409050E0
6.820006750E0;-3.502313137E0;-5.885791779E-2;6.542922974E0
6.840115750E0;-5.345492363E0;-3.148046732E0;6.112943649E0
6.850575750E0;-4.988305092E0;-2.263580799E0;6.076660156E0
6.870752750E0;-2.740449667E0;1.167447090E0;6.886402607E0
6.890656750E0;8.694477081E0;4.539947987E0;9.053886414E0
6.909936750E0;2.489563560E1;8.314975739E0;9.000448227E0
6.920013750E0;3.010799408E1;9.608477592E0;8.414972305E0
6.939888750E0;3.056862259E1;6.954380989E0;4.034379482E0
6.950060750E0;2.680936050E1;4.023485661E0;2.676849365E0
6.960251750E0;2.247927475E1;1.380954742E0;2.124091625E0
6.979901750E0;1.008485126E1;-5.191076279E0;2.788878918E0
6.991042750E0;7.197991848E0;-6.543238640E0;3.155768156E0
7.010094750E0;2.196021080E0;-8.921297073E0;3.629374504E0
7.030304750E0;-2.389591217E0;-1.065551281E1;2.958675623E0
7.040971750E0;-4.483271122E0;-1.127942467E1;2.060946226E0
7.060053750E0;-7.431768417E0;-1.202759743E1;9.873929024E-1
7.080004750E0;-9.368122101E0;-1.290343475E1;1.342374325E0
7.090373750E0;-9.921657562E0;-1.316239738E1;1.557157040E0
7.109975750E0;-1.091752720E1;-1.274039459E1;1.252383471E0
7.130027750E0;-1.333592415E1;-1.323965931E1;7.625811100E-1
7.149868750E0;-1.447388554E1;-1.413098526E1;9.028491974E-1
7.159872750E0;-1.376142883E1;-1.438273621E1;1.230011463E0
7.179903750E0;-6.739336491E0;-1.255213451E1;2.041113853E0
7.190178750E0;-2.765089035E0;-1.044861317E1;1.612859249E0
7.210177750E0;4.747528076E0;-8.217803955E0;-2.879738808E-1
7.230140750E0;8.014611244E0;-6.882817268E0;1.051488876E0
7.240696750E0;1.344292450E1;-3.782267570E0;3.931369781E0
7.260011750E0;3.209596252E1;7.305429459E0;8.606195450E0
7.280122750E0;3.207110596E1;1.439984798E1;1.463036156E1
7.299947750E0;3.206394577E1;1.508396721E1;1.571555138E1
7.320197750E0;2.106148338E1;1.117312527E1;6.836071968E0
7.339911750E0;6.119909286E0;5.698105812E0;9.278364182E-1
7.349952750E0;1.458213806E0;4.418722153E0;1.477145195E0
7.369885750E0;-3.050282478E0;4.000482082E0;8.187580109E0
7.392455750E0;-4.684222221E0;3.671018839E0;1.153472328E1
7.409899750E0;-5.327243805E0;3.707097292E0;1.213118839E1
7.429903750E0;-7.513710499E0;2.625181675E0;1.097025490E1
7.439975750E0;-9.301423073E0;1.518140078E0;1.020677185E1
7.459991750E0;-1.173099136E1;3.332877159E-2;9.581666946E0
7.470254750E0;-1.279929733E1;-7.911870480E-1;9.741977692E0
7.490050750E0;-1.311981201E1;-1.477405071E0;9.916942596E0
7.509904750E0;-1.104221344E1;-1.952369452E0;9.192951202E0
7.529909750E0;-7.620592594E0;-1.350836992E0;8.377503395E0
7.540100750E0;-6.657866955E0;-1.829792023E0;7.899464607E0
7.559928750E0;-2.669552326E0;-1.312141895E0;7.003066063E0
7.579847750E0;1.090619469E1;6.958581448E0;1.184321117E1
7.590957750E0;1.517540932E1;8.769413948E0;1.277187729E1
7.609900750E0;2.346194077E1;8.360066414E0;1.295128727E1
7.630083750E0;2.728254700E1;4.582714558E0;7.481215477E0
7.650048750E0;2.812902451E1;2.816682816E0;-2.984465599E0
7.669870750E0;2.397457314E1;2.163064480E0;-6.622027874E0
7.679924750E0;1.944791031E1;1.422886848E-1;-4.553914070E0
7.697850750E0;1.452693748E1;-2.786177397E0;-2.331370831E0
7.709998750E0;6.173744202E0;-7.797844887E0;1.565901518E0
7.730060750E0;2.055766106E0;-1.033405685E1;3.857331991E0
7.749956750E0;-5.727877617E-1;-1.131236839E1;4.183156013E0
7.770001750E0;-6.083178997E0;-1.270760727E1;3.008874893E0
7.791353750E0;-8.940637589E0;-1.361988068E1;3.048752785E0
7.810011750E0;-1.013626385E1;-1.401055527E1;4.076714039E0
7.830077750E0;-1.131833649E1;-1.397983360E1;5.165240288E0
7.840087750E0;-1.172386360E1;-1.374128151E1;4.901949406E0
7.850121750E0;-1.211670876E1;-1.342619801E1;4.257323265E0
7.860996750E0;-1.259866619E1;-1.317267609E1;3.695639849E0
7.879848750E0;-1.163125420E1;-1.197819710E1;2.821033955E0
7.890020750E0;-1.044299984E1;-1.134081268E1;2.386884212E0
7.900178750E0;-8.865707397E0;-1.076787186E1;2.171153545E0
7.919864750E0;-4.361783981E0;-9.398080826E0;2.572126389E0
7.930237750E0;-7.621998787E-1;-7.963095665E0;2.818577290E0
7.950388750E0;1.083778763E1;-4.015822887E0;-2.017264366E-1
7.970073750E0;3.038850021E1;8.305969238E0;-1.261659145E0
7.990689750E0;3.345579910E1;1.582732487E1;-1.101027012E0
8.009909750E0;3.396800613E1;1.390378666E1;6.959245682E0
8.030040750E0;2.689879608E1;1.307497597E1;6.267655373E0
8.050117750E0;1.603060532E1;9.190546989E0;2.627920151E0
8.069970750E0;6.551082134E0;5.594352245E0;3.176792622E0
8.080378750E0;2.928897381E0;4.373279572E0;3.316401005E0
8.099885750E0;-1.538501024E0;2.783563137E0;6.016031265E0
8.109904750E0;-2.822508335E0;2.233680487E0;8.150935173E0
8.119982750E0;-3.768296719E0;1.871201396E0;1.029533386E1
8.139932750E0;-5.065590858E0;1.346044302E0;1.328449440E1
8.150316750E0;-5.269504070E0;9.445304871E-1;1.497379494E1
8.169883750E0;-4.427032471E0;1.861546040E0;1.423142242E1
8.190077750E0;-4.093883991E0;2.819578409E0;1.320296383E1
8.200094750E0;-4.546790123E0;3.091914654E0;1.251712227E1
8.219887750E0;-6.896964073E0;1.911400795E0;1.125110435E1
8.230041750E0;-8.097620964E0;9.428510666E-1;1.076966667E1
8.241884750E0;-9.300438881E0;-1.276407242E-1;1.029845047E1
8.259919750E0;-1.027509880E1;-2.101680040E0;9.549983978E0
8.270122750E0;-9.347956657E0;-2.390479326E0;8.691356659E0
8.290765750E0;-4.373867989E0;-6.072978973E-1;6.732616425E0
8.310003750E0;-7.370266914E-1;1.395421982E0;5.361845970E0
8.330022750E0;3.110615730E0;3.196940899E0;7.020490170E0
8.340248750E0;6.808233261E0;4.841278076E0;8.482217789E0
8.359897750E0;2.866099167E1;1.056671524E1;4.259029388E0
8.370011750E0;3.225393295E1;1.063301086E1;-3.625311852E-1
8.380176750E0;3.236639404E1;8.495965004E0;-5.320854187E0
8.392641750E0;2.952323341E1;5.519158840E0;-7.916401863E0
8.409915750E0;2.110063171E1;4.560856819E-1;-5.867149830E0
8.430014750E0;1.437998009E1;-3.094712973E0;-1.089448452E0
8.450056750E0;1.027008629E1;-5.034076214E0;2.915307045E0
8.469931750E0;6.245066643E0;-6.937394619E0;3.869552851E0
8.491587750E0;2.024247646E0;-8.766871452E0;4.828626156E0
8.510169750E0;-3.224494219E0;-1.118274021E1;5.985889435E0
8.529919750E0;-6.519175529E0;-1.198857689E1;7.120297432E0
8.539919750E0;-7.042493820E0;-1.170022774E1;7.276679039E0
8.549952750E0;-7.321584702E0;-1.155384064E1;6.370731831E0
8.569846750E0;-8.580743790E0;-1.203606892E1;5.575775623E0
8.579989750E0;-9.789690018E0;-1.177586365E1;5.482925892E0
8.590077750E0;-1.107657433E1;-1.253961372E1;4.913105965E0
8.600198750E0;-1.199953842E1;-1.361820221E1;4.142172813E0
8.620356750E0;-1.166832352E1;-1.476856232E1;4.218996048E0
8.639828750E0;-7.226079464E0;-1.246278381E1;4.771676540E0
8.650140750E0;-4.185667038E0;-1.064886951E1;3.981628895E0
8.670052750E0;1.031701088E0;-8.333507538E0;-8.635234833E-2
8.690002750E0;5.610630035E0;-7.949728966E0;-1.952996254E0
8.710151750E0;2.253159714E1;1.436890960E0;-3.413990021E0
8.729944750E0;3.423707962E1;1.074120522E1;-6.350897789E0
8.740199750E0;3.433969498E1;1.416770554E1;-3.941265106E0
8.759893750E0;2.612323380E1;1.129511929E1;6.368532181E-1
8.770112750E0;1.851042366E1;9.069099426E0;2.315892220E0
8.790684750E0;1.051758766E1;6.443084717E0;4.103970528E0
8.810044750E0;5.655357361E0;4.920747280E0;5.876351357E0
8.830321750E0;2.714840412E0;3.913456440E0;1.043220425E1
8.840523750E0;1.567610264E0;3.652510643E0;1.202062321E1
8.859861750E0;-3.597979546E-1;3.489730597E0;1.404422188E1
8.869978750E0;-8.531222343E-1;3.652041435E0;1.458122349E1
8.890609750E0;-1.276582718E0;5.139544487E0;1.485429382E1
8.909992750E0;-2.884429216E0;5.887475014E0;1.443554592E1
8.930109750E0;-6.465188503E0;5.344763756E0;1.315799713E1
8.950385750E0;-8.380517960E0;4.023919106E0;1.232140160E1
8.969840750E0;-8.107740402E0;3.168066025E0;1.153361893E1
8.979856750E0;-7.269131660E0;2.619169712E0;1.099931908E1
8.990206750E0;-6.257872105E0;1.621267319E0;1.054241753E1
9.009856750E0;-3.570163727E0;1.487789154E-1;9.743265152E0
9.019881750E0;-9.380278587E-1;7.792992592E-1;9.765285492E0
9.040075750E0;8.329690933E0;5.186995506E0;1.084952259E1
9.060055750E0;1.669717789E1;8.729024887E0;8.376445770E0
9.079989750E0;2.155420113E1;5.911811352E0;8.123306274E0
9.090000750E0;2.234720612E1;3.300100803E0;7.164400101E0
9.109902750E0;2.172137451E1;-4.679489136E-1;3.408732414E0
9.130062750E0;1.480373573E1;-5.468870640E0;-3.497251034E0
9.150003750E0;9.153345108E0;-8.716916084E0;-1.131078243E0
9.160487750E0;7.145195961E0;-1.014095592E1;2.880077362E-1
9.179833750E0;3.950789928E0;-1.225809097E1;1.970253706E0
9.189903750E0;2.227972031E0;-1.287548828E1;2.545003891E0
9.200021750E0;3.882532120E-1;-1.296257496E1;2.885783434E0
9.220234750E0;-3.728002310E0;-1.254286766E1;3.002641201E0
9.240026750E0;-7.651141167E0;-1.155466461E1;3.526490688E0
9.259881750E0;-9.849310875E0;-1.080795574E1;4.180013657E0
9.279815750E0;-1.116510391E1;-1.061159801E1;4.381802559E0
9.290175750E0;-1.206459522E1;-1.071458626E1;4.275446415E0
9.309881750E0;-1.177729225E1;-1.048532581E1;3.361517191E0
9.330380750E0;-7.472613335E0;-9.999238014E0;6.886172295E-1
9.349844750E0;-2.850834846E0;-8.202083588E0;9.966230392E-2
9.359852750E0;4.336323738E-1;-6.983932972E0;1.025046349E0
9.370309750E0;4.538506508E0;-5.310369015E0;2.015544415E0
9.391212750E0;1.280633545E1;-6.263356805E-1;2.931422234E0
9.401852750E0;1.491874886E1;-2.479833961E-1;2.500553608E0
9.419971750E0;1.856781387E1;1.129555702E-2;9.041738510E-2
9.430530750E0;2.118887901E1;1.049782038E0;-1.310401440E0
9.449898750E0;2.699570274E1;4.867952824E0;1.037263870E-1
9.460207750E0;2.825777245E1;6.711588383E0;2.659682274E0
9.479907750E0;2.350667572E1;8.060661316E0;7.268692493E0
9.490024750E0;1.914549255E1;7.408094406E0;9.140190125E0
9.510084750E0;1.204307175E1;6.336840153E0;1.045291233E1
9.529893750E0;5.850133419E0;6.454397202E0;8.235091209E0
9.540002750E0;3.896022320E0;6.346617222E0;8.298994064E0
9.559900750E0;7.678446770E-1;6.286850452E0;8.696826935E0
9.579823750E0;-1.352720261E0;6.514152527E0;8.581979752E0
9.590650750E0;-2.841043234E0;6.004177094E0;8.858991623E0
9.609935750E0;-5.525416374E0;5.173909664E0;1.041039085E1
9.630069750E0;-6.493402481E0;5.256628513E0;1.145326042E1
9.650066750E0;-4.442976475E0;7.140857697E0;1.038476372E1
9.660287750E0;-2.545179367E0;8.430488586E0;9.236211777E0
9.679867750E0;-2.458574295E0;6.518462658E0;8.204601288E0
9.689916750E0;-4.651480675E0;3.309880733E0;8.292596817E0
9.710762750E0;-1.048781013E1;-5.044368744E0;8.473014832E0
9.729900750E0;-8.433696747E0;-5.554975510E0;6.263662338E0
9.750273750E0;-3.375191212E0;-2.580525398E0;5.212626457E0
9.760821750E0;-2.773672104E0;-1.538686752E0;5.480321884E0
9.779812750E0;-3.258504868E-1;7.421178818E-1;1.012553501E1
9.790066750E0;4.890758514E0;1.935375214E0;1.278452206E1
9.809979750E0;1.652229691E1;3.327243328E0;1.525150394E1
9.830002750E0;3.211713791E1;8.618482590E0;3.668257236E0
9.840097750E0;3.289599609E1;8.831507683E0;-1.316063881E0
9.859870750E0;2.495476913E1;3.184967518E0;9.016553164E-1
9.870003750E0;1.827755737E1;-4.427642822E-1;3.583535433E0
9.890178750E0;9.157312393E0;-5.516205788E0;5.882659912E0
9.909882750E0;5.902483463E0;-7.649528980E0;5.182331562E0
9.920027750E0;2.088417053E0;-9.863155365E0;3.175601721E0
9.940002750E0;-8.648619652E-1;-1.156941605E1;1.757000446E0
9.959928750E0;-4.863654137E0;-1.359051895E1;-1.965639591E-1
9.970140750E0;-6.923634052E0;-1.425236416E1;-8.833773136E-1
9.989861750E0;-1.031521988E1;-1.504649067E1;-1.419681787E0
9.999947750E0;-1.161385345E1;-1.535176086E1;-1.545914888E0
1.001012375E1;-1.283306026E1;-1.550947952E1;-2.315375090E0
1.002983275E1;-1.448218155E1;-1.541545105E1;-3.086071968E0
1.003999175E1;-1.470079231E1;-1.535112572E1;-3.192829609E0
1.005011575E1;-1.416037941E1;-1.516097450E1;-3.339142323E0
1.006988975E1;-1.070960522E1;-1.393182755E1;-2.842908382E0
1.008030475E1;-8.299801826E0;-1.313391304E1;-2.063210964E0
1.009984275E1;-1.876107693E0;-1.028868103E1;-3.411564827E-1
1.010993575E1;5.948616028E0;-7.105961800E0;7.343244553E-1
1.012984375E1;1.027001572E1;-5.019363880E0;2.037711143E0
1.014037475E1;1.710013390E1;-1.103524208E0;4.204916954E0
1.016071575E1;3.207469559E1;9.706000328E0;8.150170326E0
1.017997575E1;3.210704041E1;1.304970741E1;2.045687103E1
1.019013875E1;3.204838943E1;1.171966839E1;2.244701958E1
1.020027375E1;2.700995827E1;1.066275978E1;2.129694557E1
1.022021575E1;1.471731186E1;8.188895226E0;1.304027843E1
1.023066675E1;9.794529915E0;7.051205635E0;9.137052536E0
1.024118375E1;5.156337738E0;5.864594460E0;6.486913681E0
1.026069375E1;-1.570668697E0;4.465142250E0;4.491844177E0
1.027998575E1;-4.213504791E0;4.774737358E0;4.446058273E0
1.029118275E1;-5.117059231E0;4.649203300E0;6.290050983E0
1.031016575E1;-5.899866104E0;3.936376095E0;8.573266983E0
1.033030375E1;-7.929626942E0;2.582553625E0;1.051730537E1
1.035010475E1;-9.189550400E0;1.751667738E0;1.142887592E1
1.037242975E1;-9.069278717E0;1.700841188E0;1.065688419E1
1.038670175E1;-1.089874458E1;3.807363510E-1;8.163598061E0
1.040013575E1;-1.197280884E1;-1.152194977E0;6.598809719E0
1.041994075E1;-1.281437111E1;-2.501327515E0;6.140319824E0
1.043999375E1;-1.195873356E1;-3.804619789E0;6.197940826E0
1.045219175E1;-1.049856472E1;-3.587239981E0;4.916399956E0
1.046992375E1;-4.688850403E0;-4.704465866E-1;4.245325565E0
1.047992475E1;-2.022425652E0;1.800928116E0;4.388988495E0
1.049986275E1;8.759000778E0;4.717723370E0;1.337638664E1
1.050993175E1;1.914009476E1;6.726357937E0;1.640424347E1
1.052990775E1;3.190600395E1;1.070055580E1;1.395682812E1
1.054004575E1;3.192444801E1;1.026354980E1;8.525554657E0
1.056014375E1;2.889281845E1;4.200843811E0;2.421473742E0
1.057986375E1;1.485997391E1;-1.809129000E0;4.270543575E0
1.058988775E1;1.075969124E1;-3.919431925E0;5.723278999E0
1.060993175E1;6.196839809E0;-5.698018551E0;7.110102654E0
1.063023775E1;2.646111488E0;-6.650748730E0;4.907288551E0
1.064984175E1;-5.076036453E-1;-7.445743561E0;3.314073086E0
1.065986675E1;-2.477184772E0;-7.952721596E0;2.903789997E0
1.067006875E1;-4.458820343E0;-8.576004982E0;2.596183300E0
1.069008275E1;-7.775744438E0;-1.003806114E1;2.327067137E0
1.070985775E1;-1.066125870E1;-1.103337097E1;2.349178314E0
1.072984675E1;-1.237321854E1;-1.097608185E1;9.291005135E-1
1.074009275E1;-1.320745659E1;-1.100406742E1;5.966567993E-2
1.075987975E1;-1.396759987E1;-1.090054893E1;-1.262317181E0
1.077986475E1;-1.229423714E1;-9.966490746E0;-1.627463341E0
1.078994575E1;-1.069734764E1;-9.497027397E0;-9.119887352E-1
1.080989975E1;-5.789939404E0;-8.051286697E0;1.283862114E0
1.083009775E1;3.160219193E-1;-5.782674313E0;2.821218014E0
1.084018775E1;3.794631958E0;-4.479467869E0;2.433969498E0
1.085990475E1;7.950232506E0;-3.647295952E0;2.650329113E0
1.087986975E1;2.008818054E1;3.469484806E0;5.748001575E0
1.089001675E1;3.237674713E1;1.134663963E1;9.255627632E0
1.091089275E1;3.243458557E1;1.259521770E1;1.413622570E1
1.092985975E1;2.300543976E1;1.035760021E1;1.370328903E1
1.094999075E1;1.331036663E1;8.421065331E0;8.833234787E0
1.096991275E1;3.343128681E0;5.675175667E0;4.839988232E0
1.098010375E1;-6.736664772E-1;4.857526779E0;4.476814270E0
1.099991875E1;-4.215660095E0;4.326916695E0;5.382212162E0
1.101999075E1;-4.307829857E0;4.106195450E0;7.915114880E0
1.103994975E1;-5.383503437E0;3.226565599E0;1.075932026E1
1.105000575E1;-6.061224461E0;2.918802977E0;1.157047462E1
1.106999375E1;-6.820814610E0;2.926881075E0;1.222110939E1
1.108004975E1;-6.838409424E0;3.081714869E0;1.183757782E1
1.109986675E1;-7.718639374E0;2.883713484E0;9.211374283E0
1.110990975E1;-8.745204926E0;2.105180979E0;8.330433846E0
1.111999275E1;-9.698392868E0;1.251075745E0;7.722216606E0
1.114011075E1;-1.018712616E1;-2.151727676E-2;7.529035091E0
1.115022375E1;-9.561742783E0;-7.161164284E-1;7.814305305E0
1.116029175E1;-7.211417198E0;-4.655542374E-1;7.936285973E0
1.117990675E1;-9.623308182E-1;1.220058918E0;6.744841099E0
1.119084675E1;9.149074554E-3;4.041914940E-1;6.112321377E0
1.121010475E1;-2.112352848E0;-9.202713966E-1;6.163703442E0
1.123022275E1;1.889305115E-1;8.661937714E-1;8.266411781E0
1.125005375E1;1.264152241E1;5.002020359E0;1.285467052E1
1.126999275E1;2.434764671E1;7.550504684E0;1.754681587E1
1.129007775E1;2.962485504E1;6.375781536E0;2.874375820E0
1.131005475E1;2.151581383E1;3.552006245E0;-1.211803436E0
1.132007075E1;1.747374916E1;1.506749153E0;-4.010825157E-1
1.133995475E1;1.119256020E1;-2.484899998E0;1.381167889E0
1.135996175E1;5.237099648E0;-6.537244797E0;2.731191635E0
1.137982875E1;6.491756439E-2;-9.525631905E0;2.069778681E0
1.139146175E1;-1.965189457E0;-1.061995316E1;1.912134171E0
1.140988675E1;-6.131010532E0;-1.228623295E1;8.602418900E-1
1.142000075E1;-8.092332840E0;-1.301397038E1;1.620173454E-1
1.144040975E1;-1.104930592E1;-1.406493759E1;-6.479406357E-1
1.146069575E1;-1.259533978E1;-1.443781662E1;-1.164541245E-1
1.147986975E1;-1.477653980E1;-1.463721752E1;1.207976341E0
1.148998075E1;-1.459127998E1;-1.471710777E1;1.756534100E0
1.150989375E1;-1.156667137E1;-1.424361897E1;2.524275064E0
1.152990875E1;-5.774117470E0;-1.089048386E1;1.711161613E0
1.153999475E1;-2.754771233E0;-8.825966835E0;7.390279770E-1
1.155993675E1;3.072172165E0;-5.428699017E0;-5.497241020E-1
1.156997075E1;5.486048698E0;-3.665993214E0;-7.486391068E-1
1.158983775E1;9.881711960E0;-1.773307920E0;5.779333115E-1
1.159998375E1;1.700845718E1;8.957523108E-1;2.519932508E0
1.161983075E1;3.194586945E1;1.178500557E1;7.678583145E0
1.162987775E1;3.208337021E1;1.564992428E1;1.250459576E1
1.163992675E1;3.219301605E1;1.594521809E1;1.645917892E1
1.165986175E1;2.921254349E1;1.202455521E1;1.599751568E1
1.166997775E1;1.900392914E1;9.204599380E0;1.287156582E1
1.169014075E1;1.588859081E0;3.986319065E0;3.654919147E0
1.170988375E1;-2.386632919E0;3.647325039E0;1.856820583E0
1.171997475E1;-3.709834337E0;3.447741270E0;2.380578756E0
1.173006075E1;-4.688888550E0;3.248063087E0;3.461188078E0
1.174985275E1;-6.232140064E0;2.334115505E0;6.015226364E0
1.175993075E1;-7.127116203E0;1.857108593E0;7.283906937E0
1.177997875E1;-8.515830994E0;1.186821222E0;9.421350479E0
1.179988875E1;-1.080788994E1;-3.838152885E-1;1.144767952E1
1.181014775E1;-1.146512890E1;-7.242827415E-1;1.189780807E1
1.182988575E1;-1.155147076E1;-5.071556568E-1;1.205428505E1
1.183996175E1;-1.132609367E1;-2.234203815E-1;1.177554512E1
1.185005975E1;-1.072353268E1;1.575164795E-1;1.149705505E1
1.186017475E1;-1.008401299E1;4.653835297E-1;1.097381020E1
1.187983775E1;-8.355305672E0;-5.029201508E-3;8.417634964E0
1.189007775E1;-7.170595169E0;-3.022766113E-1;7.337678909E0
1.190994675E1;-5.750712872E0;-1.291244984E0;5.213195324E0
1.192996975E1;-2.429955959E0;4.007811546E-1;4.587571621E0
1.194991575E1;5.622024536E-1;3.918200970E0;5.839760780E0
1.196982275E1;1.339833546E1;8.259466171E0;8.469058990E0
1.197989675E1;2.396769333E1;1.130193424E1;9.894193649E0
1.198992575E1;3.172886276E1;1.327392197E1;1.037413025E1
1.200002275E1;3.266784286E1;1.240024948E1;1.017136383E1
1.202004875E1;3.216726303E1;6.623619556E0;7.657485008E0
1.203052375E1;2.788102341E1;3.686792850E0;6.114295959E0
1.204097075E1;2.224351120E1;9.451365471E-1;4.125412464E0
1.205991275E1;1.230447483E1;-3.903093100E0;1.430825472E0
1.207000875E1;6.669273853E0;-6.460568905E0;1.612455606E0
1.209013075E1;4.051647186E0;-7.697037220E0;2.948506355E0
1.210999875E1;3.622231483E-1;-9.747642517E0;3.576606989E0
1.213006775E1;-3.489125967E0;-1.166218567E1;3.411186218E0
1.215004575E1;-5.499556065E0;-1.228554821E1;1.926425338E0
1.217008775E1;-7.644868851E0;-1.251060677E1;4.040467739E-1
1.219007875E1;-9.175772667E0;-1.274752331E1;-5.776443481E-1
1.220051875E1;-9.862524986E0;-1.283307457E1;-7.436380386E-1
1.221987075E1;-1.222976303E1;-1.308096218E1;-1.114071369E0
1.222989075E1;-1.359281731E1;-1.320215797E1;-1.141275406E0
1.223992575E1;-1.443115616E1;-1.349282837E1;-1.049055576E0
1.224997775E1;-1.476969337E1;-1.377353096E1;-9.065647125E-1
1.226991775E1;-1.188020897E1;-1.314715385E1;-5.185651779E-2
1.229046275E1;-6.402381420E0;-1.139634323E1;2.825427055E0
1.231001575E1;-2.640275478E0;-9.912559509E0;4.770435333E0
1.233013275E1;3.947164059E0;-8.032658577E0;2.278876305E0
1.235003675E1;1.550520706E1;-5.070947170E0;7.173204422E-2
1.236994575E1;3.102100754E1;1.136025906E0;5.280128956E0
1.238931575E1;3.283969498E1;1.185127449E1;1.898191833E1
1.239987975E1;3.306713104E1;1.172467899E1;1.915577126E1
1.241001375E1;3.306713486E1;1.245131969E1;2.016731834E1
1.242997975E1;2.286170578E1;7.241640091E0;1.407994843E1
1.244004475E1;1.287290859E1;4.365722656E0;9.121170044E0
1.245990975E1;1.320333004E0;2.659854174E0;2.230545044E0
1.247006475E1;-4.660778046E-1;1.993469477E0;2.975919008E0
1.249278475E1;-3.544755936E0;1.571333170E0;6.592025280E0
1.250987375E1;-6.208855152E0;1.459377289E0;9.208229065E0
1.252986975E1;-6.274549007E0;2.812609196E0;9.494977951E0
1.254150575E1;-5.687358379E0;3.755393744E0;9.524934769E0
1.256028075E1;-5.926553726E0;3.859769344E0;1.038760185E1
1.257984675E1;-6.609400272E0;3.617386341E0;1.136938667E1
1.258992075E1;-6.343943596E0;3.391242027E0;1.240924072E1
1.261079775E1;-5.286647797E0;3.580374718E0;1.484812164E1
1.262982375E1;-6.541246891E0;1.695653915E0;1.354465485E1
1.263983575E1;-7.119108200E0;5.361680984E-1;1.199796677E1
1.264997275E1;-5.824228287E0;-6.167793274E-1;9.783608437E0
1.267008375E1;-1.916451931E0;1.395349503E-1;7.691258430E0
1.269011475E1;3.270632267E0;3.013168812E0;9.744478226E0
1.270988875E1;8.265963554E0;3.866167068E0;1.319380665E1
1.272995075E1;1.934545708E1;2.152336121E0;1.338623905E1
1.274983375E1;3.124804115E1;3.107832909E0;8.831016541E0
1.275992275E1;3.247885132E1;4.211700439E0;4.856991768E0
1.277983975E1;3.227317429E1;1.650535583E0;3.531419277E0
1.279042975E1;2.707771683E1;-2.694311142E0;6.454639435E0
1.281005675E1;1.534679985E1;-8.978677750E0;9.492430687E0
1.282023975E1;1.257466698E1;-1.036853218E1;8.643350601E0
1.284152775E1;6.056966305E0;-1.223297310E1;4.700671196E0
1.285990875E1;2.277998924E-1;-1.346193886E1;3.168816566E0
1.286993975E1;-2.294827700E0;-1.392040825E1;2.146925211E0
1.288994875E1;-6.397464752E0;-1.376691723E1;8.520603180E-1
1.290000275E1;-7.883461952E0;-1.368966293E1;1.038644791E0
1.291026775E1;-8.825363159E0;-1.343232155E1;1.669686794E0
1.292986275E1;-9.909747124E0;-1.299377823E1;2.680236578E0
1.293998575E1;-1.023020649E1;-1.277283764E1;2.875595331E0
1.294999575E1;-1.073364162E1;-1.243792915E1;2.924357653E0
1.296985375E1;-1.158895111E1;-1.205024719E1;2.729745150E0
1.297986775E1;-1.181922913E1;-1.198747444E1;2.442242861E0
1.299049475E1;-1.181296921E1;-1.214509392E1;1.992987156E0
1.301000175E1;-1.076299095E1;-1.210227680E1;1.165567398E0
1.302988975E1;-8.031111717E0;-1.096519089E1;1.760906696E0
1.303997875E1;-6.441121578E0;-9.986211777E0;2.710584164E0
1.305024875E1;-2.248287678E0;-8.839454651E0;3.178518772E0
1.306991675E1;2.251913071E0;-8.703117371E0;-2.642693520E-1
1.309010275E1;9.783398628E0;-7.427467823E0;8.444018364E-1
1.311004875E1;3.121177673E1;1.386448622E0;7.893943787E0
1.312011575E1;3.303816223E1;7.452516079E0;1.226472473E1
1.313988875E1;3.323572540E1;1.358285236E1;1.775221634E1
1.315001775E1;3.308198547E1;1.296904945E1;1.613132286E1
1.316997375E1;1.966909790E1;9.027046204E0;1.074679661E1
1.318007175E1;1.208733749E1;7.236176491E0;7.978635311E0
1.320061975E1;3.433988094E0;5.160922050E0;4.844244003E0
1.321987075E1;1.142835617E-1;4.796453476E0;5.748017788E0
1.322995975E1;-1.067854881E0;4.581480026E0;6.824086666E0
1.324065675E1;-3.343773127E0;4.250615597E0;9.059648514E0
1.325992375E1;-5.624694824E0;3.645442963E0;1.060780144E1
1.326992675E1;-6.379946709E0;3.459136009E0;1.095170498E1
1.328010775E1;-7.167781830E0;3.311581373E0;1.120566368E1
1.329027775E1;-7.983081341E0;3.035674095E0;1.140724277E1
1.331009875E1;-8.661771774E0;2.698950529E0;1.131520176E1
1.332999575E1;-8.876219749E0;3.203538895E0;9.939456940E0
1.334033875E1;-9.224611282E0;3.036364794E0;9.249269485E0
1.336002975E1;-9.676662445E0;1.879298210E0;8.789904594E0
1.337988375E1;-8.463556290E0;1.257318735E0;8.896577835E0
1.339274875E1;-6.648847580E0;4.085860252E-1;7.851181030E0
1.341045175E1;-5.396369934E0;1.810159683E-1;7.151512623E0
1.342992675E1;-3.669426918E0;9.597506523E-1;5.478152275E0
1.344988175E1;1.900028229E0;3.149700165E-2;3.308575153E0
1.345988475E1;9.907960892E0;1.397807121E0;7.324355125E0
1.347986275E1;3.219429016E1;6.146518707E0;1.544534016E1
1.348989575E1;3.287417603E1;6.996540070E0;1.544768715E1
1.350990975E1;3.333896637E1;8.201127052E-1;1.714894295E0
1.351999475E1;3.176496887E1;-2.575971842E0;-3.681214333E0
1.353992975E1;1.874577713E1;-6.909441471E0;-2.086021423E0
1.355999475E1;1.087372780E1;-1.010593796E1;3.533417463E0
1.357037175E1;7.532391071E0;-1.112876511E1;5.319561481E0
1.358996675E1;1.751883507E0;-1.171448326E1;6.170967579E0
1.361004575E1;-2.067989349E0;-1.093972206E1;4.097631454E0
1.363033475E1;-7.250311375E0;-1.015829086E1;3.334611654E0
1.365013875E1;-1.050451183E1;-1.031879044E1;3.633215666E0
1.366017275E1;-1.195537376E1;-1.067519760E1;3.759751797E0
1.368001275E1;-1.426076508E1;-1.067817593E1;3.829735518E0
1.369063975E1;-1.535175133E1;-1.064663696E1;3.769543171E0
1.371016975E1;-1.662750626E1;-1.081295204E1;3.505662203E0
1.373008875E1;-1.513492966E1;-1.144475937E1;3.902127504E0
1.374266375E1;-1.303303909E1;-1.134816170E1;3.903739452E0
1.375552225E1;-7.871262550E0;-1.058696270E1;2.934328556E0
1.377013775E1;-3.730965614E0;-8.539593697E0;2.368386745E0
1.378080375E1;1.246377468E0;-5.693147182E0;1.795120239E0
1.379163675E1;6.672173023E0;-3.019677639E0;4.322261810E-1
1.381001175E1;1.437814903E1;-3.772004843E0;-3.372787476E0
1.383030375E1;2.037821388E1;-6.994728088E0;1.047714996E1
1.384084575E1;2.877972031E1;-2.726989746E0;1.106279945E1
1.386087975E1;3.456882477E1;6.028096676E0;1.143960285E1
1.387985175E1;3.441046143E1;9.755420685E0;7.109758377E0
1.388991275E1;3.100112152E1;8.488888741E0;6.284950256E0
1.390995075E1;1.616475105E1;4.965981960E0;6.765095711E0
1.393000075E1;6.170281887E0;2.712956190E0;5.152285576E0
1.394026475E1;3.597534180E0;2.713796139E0;4.779288292E0
1.395989475E1;9.204597473E-1;3.218267918E0;4.635261536E0
1.396990675E1;-3.450446129E-1;3.298547745E0;5.051929474E0
1.398018375E1;-1.575150967E0;3.354228497E0;5.907215595E0
1.399057075E1;-2.746910334E0;3.587302685E0;7.056923389E0
1.400119275E1;-4.098280907E0;3.467525005E0;9.459028244E0
1.401997475E1;-7.573960304E0;3.332903385E0;1.125416374E1
1.403013575E1;-8.484001160E0;3.296427727E0;1.178898621E1
1.404179675E1;-9.115071297E0;3.376119137E0;1.214194298E1
1.406013375E1;-9.340848923E0;3.965918303E0;1.199621201E1
1.407013675E1;-8.918728828E0;4.196323395E0;1.153021336E1
1.409026375E1;-7.747015476E0;4.123396397E0;1.122260475E1
1.411040575E1;-6.748500347E0;2.912158489E0;1.025291634E1
1.412994875E1;-4.947513103E0;9.714865685E-1;8.736854553E0
1.414032275E1;-3.641786575E0;-1.791810989E-2;8.067020416E0
1.415078775E1;-2.205361366E0;-8.612937927E-1;7.415543079E0
1.416995175E1;-8.233461380E-1;-4.133133888E-1;7.891206741E0
1.418018675E1;3.200004578E0;8.207097054E-1;9.657215118E0
1.419034275E1;8.720591545E0;1.201033115E0;1.102213097E1
1.420993275E1;2.568527985E1;2.661555290E0;1.394455147E1
1.421996875E1;3.256356812E1;6.613678932E-1;1.160877419E1
1.423992575E1;2.776708794E1;-4.156397820E0;4.056273460E0
1.425007975E1;2.310033035E1;-5.938721180E0;2.291998625E0
1.426009075E1;1.942171288E1;-6.782800674E0;2.020745993E0
1.427987775E1;1.546125031E1;-8.355069160E0;6.399941921E0
1.428996975E1;1.328637123E1;-9.763604164E0;9.168367386E0
1.431002275E1;9.078655243E0;-1.131786919E1;1.037772179E1
1.433012775E1;4.573568344E0;-1.115741444E1;6.599549770E0
1.435006075E1;-1.138362885E-1;-1.017594242E1;1.859467983E0
1.436987475E1;-5.768069744E0;-1.069745064E1;1.016719818E0
1.439133675E1;-1.028377628E1;-1.142287636E1;1.615018368E0
1.440997075E1;-1.303605652E1;-1.162984371E1;1.022725582E0
1.442994275E1;-1.422491550E1;-1.151006413E1;7.392129898E-1
1.444040275E1;-1.429624939E1;-1.153588486E1;6.864953041E-1
1.446026275E1;-1.328680706E1;-1.190371418E1;1.077762604E0
1.448016175E1;-9.666218758E0;-1.132387924E1;2.832605839E0
1.449071075E1;-7.590977669E0;-1.072907925E1;3.774390221E0
1.450986375E1;-3.659495115E0;-9.891882896E0;5.759386539E0
1.452989275E1;4.653282642E0;-6.626223564E0;6.473151207E0
1.454992475E1;1.157883453E1;-5.084835052E0;3.422653198E0
1.456984375E1;1.674965286E1;-4.341168404E0;4.789603233E0
1.457985375E1;2.294115639E1;-1.361175179E0;5.575631618E0
1.458996375E1;2.997121620E1;2.017707109E0;7.444444180E0
1.460991275E1;3.414945984E1;1.024796867E1;1.561336899E1
1.463003575E1;2.706546783E1;7.302933216E0;1.306000710E1
1.464009975E1;1.987768745E1;5.497872829E0;1.072395802E1
1.465984775E1;9.456483841E0;3.213500500E0;6.706873894E0
1.467021275E1;6.430700302E0;2.689717770E0;5.580627441E0
1.468996775E1;2.627562523E0;2.332909107E0;5.287090302E0
1.470986975E1;-1.717739105E-1;2.072967291E0;7.455057621E0
1.471989875E1;-1.611820221E0;1.751963377E0;8.644762039E0
1.472998875E1;-2.930482388E0;1.545400620E0;9.599004745E0
1.475007075E1;-5.163758755E0;1.378832340E0;1.031218147E1
1.477003075E1;-6.867110729E0;1.526039600E0;1.033594036E1
1.478999875E1;-8.226386070E0;1.528569460E0;1.060949326E1
1.480005275E1;-8.587563515E0;1.520217896E0;1.063742161E1
1.481995775E1;-8.211743355E0;1.648756027E0;1.000712776E1
1.483991275E1;-7.330628872E0;1.149235249E0;1.011352348E1
1.485017375E1;-7.135314941E0;4.805526733E-1;1.027527332E1
1.486991675E1;-6.364650249E0;-8.932576180E-1;9.997405052E0
1.487993675E1;-5.328250885E0;-1.604047298E0;8.929405212E0
1.489063375E1;-3.961818218E0;-2.073170662E0;7.918083191E0
1.491011875E1;5.029296875E-2;-1.782939911E0;8.221997261E0
1.492984775E1;7.924275398E0;-2.938926458E0;1.294144821E1
1.494007175E1;1.893871307E1;-1.545937538E0;1.573065281E1
1.495991975E1;3.257513046E1;2.949058533E0;1.580753136E1
1.497006275E1;3.246599197E1;3.630879402E0;1.567743683E1
1.498013275E1;3.245387650E1;1.624452114E0;1.363036537E1
1.500000175E1;2.130056000E1;-4.917873383E0;9.195578098E-1
1.501003975E1;1.643278122E1;-5.787719250E0;-4.393987656E-1
1.502025375E1;1.325633240E1;-6.570028782E0;2.518153191E-1
1.503991175E1;7.614453316E0;-8.930595398E0;3.696599007E0
1.504995675E1;3.963877201E0;-1.036651039E1;4.233139992E0
1.507019675E1;-7.908759117E-1;-1.188612175E1;3.511636734E0
1.509021075E1;-3.948359013E0;-1.201848698E1;2.373102427E0
1.511022975E1;-7.691287994E0;-1.252112007E1;1.988205910E-1
1.513007975E1;-1.043355370E1;-1.337755585E1;-2.910614014E-1
1.514024475E1;-1.127181435E1;-1.339500427E1;1.117062569E-1
1.515997375E1;-1.312022972E1;-1.337150764E1;1.885614395E-1
1.517986075E1;-1.454581070E1;-1.333964443E1;-5.290408134E-1
1.518997775E1;-1.491142082E1;-1.334361839E1;-9.835867882E-1
1.520990675E1;-1.259617329E1;-1.319251728E1;8.588266373E-2
1.522983575E1;-7.903234005E0;-1.149742317E1;2.709672451E0
1.523995875E1;-5.293426991E0;-1.063389301E1;4.585979462E0
1.525984375E1;-1.183754921E0;-9.183977127E0;7.055899620E0
1.527982075E1;4.635922432E0;-8.998458862E0;5.232049942E0
1.529068675E1;5.933211327E0;-9.593153954E0;3.852842331E0
1.530992975E1;1.583123779E1;-6.786945343E0;6.289852142E0
1.533074675E1;3.356698227E1;2.698967934E0;1.104224682E1
1.535002775E1;3.348585510E1;7.173936844E0;1.768593597E1
1.536986975E1;3.228007507E1;7.139490128E0;1.305859566E1
1.539621675E1;1.102432060E1;2.637882471E0;8.837042809E0
1.540999275E1;3.387123585E0;1.099532366E0;7.786159515E0
1.543018675E1;6.424093246E-1;1.750972271E0;6.798244476E0
1.544020775E1;8.339262009E-2;2.141558647E0;6.897121429E0
1.546034375E1;-1.377090454E0;2.085270405E0;8.425512314E0
1.547981675E1;-3.710717916E0;1.838043213E0;9.518399239E0
1.548990375E1;-4.984457970E0;1.912530661E0;9.531755447E0
1.551028675E1;-7.731525421E0;1.791449308E0;9.414186478E0
1.552993875E1;-9.638110161E0;2.040948153E0;8.989782333E0
1.554004175E1;-1.021158981E1;1.988226891E0;8.895606041E0
1.555989575E1;-1.123989868E1;1.444315434E0;8.123579979E0
1.557990875E1;-1.148024368E1;8.564896584E-1;6.440511227E0
1.559063975E1;-1.059110260E1;4.529714584E-2;5.698435307E0
1.560991675E1;-8.211565018E0;-7.009801865E-1;5.229001045E0
1.562019375E1;-6.129218578E0;-3.461241722E-1;5.138135910E0
1.564031275E1;-4.232381821E0;-6.947946548E-2;7.351968765E0
1.565999775E1;-2.032211781E0;1.621538639E0;8.888448715E0
1.567001575E1;1.923494339E0;1.349385738E0;9.538282394E0
1.568009275E1;1.245638847E1;2.807400227E0;1.039317226E1
1.569014875E1;2.523959732E1;5.294760227E0;1.038735199E1
1.571004275E1;3.231814194E1;6.997676849E0;1.594619370E1
1.573061175E1;3.251227570E1;3.377688885E0;2.131103134E1
1.574992775E1;2.903458023E1;-4.971360683E0;1.831504250E1
1.576034275E1;2.089106560E1;-8.410339355E0;1.591056728E1
1.577983275E1;8.887476921E0;-1.186965179E1;8.800240517E0
1.579013475E1;2.281917572E0;-1.256215763E1;6.663032055E0
1.580988675E1;-3.044776917E0;-1.260483932E1;1.608925343E0
1.582993675E1;-7.304043293E0;-1.293453598E1;-1.460741520E0
1.584988575E1;-1.000901222E1;-1.249785805E1;-5.694990158E-1
1.585989375E1;-1.088527489E1;-1.247924995E1;1.372156143E0
1.587003175E1;-1.183853722E1;-1.253359127E1;2.971275806E0
1.588005275E1;-1.242464638E1;-1.249643135E1;3.936786413E0
1.589013975E1;-1.290771580E1;-1.226301384E1;4.257159233E0
1.590989075E1;-1.356289291E1;-1.255680752E1;3.269918680E0
1.592997675E1;-1.300217819E1;-1.293016434E1;7.714381218E-1
1.594979675E1;-7.138133049E0;-1.072000217E1;7.634797096E-1
1.595988075E1;-3.489799261E0;-9.190851212E0;1.712280273E0
1.596995675E1;2.354812622E-2;-7.677995682E0;2.539216518E0
1.599024275E1;8.631870270E0;-5.446318150E0;3.181420803E0
1.601033075E1;1.557134819E1;-3.951945782E0;6.034916878E0
1.602989375E1;2.821079063E1;1.839331150E0;9.193672180E0
1.604075275E1;3.264752197E1;5.680665016E0;9.112940788E0
1.605989675E1;3.035992813E1;8.081337929E0;9.032556534E0
1.607983875E1;1.867749596E1;6.358380318E0;5.020100594E0
1.609109775E1;1.290801239E1;5.367658138E0;3.426553726E0
1.610994775E1;6.927148819E0;4.818536758E0;3.333765030E0
1.613001875E1;3.803923607E0;4.699157715E0;6.353631973E0
1.614009775E1;1.869201183E0;4.478668690E0;7.832930088E0
1.615986275E1;-1.324051857E0;4.766126156E0;9.790060043E0
1.617009075E1;-2.616768837E0;4.829221249E0;9.921693802E0
1.619006075E1;-6.261124611E0;3.980423689E0;1.065131950E1
1.621020575E1;-7.474587440E0;4.115183353E0;1.056502724E1
1.623001275E1;-8.907382965E0;4.350758553E0;1.012231922E1
1.625038775E1;-8.877082825E0;4.641466141E0;9.743799210E0
1.627004175E1;-7.959182262E0;3.836771965E0;1.032245255E1
1.628993675E1;-7.620590210E0;1.883647919E0;1.078991985E1
1.631007575E1;-4.895617008E0;7.940139771E-1;1.157006550E1
1.632017875E1;-2.713303328E0;1.564185143E0;1.222917938E1
1.633995975E1;-1.482076645E-1;2.767598152E0;1.386441040E1
1.635982275E1;1.005312920E1;1.460298061E0;1.679663467E1
1.636995775E1;3.152110481E1;6.516047955E0;1.613781548E1
1.638994175E1;3.336221695E1;8.064445496E0;1.163571453E1
1.640018775E1;3.352195358E1;4.667734146E0;8.931733131E0
1.641409975E1;3.242420578E1;8.825006485E-1;7.079821110E0
1.642990175E1;2.149449539E1;-5.636068821E0;8.722851753E0
1.644053375E1;1.725333405E1;-7.983939171E0;1.015100098E1
1.646023275E1;1.018106842E1;-1.126440430E1;1.092490959E1
1.647987275E1;4.345152378E0;-1.270998669E1;7.412175179E0
1.649026375E1;1.951936245E0;-1.271166229E1;4.618632317E0
1.650990075E1;-3.391737461E0;-1.234014320E1;-2.291536331E-2
1.652986575E1;-8.406440735E0;-1.276023388E1;-1.836133003E0
1.653991375E1;-9.794249535E0;-1.294522858E1;-9.735107422E-1
1.655987175E1;-1.157622147E1;-1.252557564E1;1.245272160E0
1.657001075E1;-1.346462631E1;-1.266198063E1;2.347930431E0
1.658006175E1;-1.390675259E1;-1.248773384E1;2.650770664E0
1.659985975E1;-1.277992439E1;-1.132416630E1;2.764491081E0
1.661991075E1;-9.329074860E0;-9.797977448E0;2.091664791E0
1.662994175E1;-6.846499443E0;-8.685273170E0;1.852994442E0
1.665010975E1;-2.340364695E0;-6.639574051E0;2.028536797E0
1.666991175E1;9.223976135E-1;-5.486965656E0;2.883707047E0
1.668990175E1;5.561354160E0;-4.677794456E0;2.846623421E0
1.670000875E1;7.631163120E0;-5.012902737E0;2.338409901E0
1.671992875E1;8.260450363E0;-7.172976494E0;1.214555740E0
1.673999975E1;2.232475281E1;-2.537992716E0;2.552011967E0
1.675988775E1;3.423045349E1;7.968916416E0;2.132810593E1
1.677994775E1;3.435450363E1;8.136568069E0;2.138153458E1
1.679000475E1;2.888811493E1;6.792516708E0;1.861873245E1
1.681095775E1;1.125715065E1;2.571315527E0;1.033064461E1
1.683002975E1;1.313295364E0;9.845029116E-1;4.352301598E0
1.685022675E1;-2.116935730E0;1.381882429E0;4.746803284E0
1.687003575E1;-3.444796801E0;1.915061712E0;9.126493454E0
1.688031275E1;-4.545505524E0;2.024161577E0;1.066712666E1
1.689987475E1;-7.761426926E0;1.478974104E0;1.157341766E1
1.690996775E1;-9.738636017E0;1.101015329E0;1.132767391E1
1.692002075E1;-1.136732674E1;9.048476219E-1;1.090821838E1
1.694061675E1;-1.281363678E1;9.764616489E-1;1.040075207E1
1.696380175E1;-1.255105972E1;9.178905487E-1;8.809671402E0
1.697990475E1;-9.816247940E0;9.954895973E-1;8.731211662E0
1.699005375E1;-8.471903801E0;1.034993649E0;9.409967422E0
1.700986675E1;-5.525735378E0;6.406106949E-1;1.010253048E1
1.701988975E1;-4.086049557E0;3.010678291E-1;1.004501915E1
1.704047875E1;2.656591415E0;1.842639923E0;1.085045338E1
1.706007175E1;1.403790569E1;6.826629162E0;1.242405701E1
1.707987875E1;2.089926338E1;7.219747543E0;1.041921806E1
1.708995175E1;2.359455490E1;5.412948132E0;1.050883293E1
1.710024775E1;2.787999344E1;4.130178452E0;1.167419434E1
1.712012675E1;3.320318222E1;2.531326294E0;1.426913357E1
1.714128775E1;3.039105034E1;-5.685775757E0;1.025635242E1
1.715984275E1;1.920932388E1;-1.020045662E1;6.472373009E0
1.717996175E1;1.284916687E1;-1.124840164E1;4.913896561E0
1.719094275E1;1.132396126E1;-1.163842201E1;5.426176548E0
1.720998075E1;6.896755695E0;-1.339636612E1;7.271342754E0
1.722983675E1;9.432711601E-1;-1.482227707E1;6.293564796E0
1.723986175E1;-2.255903721E0;-1.515350151E1;4.558913708E0
1.725019075E1;-5.666705132E0;-1.541011810E1;2.708167076E0
1.727053275E1;-1.100842285E1;-1.554259300E1;7.870068550E-1
1.729033875E1;-1.335400391E1;-1.520139408E1;7.392210960E-1
1.731022075E1;-1.365801334E1;-1.416618729E1;1.314611435E0
1.732048875E1;-1.354473495E1;-1.374448395E1;1.461141109E0
1.733994675E1;-1.324887180E1;-1.304967785E1;1.315632343E0
1.735050775E1;-1.053025818E1;-1.214993477E1;1.218112469E0
1.737000075E1;-6.330383778E0;-1.105788040E1;8.315539360E-1
1.739164675E1;-6.841812134E-1;-9.291663170E0;1.943180084E0
1.741055975E1;5.109368801E0;-7.856894493E0;3.816689014E0
1.742992575E1;1.248607445E1;-7.395320892E0;6.162271976E0
1.744992975E1;1.711152458E1;-8.392240524E0;8.588836670E0
1.746035875E1;2.213282394E1;-7.010740280E0;1.004010677E1
1.747486275E1;2.944631386E1;-3.651277304E0;1.229480553E1
1.749053175E1;3.466771698E1;2.199811935E0;2.234079361E1
1.750985175E1;3.439291763E1;6.118558884E0;2.661487770E1
1.752984975E1;2.264496231E1;4.415926933E0;2.067339325E1
1.753992775E1;1.670596123E1;4.141668320E0;1.246461487E1
1.755992175E1;6.390260220E0;4.263050556E0;8.680770874E0
1.756992975E1;4.084912300E0;4.036359787E0;8.403511047E0
1.759033175E1;4.480881691E-1;3.355814695E0;8.867561340E0
1.761074275E1;-2.694444895E0;2.413744926E0;8.946516037E0
1.762998375E1;-6.119426250E0;1.444946289E0;8.320890427E0
1.764066875E1;-7.846353531E0;7.235455513E-1;7.589404106E0
1.765991275E1;-9.868200302E0;-7.641718388E-1;6.670868397E0
1.767980575E1;-1.045402145E1;-1.269698620E0;6.469276905E0
1.769040175E1;-1.011403465E1;-9.039330482E-1;5.985985279E0
1.770989275E1;-9.131059647E0;7.332911491E-1;3.445660830E0
1.772982575E1;-8.744529724E0;1.542273521E0;1.408942699E0
1.773983275E1;-8.547166824E0;5.318865776E-1;2.813212872E0
1.775002975E1;-8.021530151E0;-2.261221409E-1;4.478268623E0
1.776056975E1;-6.788992882E0;-9.470012188E-1;6.473616600E0
1.778012575E1;-2.867389917E0;-1.932861090E0;1.093432236E1
1.779020375E1;3.638463020E-1;-9.603736401E-1;1.310151672E1
1.781089175E1;1.027898884E1;1.806645393E0;1.644226646E1
1.783001075E1;2.701414490E1;3.212297440E0;1.976949883E1
1.784100175E1;3.317245865E1;4.313845158E0;2.150051117E1
1.785991575E1;3.358266068E1;5.633683205E0;1.974177551E1
1.787003075E1;3.363251495E1;3.987871647E0;1.660979843E1
1.788989175E1;2.470473099E1;-7.915164232E-1;1.048972702E1
1.791008975E1;1.529742527E1;-3.055792809E0;7.009230614E0
1.792985275E1;1.162507820E1;-3.850473404E0;7.197199345E0
1.793985875E1;9.061447144E0;-4.579244614E0;7.085398197E0
1.795021475E1;7.418719292E0;-4.897093773E0;6.440544605E0
1.796979875E1;1.878699303E0;-6.504158974E0;4.320036888E0
1.797981275E1;-1.399534702E0;-7.313502312E0;3.227012634E0
1.798999775E1;-4.628389835E0;-7.914674759E0;2.427553177E0
1.800994175E1;-9.649671555E0;-9.214600563E0;1.188966751E0
1.803002875E1;-1.219770336E1;-1.001579189E1;1.260583401E0
1.804023775E1;-1.263331223E1;-9.809472084E0;1.676926613E0
1.805981075E1;-1.313195419E1;-9.509174347E0;2.697103024E0
1.806997975E1;-1.326059341E1;-9.289951324E0;3.122781277E0
1.809004975E1;-1.268496132E1;-9.154417038E0;3.113193989E0
1.811006275E1;-1.078427124E1;-8.761184692E0;2.193469524E0
1.812992475E1;-5.623763561E0;-7.779783249E0;2.667701721E0
1.813998575E1;-3.171239614E0;-7.193607330E0;3.490595818E0
1.815014675E1;-2.937049866E-1;-6.292754173E0;4.091391563E0
1.817010475E1;6.558670998E0;-3.398342133E0;4.086865902E0
1.818996575E1;1.147066689E1;-2.373843431E0;2.263169765E0
1.819998775E1;1.348912716E1;-2.195772171E0;2.960751534E0
1.821021175E1;1.665708542E1;-5.887340307E-1;3.602231503E0
1.823011675E1;2.876510239E1;5.019024849E0;5.974458694E0
1.824037375E1;3.405242920E1;8.225044250E0;8.828725815E0
1.825998775E1;3.443620300E1;1.149734688E1;1.209869003E1
1.827994275E1;2.599135399E1;8.160655975E0;1.228213024E1
1.829108475E1;1.911522484E1;6.503310680E0;1.127315712E1
1.831002075E1;9.075582504E0;4.714765549E0;7.237809181E0
1.832983375E1;6.965403557E-1;4.295331001E0;5.654874802E0
1.833990275E1;-4.974279404E-1;4.351162434E0;7.398987770E0
1.835987275E1;-2.741809845E0;3.878150940E0;1.177355957E1
1.836997475E1;-4.150188923E0;3.478469372E0;1.334564400E1
1.838015475E1;-5.570734024E0;3.166412830E0;1.445133972E1
1.839376875E1;-7.020158291E0;2.927296877E0;1.503340912E1
1.841004275E1;-9.573944092E0;2.184728146E0;1.514037800E1
1.842994775E1;-1.117490768E1;1.836172342E0;1.472028065E1
1.844009975E1;-1.185976791E1;1.506422997E0;1.422927475E1
1.845014075E1;-1.225623703E1;1.080466270E0;1.364059639E1
1.846993075E1;-1.253931999E1;-3.532545567E-1;1.286940384E1
1.848985175E1;-1.144324970E1;-1.747725248E0;1.270963097E1
1.851032875E1;-8.721919060E0;-2.829750061E0;1.116489410E1
1.853000175E1;3.919454098E0;1.588697433E0;1.087299633E1
1.854079175E1;8.878721237E0;3.867841244E0;1.175296688E1
1.855981375E1;1.725434494E1;4.924663067E0;1.456369591E1
1.856986275E1;2.246471214E1;4.424509525E0;1.552568626E1
1.858993075E1;3.285126114E1;4.371498108E0;1.548987675E1
1.859997875E1;3.291487885E1;4.675060749E0;1.268603706E1
1.860998475E1;3.284272385E1;4.708907604E0;9.438467026E0
1.862073975E1;3.279514313E1;3.136977673E0;6.816679001E0
1.863990675E1;2.864566612E1;-3.456238270E0;6.465733051E0
1.865988675E1;1.530771637E1;-9.040936470E0;5.926570415E0
1.867982675E1;8.823884964E0;-9.952943802E0;4.371134758E0
1.869005875E1;6.877905369E0;-1.004061699E1;4.372231007E0
1.870017875E1;4.847072601E0;-1.057028580E1;4.836616039E0
1.871979275E1;-1.896882296E0;-1.188106346E1;4.640123367E0
1.873024375E1;-4.587033272E0;-1.249523544E1;3.825249434E0
1.875003775E1;-1.036302948E1;-1.430660820E1;1.580422878E0
1.876006375E1;-1.222550774E1;-1.469239235E1;1.483192921E0
1.877010975E1;-1.325771236E1;-1.484134483E1;2.107622147E0
1.879132075E1;-1.530464077E1;-1.466824722E1;2.982924461E0
1.880987375E1;-1.629629326E1;-1.462171078E1;1.302005768E0
1.881988375E1;-1.598694134E1;-1.446119690E1;5.399641991E-1
1.884004975E1;-1.306611156E1;-1.390573311E1;9.827852249E-2
1.885990275E1;-6.888459682E0;-1.184116745E1;1.067848206E0
1.887987175E1;-6.686964035E-1;-1.002348614E1;3.500161648E0
1.888988875E1;1.481359005E0;-9.317035675E0;4.617913246E0
1.890000275E1;4.068700790E0;-8.592896461E0;5.366298676E0
1.891983675E1;1.568102074E1;-5.195032120E0;6.696231365E0
1.892983675E1;1.973904991E1;-3.930813789E0;8.103497505E0
1.894188975E1;2.540872383E1;-9.837833643E-1;8.533986092E0
1.895992575E1;3.502746964E1;5.764397621E0;6.990536213E0
1.897984075E1;3.545975494E1;8.173919678E0;9.778749466E0
1.899003675E1;3.548126984E1;9.456755638E0;1.101773930E1
1.900988175E1;2.950602341E1;9.394112587E0;1.177745533E1
1.901996575E1;2.439582062E1;8.365674973E0;1.159452915E1
1.904005175E1;1.420021248E1;5.397894382E0;1.068809605E1
1.905988175E1;6.441151142E0;3.361460686E0;9.445727348E0
1.906988575E1;3.638059378E0;2.509990215E0;9.460159302E0
1.908997775E1;-8.531045914E-2;1.408004999E0;1.186974812E1
1.910991275E1;-2.707159519E0;1.151045084E0;1.755838394E1
1.912001975E1;-3.547972918E0;1.086929560E0;1.867687988E1
1.913985975E1;-5.797283649E0;6.952118874E-1;1.893978119E1
1.915000875E1;-6.737054825E0;4.731950760E-1;1.754687500E1
1.916018875E1;-7.481412888E0;3.467874527E-1;1.587347603E1
1.918025175E1;-8.626813889E0;9.725046158E-2;1.223715782E1
1.919988275E1;-9.864868164E0;-6.455702782E-1;9.143973351E0
1.920993775E1;-9.877263069E0;-9.594497681E-1;8.557500839E0
1.921997175E1;-9.624391556E0;-1.656006575E0;8.771403313E0
1.923997175E1;-7.889732361E0;-2.845987082E0;9.942942619E0
1.924997875E1;-5.614851952E0;-2.800499439E0;1.013028240E1
1.926985375E1;1.947673321E0;-1.832370758E-1;8.607694626E0
1.927985775E1;6.389064312E0;2.865504265E0;6.889225483E0
1.929035375E1;9.332035065E0;3.985941887E0;6.160818100E0
1.930997075E1;2.670036697E1;5.735843182E0;1.553059959E1
1.933011475E1;3.466311646E1;8.502538681E0;1.544252396E1
1.935001375E1;3.471887207E1;4.085740566E0;4.963013649E0
1.936979775E1;2.984353638E1;-3.048527241E0;4.898358345E0
1.937980775E1;2.364463425E1;-5.999164581E0;5.857441425E0
1.939162575E1;1.896677017E1;-8.251056671E0;6.147190094E0
1.940186875E1;1.529316521E1;-9.728540421E0;5.068903923E0
1.941990875E1;9.077264786E0;-1.191252708E1;2.674861908E0
1.942996975E1;6.132146358E0;-1.264234829E1;2.210116625E0
1.944995775E1;-3.416407108E-1;-1.449168587E1;8.569927216E-1
1.946011875E1;-3.436918736E0;-1.548765659E1;3.589663506E-1
1.948001175E1;-8.382517815E0;-1.717945862E1;5.978226662E-1
1.949987475E1;-1.331210804E1;-1.849531746E1;1.781341076E0
1.951982775E1;-1.366184425E1;-1.780606270E1;2.437830448E0
1.952989375E1;-1.287760353E1;-1.682287025E1;1.889242649E0
1.954993275E1;-1.082408142E1;-1.509762192E1;4.015736580E-1
1.956995275E1;-7.212582588E0;-1.370097065E1;4.114246368E-1
1.959010875E1;-1.794620037E0;-1.116230965E1;1.753361702E0
1.961028675E1;4.165753841E0;-8.387964249E0;2.743363857E0
1.963000475E1;1.103965759E1;-5.370963097E0;3.270497322E0
1.964991075E1;1.591687012E1;-3.474001408E0;5.695343971E0
1.966991875E1;2.983775902E1;4.950386047E0;9.629505157E0
1.968997575E1;3.522676086E1;1.282430458E1;1.205469513E1
1.970002575E1;3.414635849E1;1.244662666E1;1.689012909E1
1.971004575E1;2.978149033E1;1.169821453E1;1.778226662E1
1.972998775E1;2.059436417E1;9.207701683E0;1.466735363E1
1.974014575E1;1.601482964E1;7.721542358E0;1.162822628E1
1.976001375E1;7.793009281E0;4.781251907E0;7.856318474E0
1.977002175E1;4.753848076E0;3.773420811E0;7.196546078E0
1.979026175E1;1.128156424E0;2.563331842E0;7.937237263E0
1.981000075E1;-2.241784334E0;4.730219841E-1;1.003961945E1
1.982041375E1;-4.129868031E0;-6.093475819E-1;1.133672523E1
1.984009275E1;-6.287841797E0;-2.128735542E0;1.310367966E1
1.985010975E1;-5.146721840E0;-1.692819357E0;1.357714081E1
1.986991275E1;-1.484130383E0;9.902443886E-1;1.278165245E1
1.989033075E1;-7.155997276E0;-2.110248089E0;9.318667412E0
1.990992675E1;-9.533548355E0;-4.033363342E0;9.062636375E0
1.993026875E1;-8.601948738E0;-4.078472137E0;9.031347275E0
1.995117875E1;-3.916601181E0;-2.949455738E0;1.077982521E1
1.996995575E1;2.833919525E-1;-2.224365711E0;1.056652927E1
1.998994375E1;-1.292071700E0;-4.027433395E0;9.543537140E0
2.000004475E1;-9.278080463E-1;-3.105966568E0;9.709104538E0
2.001985575E1;3.859925985E0;6.002874374E-1;1.067742443E1
2.002985775E1;6.625062943E0;1.107547760E0;1.122846794E1
2.004003275E1;1.265240574E1;1.947815895E0;1.262324142E1
2.005996275E1;2.705755424E1;6.088027000E0;1.374977112E1
2.006996375E1;3.275990295E1;7.974046230E0;9.729644775E0
2.008024875E1;3.464111328E1;8.233491898E0;3.275399446E0
2.009987575E1;2.295155716E1;1.376895905E0;4.819509029E0
2.011982775E1;1.578618908E1;-2.760270596E0;5.162644863E0
2.012992275E1;1.271127129E1;-4.472831726E0;5.100720406E0
2.014113075E1;9.746762276E0;-6.147787571E0;4.972283363E0
2.015993075E1;3.807846069E0;-9.099388123E0;3.075564861E0
2.017998775E1;2.142829895E-1;-1.092641640E1;8.648810387E-1
2.019989075E1;-3.712903500E0;-1.290103054E1;-1.741223335E-1
2.021005375E1;-6.018777370E0;-1.370667648E1;-3.925580978E-1
2.022985475E1;-8.930490494E0;-1.444752789E1;1.402540207E-1
2.023985575E1;-9.890069962E0;-1.451931953E1;5.467920303E-1
2.024996275E1;-1.063301849E1;-1.441388702E1;7.303671837E-1
2.026987975E1;-1.093536758E1;-1.368427944E1;-2.283210754E-1
2.029012375E1;-8.775335312E0;-1.295524025E1;-1.409101009E0
2.031006875E1;-5.625113964E0;-1.238237762E1;1.758993149E0
2.032990675E1;-1.584386587E0;-1.068973351E1;5.272217751E0
2.034001575E1;1.259439945E0;-9.175495148E0;5.957989216E0
2.036036475E1;8.274839401E0;-6.457440376E0;3.989216089E0
2.037988875E1;1.946764755E1;-2.757744789E-1;4.814596176E0
2.039004775E1;2.777813339E1;4.339311600E0;6.272740841E0
2.041014175E1;3.402744293E1;1.055819702E1;9.814251900E0
2.042060875E1;3.394771957E1;1.102160358E1;1.347093773E1
2.043991975E1;3.372046280E1;1.105419159E1;1.957803345E1
2.045015275E1;3.085501099E1;9.749380112E0;1.915107727E1
2.047054875E1;8.386291504E0;2.311236858E0;5.770704269E0
2.049060775E1;3.928427696E-1;1.204499006E0;2.480154991E0
2.050994475E1;-3.312740803E0;1.184257984E0;2.973693848E0
2.052991575E1;-4.594753742E0;1.006911755E0;5.585041046E0
2.054041275E1;-5.092917442E0;8.438384533E-1;7.153873920E0
2.056007675E1;-7.033552647E0;-2.971701622E-1;1.056226349E1
2.057986975E1;-8.990914345E0;-1.401118279E0;1.283763409E1
2.058993975E1;-9.667276382E0;-1.555544138E0;1.310578442E1
2.061003275E1;-1.048724365E1;-1.561667681E0;1.231471825E1
2.062984875E1;-1.037394047E1;-1.317641020E0;1.132262421E1
2.063985775E1;-1.037036991E1;-1.461925030E0;1.088215065E1
2.064995675E1;-1.026485062E1;-1.781789064E0;1.042671585E1
2.066020375E1;-9.709775925E0;-2.130040407E0;1.005940723E1
2.067988475E1;-4.852996826E0;-2.072091103E0;9.047560692E0
2.069036275E1;-2.399642467E0;-1.970937252E0;8.564086914E0
2.070999075E1;2.729199409E0;-8.718967438E-3;8.487361908E0
2.073028275E1;1.106890869E1;4.220055103E0;1.126630020E1
2.075011175E1;1.471583557E1;7.143540382E0;8.518026352E0
2.076990675E1;1.653200912E1;4.123643875E0;7.863323212E0
2.079017075E1;2.658245468E1;4.400372982E0;9.368080139E0
2.080983075E1;3.381023407E1;6.061384678E0;5.876582623E0
2.082017175E1;3.375968170E1;4.808772564E0;3.033829689E0
2.083030175E1;2.982950401E1;2.300794601E0;1.420883656E0
2.085009475E1;1.910947227E1;-3.277532816E0;2.605608225E0
2.086992375E1;1.045981121E1;-7.973649979E0;7.280352116E0
2.087996975E1;6.894980431E0;-9.477416039E0;7.571702003E0
2.089003775E1;3.402075291E0;-1.098459435E1;7.106479168E0
2.091009675E1;-2.736448050E0;-1.351588535E1;4.506122112E0
2.093020575E1;-8.955663681E0;-1.534619713E1;2.206238747E0
2.094995775E1;-1.362335587E1;-1.685239220E1;1.388195038E0
2.096980475E1;-1.562034798E1;-1.734358406E1;1.723958969E0
2.097986975E1;-1.596703148E1;-1.745369911E1;1.820832253E0
2.099084375E1;-1.576022911E1;-1.722919464E1;1.677769661E0
2.100985375E1;-1.303499031E1;-1.585755730E1;1.551651955E0
2.102998975E1;-7.147042274E0;-1.304853058E1;2.007297993E0
2.104985775E1;-1.761086226E0;-1.006001663E1;2.325059891E0
2.105986475E1;-7.463908195E-1;-9.497201920E0;2.490370274E0
2.106991575E1;2.674657822E0;-8.270406723E0;3.322848797E0
2.109005375E1;9.140428543E0;-6.751262665E0;3.272399902E0
2.110985975E1;1.754990005E1;-4.337570190E0;4.917477608E0
2.111991675E1;2.440313148E1;-8.467502594E-1;5.821430206E0
2.113003375E1;3.232081223E1;3.275353193E0;5.513845444E0
2.114018375E1;3.460972977E1;6.818532944E0;6.892841339E0
2.115990375E1;3.478523636E1;1.020040321E1;1.260570335E1
2.117984375E1;3.422203064E1;1.041777802E1;1.537360859E1
2.119066475E1;2.840804672E1;9.244012833E0;1.438470078E1
2.121079775E1;1.295530128E1;4.708370209E0;8.350584984E0
2.122998375E1;4.647754669E0;2.869585037E0;6.796341896E0
2.124003375E1;2.846650362E0;2.918800831E0;7.921991348E0
2.125992975E1;-1.496937275E-1;3.102010965E0;1.305119514E1
2.126996675E1;-4.741671085E-1;3.541789532E0;1.396975422E1
2.128031375E1;-9.394667149E-1;3.898736954E0;1.422775269E1
2.129989475E1;-3.349242687E0;3.465160370E0;1.442821121E1
2.130991175E1;-4.811608791E0;2.823180914E0;1.430773544E1
2.131996275E1;-5.998378277E0;2.301595211E0;1.402827835E1
2.132999175E1;-7.002741337E0;1.631870270E0;1.352883911E1
2.135000175E1;-8.462106705E0;2.951369286E-1;1.193872833E1
2.136983475E1;-9.093387604E0;-9.910569191E-1;1.089463425E1
2.137992575E1;-8.868139267E0;-1.374876261E0;1.030543804E1
2.139986075E1;-7.690622807E0;-1.996802568E0;8.907173157E0
2.141120625E1;-3.319310904E0;-2.068559170E0;7.722734928E0
2.143022288E1;-8.376412392E-1;-1.729799271E0;7.118647575E0
2.144998303E1;6.504975796E0;2.140289783E0;1.043986320E1
2.146000839E1;8.264335632E0;2.217637062E0;1.054780197E1
2.148047691E1;1.528261471E1;1.461317539E0;1.132905102E1
2.150018454E1;2.725091171E1;1.801632881E0;1.123964310E1
2.151995470E1;3.356908417E1;4.201040268E0;4.380586147E0
2.152995622E1;3.355812454E1;3.488825321E0;1.998168468E0
2.154989362E1;2.435467339E1;-1.701705933E0;2.922221422E0
2.156984222E1;1.440208435E1;-6.108339787E0;6.116285324E0
2.157986398E1;1.059917736E1;-7.430677891E0;7.076085091E0
2.160029456E1;5.591578007E0;-9.218130112E0;6.852299690E0
2.162007245E1;1.262106895E0;-1.071057892E1;5.325212479E0
2.163008810E1;-1.102238178E0;-1.163783455E1;4.415859699E0
2.164993184E1;-9.033258438E0;-1.483187103E1;1.925995350E0
2.167004652E1;-1.274451828E1;-1.624041367E1;3.369172573E0
2.168995469E1;-1.552964973E1;-1.680853653E1;4.067141533E0
2.170985848E1;-1.490027618E1;-1.630660439E1;3.186926365E0
2.171986462E1;-1.356026268E1;-1.539888000E1;2.367235184E0
2.172988968E1;-1.154526138E1;-1.426780701E1;1.898438454E0
2.174988573E1;-6.189901352E0;-1.212140083E1;1.277322292E0
2.175989074E1;-3.461298704E0;-1.094010830E1;1.466231346E0
2.176999074E1;-7.629098892E-1;-9.883326530E0;2.114327908E0
2.178004475E1;7.077884674E-1;-9.772183418E0;3.025131702E0
2.179992850E1;5.851627350E0;-8.045709610E0;3.885171890E0
2.181997294E1;1.230874443E1;-5.943046093E0;2.125006199E0
2.183994630E1;3.310503006E1;5.000792980E0;4.197278976E0
2.185984564E1;3.400662231E1;1.002731133E1;1.132969761E1
2.187984297E1;3.232959747E1;9.407470703E0;1.176790905E1
2.188993986E1;2.679913712E1;8.865339279E0;9.214950562E0
2.189997980E1;2.153888702E1;8.220598221E0;6.447299480E0
2.191997876E1;1.050982666E1;5.442957878E0;4.039309978E0
2.193997300E1;2.449321747E0;3.312222004E0;5.564254761E0
2.195993956E1;-1.276302338E-1;2.581274748E0;1.058743191E1
2.198007195E1;-1.090860128E0;2.800600767E0;1.528795719E1
2.199999005E1;-4.164963722E0;2.250057220E0;1.745901489E1
2.201000790E1;-6.354331970E0;1.688686848E0;1.726729774E1
2.202013582E1;-8.248694420E0;1.314725876E0;1.644207382E1
2.203998377E1;-1.092713356E1;1.120376587E0;1.305398560E1
2.205004476E1;-1.167468357E1;5.187044144E-1;1.180382156E1
2.206996800E1;-1.241477776E1;-1.529119015E0;1.042278290E1
2.208045088E1;-1.163919830E1;-2.269840479E0;1.022633171E1
2.210018378E1;-9.444768906E0;-3.694520235E0;9.510625839E0
2.212006126E1;-3.779636860E0;-2.892781258E0;7.326932907E0
2.213015150E1;-5.490479469E-1;-2.047006130E0;6.160923958E0
2.214027313E1;1.537074089E0;-1.883939743E0;6.012068748E0
2.216006809E1;7.414220810E0;-2.713665962E-1;8.659769058E0
2.218005384E1;1.211056805E1;-8.517160416E-1;8.035036087E0
2.219997252E1;2.160037804E1;-4.749770164E-1;7.425977707E0
2.221016764E1;3.079629326E1;2.541321278E0;3.933962107E0
2.223007722E1;3.347946167E1;2.304404259E0;2.050115108E0
2.224013948E1;3.163182068E1;-3.242738247E0;5.833418846E0
2.225995568E1;1.655450821E1;-9.899735451E0;1.060097790E1
2.228039773E1;9.787195206E0;-1.036138916E1;7.977880478E0
2.230007375E1;6.469460011E0;-9.773958206E0;6.324838638E0
2.231028375E1;3.401111126E0;-1.033734131E1;5.213862896E0
2.233013975E1;-3.715335369E0;-1.236085510E1;2.096960068E0
2.234999425E1;-9.876695633E0;-1.380798340E1;7.426691055E-1
2.236989137E1;-1.408701515E1;-1.495055962E1;-6.535758972E-1
2.237993656E1;-1.507095051E1;-1.525599003E1;-5.910940170E-1
2.239992695E1;-1.543143654E1;-1.539226818E1;1.095331192E0
2.241996805E1;-1.335471058E1;-1.509908199E1;2.372444630E0
2.243991658E1;-8.782459259E0;-1.308899307E1;1.331916809E0
2.245990246E1;-4.364050865E0;-1.118253422E1;1.057075977E0
2.246992460E1;-2.610296726E0;-1.042075348E1;1.624557018E0
2.247999668E1;-7.213826180E-1;-9.532221794E0;2.227681160E0
2.249993898E1;4.742719650E0;-8.236057281E0;2.835241318E0
2.251991406E1;1.171017456E1;-6.888104439E0;1.510779381E0
2.254038208E1;2.604911613E1;-5.661031008E-1;4.862828732E0
2.256010858E1;3.368267822E1;7.121041298E0;1.138408279E1
2.257998871E1;3.363022995E1;9.414897919E0;2.112347984E1
2.260009699E1;3.063668823E1;8.336000443E0;1.660160065E1
2.262000281E1;7.413105011E0;2.936376572E0;4.257280350E0
2.263995726E1;-2.206404209E0;6.959724426E-1;2.883755684E0
2.265992138E1;-5.863254070E0;1.224808693E-1;5.078745365E0
2.267995641E1;-6.531821251E0;-6.575510502E-1;8.991843224E0
2.270007841E1;-8.323570251E0;-1.632981300E0;1.195063782E1
2.271991767E1;-9.222798347E0;-2.020624399E0;1.305579090E1
2.273009621E1;-9.037085533E0;-1.911074638E0;1.305690098E1
2.274997711E1;-8.333730698E0;-1.018623829E0;1.183297348E1
2.276016193E1;-8.224389076E0;-7.584452629E-1;1.085023117E1
2.278045454E1;-9.102445602E0;-1.425377369E0;9.026128769E0
2.280011070E1;-1.075131035E1;-3.319795609E0;8.530046463E0
2.282002424E1;-7.728090286E0;-4.082011223E0;8.891855240E0
2.283994087E1;-9.949502945E-1;-2.083331108E0;8.493511200E0
2.285009831E1;2.646373272E0;-2.355527878E-2;8.647653580E0
2.286999539E1;8.450391769E0;2.763951778E0;1.002268410E1
2.288991016E1;2.235683060E1;3.373909950E0;1.059529877E1
2.289993296E1;3.167798042E1;3.908222675E0;1.064486885E1
2.291989830E1;3.388975143E1;4.134246349E0;1.691545248E0
2.293993839E1;3.412819672E1;1.923061371E0;-3.698355198E0
2.295995966E1;2.729150200E1;-3.043913126E0;1.257168770E0
2.297002520E1;1.967524338E1;-6.139410019E0;3.927020073E0
2.298993036E1;7.984798908E0;-9.597162247E0;5.965047836E0
2.299998956E1;5.378182411E0;-9.783782959E0;5.147402763E0
2.301993945E1;-8.949887753E-1;-1.032843399E1;4.005222797E0
2.302994810E1;-3.300481796E0;-1.105673981E1;4.064158440E0
2.303995693E1;-5.407725811E0;-1.159072304E1;4.245567322E0
2.305988079E1;-8.481632233E0;-1.157526112E1;5.650675297E0
2.307986626E1;-1.104534721E1;-1.159648705E1;6.769865513E0
2.308989600E1;-1.211104584E1;-1.175183868E1;6.739635468E0
2.309989838E1;-1.285844612E1;-1.182976818E1;6.389323711E0
2.310992006E1;-1.334188843E1;-1.165787411E1;5.947614193E0
2.311996241E1;-1.340471554E1;-1.129746914E1;4.984211922E0
2.313995466E1;-1.226740646E1;-1.075176907E1;2.321456909E0
2.315989998E1;-8.724506378E0;-9.783037186E0;1.207166672E0
2.317996506E1;-3.158069134E0;-8.205739021E0;2.947530746E0
2.319993058E1;2.046396255E0;-7.343364716E0;7.074871540E0
2.321987971E1;7.840764523E0;-7.171969414E0;5.255238533E0
2.323001123E1;1.098180008E1;-6.197156906E0;4.479088783E0
2.324006249E1;1.637056351E1;-3.640159369E0;5.410009861E0
2.325011212E1;2.263811684E1;-6.427604556E-1;6.983370781E0
2.326993834E1;3.116594505E1;2.269736767E0;1.403805733E1
2.328003605E1;3.210914612E1;3.172328949E0;1.764638901E1
2.329994407E1;2.857109261E1;4.329907894E0;1.604266739E1
2.331997733E1;1.979379272E1;4.070811749E0;9.421548843E0
2.333012554E1;1.447272301E1;3.329889297E0;6.634284496E0
2.334998195E1;4.039737225E0;1.762229204E0;3.303798914E0
2.336986455E1;-2.832358837E0;1.646696329E0;2.613492966E0
2.338155565E1;-4.545775890E0;2.102833748E0;5.244145870E0
2.340036997E1;-5.107218742E0;1.990896940E0;9.243760109E0
2.342008056E1;-6.844485283E0;1.469287157E0;1.184558296E1
2.343995070E1;-8.538187027E0;1.090815544E0;1.215585327E1
2.345993599E1;-8.897037506E0;1.402732372E0;9.945411682E0
2.346993837E1;-9.132595062E0;1.567243099E0;8.543207169E0
2.348992840E1;-9.862510681E0;1.133656025E0;6.221170425E0
2.351030041E1;-1.161387062E1;-7.415320873E-1;5.291770935E0
2.353010442E1;-1.134724903E1;-1.772104979E0;6.223467827E0
2.355002217E1;-8.610288620E0;-1.934176922E0;7.469173431E0
2.356991635E1;-4.551289558E0;-9.974501133E-1;8.829475403E0
2.358992465E1;1.072721481E0;9.242858887E-1;1.079943085E1
2.361006798E1;9.426969528E0;2.422709465E0;1.312602806E1
2.362998706E1;1.857215309E1;-7.201700211E-1;1.514814949E1
2.364000440E1;2.564692307E1;5.077424049E-1;1.301310349E1
2.365992916E1;3.144919586E1;3.312085629E0;4.596940041E0
2.368013560E1;2.411370659E1;-1.745219946E0;6.496113777E0
2.369999896E1;1.286624146E1;-7.175916672E0;1.290881729E1
2.371999455E1;7.289929867E0;-8.682682037E0;1.253562832E1
2.373012715E1;5.477424145E0;-8.763398170E0;9.864450455E0
2.374997685E1;8.607234955E-1;-9.168448448E0;4.131024837E0
2.376992002E1;-3.588412285E0;-9.292826653E0;1.616288185E0
2.378000639E1;-5.706560135E0;-9.495128632E0;6.544766426E-1
2.379998216E1;-1.091980743E1;-1.081626511E1;2.850818157E0
2.381995160E1;-1.326716805E1;-1.093144989E1;2.757660389E0
2.383988521E1;-1.559888268E1;-1.041043854E1;3.279695511E-1
2.385995737E1;-1.774279404E1;-1.075392914E1;-2.331109047E0
2.387994015E1;-1.729824638E1;-1.108630562E1;-3.621643543E0
2.389987660E1;-1.261697292E1;-1.013188076E1;-3.160195351E0
2.390988418E1;-9.447744370E0;-9.435676575E0;-1.903283119E0
2.391994046E1;-6.109518051E0;-8.777266502E0;-7.295608521E-3
2.393992193E1;4.781942368E-1;-7.260535717E0;2.894648552E0
2.395990529E1;8.103036880E0;-7.780652523E0;3.063321114E-1
2.397992639E1;1.838520050E1;-7.014796734E0;2.758214474E0
2.398995207E1;3.302890778E1;2.022461891E0;7.794865608E0
2.399995891E1;3.326685333E1;6.829126358E0;1.030385780E1
2.402003929E1;3.355811310E1;8.454741478E0;1.368858719E1
2.403999963E1;2.684686852E1;6.635373116E0;1.155937195E1
2.406008972E1;1.463071060E1;5.289368629E0;6.902489662E0
2.407992824E1;3.929182529E0;3.297352791E0;3.756746054E0
2.409001000E1;5.261373520E-2;2.783809185E0;4.620077133E0
2.410991731E1;-3.110172987E0;2.588819027E0;9.133761406E0
2.411993703E1;-3.341396093E0;2.978109837E0;1.162419987E1
2.413993032E1;-4.889541626E0;3.211910963E0;1.454151821E1
2.415987189E1;-8.303755760E0;2.163378239E0;1.574302864E1
2.417989904E1;-9.941488266E0;1.274719238E0;1.508315849E1
2.418993589E1;-1.055113506E1;1.018306255E0;1.315845776E1
2.420010432E1;-1.053810692E1;1.198906660E0;1.144934845E1
2.422003889E1;-1.002268410E1;1.393440247E0;9.018655777E0
2.423030282E1;-1.037097549E1;7.175884247E-1;8.695122719E0
2.425001627E1;-1.149157810E1;-1.671182871E0;8.130778313E0
2.426991638E1;-1.027533722E1;-3.262025118E0;7.197388172E0
2.428048256E1;-8.538070679E0;-3.587745428E0;6.943531036E0
2.430073745E1;-1.655240536E0;-1.869830608E0;7.223443031E0
2.432015668E1;8.579315186E0;2.020958900E0;1.067659378E1
2.434000948E1;1.304578400E1;4.209932327E0;1.232067013E1
2.435005612E1;1.257213211E1;2.324619293E0;1.188848495E1
2.436994734E1;1.981903648E1;-1.474462032E0;1.372451782E1
2.437997304E1;3.200817490E1;-1.461403847E0;9.738689423E0
2.439000290E1;3.223633194E1;-2.520803928E0;5.604286671E0
2.440992154E1;2.593564415E1;-5.821214676E0;2.289080620E-1
2.441992864E1;2.194905472E1;-7.272287369E0;1.073616505E0
2.443033670E1;1.865489769E1;-8.420507431E0;3.641275167E0
2.445001424E1;1.251823044E1;-1.087329483E1;6.018587589E0
2.446993287E1;5.349011898E0;-1.296051025E1;4.896883488E0
2.448109631E1;1.717879772E0;-1.368870544E1;3.650495291E0
2.450021114E1;-4.758694649E0;-1.484938049E1;1.820760012E0
2.451994735E1;-1.068098354E1;-1.534449768E1;1.012317181E0
2.454001915E1;-1.406618023E1;-1.529408550E1;8.653926849E-1
2.456000510E1;-1.654048729E1;-1.566333199E1;-5.198702812E-1
2.457999859E1;-1.624329185E1;-1.552522850E1;-2.346647263E0
2.459003117E1;-1.408214664E1;-1.464078522E1;-1.904831409E0
2.460010546E1;-1.158382416E1;-1.411258507E1;-1.227772713E0
2.462002393E1;-5.808330059E0;-1.282278442E1;1.334659100E0
2.463998804E1;-4.248456955E-1;-1.139624977E1;5.848113060E0
2.465008290E1;2.069735050E0;-1.159283257E1;7.362448692E0
2.467001904E1;1.024863529E1;-9.576159477E0;8.887216568E0
2.468994707E1;2.099777031E1;-3.404045820E0;1.096963882E1
2.470987183E1;3.170233917E1;2.916013956E0;1.912586594E1
2.473010527E1;3.125239182E1;4.949784279E0;2.602698517E1
2.474998813E1;2.640857315E1;7.477420330E0;1.727533531E1
2.476000144E1;2.370154381E1;8.053323746E0;1.278099537E1
2.477993817E1;8.722030640E0;5.765398026E0;3.963232517E0
2.478996096E1;4.078909874E0;4.324520111E0;2.986232281E0
2.480021036E1;1.268283367E0;3.637448311E0;3.001604557E0
2.481993515E1;4.407744408E-1;3.786340952E0;6.149522305E0
2.483010445E1;2.949147224E-1;3.867958546E0;8.064451218E0
2.484011010E1;-5.026874542E-1;3.695623875E0;9.434842110E0
2.485995009E1;-3.060542107E0;3.110183001E0;1.086064053E1
2.487999258E1;-5.186138153E0;2.236723900E0;1.094765663E1
2.490006446E1;-7.419667244E0;1.655591965E0;9.923920631E0
2.491011660E1;-7.938828945E0;1.595821381E0;9.553640366E0
2.492023018E1;-8.005308151E0;1.702472687E0;9.671243668E0
2.494002411E1;-8.931468010E0;6.715917587E-1;9.505490303E0
2.496014334E1;-1.071216011E1;-1.303205967E0;9.167724609E0
2.497998790E1;-9.822412491E0;-4.158659935E0;9.142364502E0
2.499001532E1;-7.937623024E0;-4.208863735E0;8.970538139E0
2.500020804E1;-4.826877117E0;-3.177760363E0;8.968560219E0
2.502016032E1;6.007819653E0;2.563565254E0;1.127690697E1
2.504001089E1;2.001449585E1;1.118128967E1;1.310161781E1
2.505009332E1;2.527985191E1;1.071430206E1;1.425720024E1
2.506022954E1;2.975149155E1;6.996016979E0;1.942018509E1
2.507030064E1;3.168215942E1;2.122799873E0;2.404168320E1
2.509002597E1;3.200743484E1;-4.148687840E0;2.185617065E1
2.510989931E1;2.750625610E1;-7.432993889E0;1.061902237E1
2.512992564E1;1.450318813E1;-1.268845558E1;4.305126667E0
2.514995372E1;6.685575008E0;-1.520271873E1;1.618151903E0
2.516988024E1;1.849812031E0;-1.738080788E1;1.348405957E0
2.518006850E1;2.797012329E-1;-1.773236084E1;6.878829002E-1
2.520007519E1;-3.407488585E0;-1.802084923E1;-1.342345715E0
2.521991136E1;-8.089389801E0;-1.818005943E1;-3.019237995E0
2.523987315E1;-1.151016521E1;-1.755451584E1;-3.898855686E0
2.525005995E1;-1.293183422E1;-1.702843285E1;-3.845846176E0
2.526993855E1;-1.495680046E1;-1.590107822E1;-4.205781460E0
2.527994815E1;-1.568365765E1;-1.578900528E1;-4.465946674E0
2.528994895E1;-1.584666157E1;-1.564056778E1;-4.926701546E0
2.530003535E1;-1.511241150E1;-1.525118065E1;-5.175602913E0
2.531998015E1;-1.174325562E1;-1.498488617E1;-2.778048992E0
2.533999435E1;-6.925035000E0;-1.465505409E1;-4.723677635E-1
2.535012705E1;-2.882498741E0;-1.410720253E1;3.074726105E0
2.536017290E1;-2.035403252E-1;-1.321959114E1;3.397065163E0
2.538014854E1;9.111688614E0;-9.441781998E0;1.517642021E0
2.540089295E1;2.801591873E1;-1.331964850E0;3.165181637E0
2.542025255E1;3.423208237E1;8.200721741E0;1.069736958E1
2.544001920E1;3.450427628E1;1.090913296E1;1.931554604E1
2.545031147E1;3.456124878E1;1.115350342E1;2.009929848E1
2.546998668E1;2.903275681E1;1.030332756E1;1.464050674E1
2.548030172E1;1.991560936E1;7.573094368E0;1.129177284E1
2.549998899E1;6.282921314E0;3.130925417E0;7.110973358E0
2.551990006E1;9.457473755E-1;2.658473015E0;4.773153305E0
2.553048341E1;-2.470132113E0;2.351494789E0;5.045123577E0
2.555000266E1;-3.471701145E0;2.150408030E0;6.218121529E0
2.556001071E1;-3.663856506E0;3.049145699E0;9.340789795E0
2.557993999E1;-3.783327579E0;3.774497271E0;9.769608498E0
2.559997031E1;-5.750391483E0;2.870429039E0;9.605789185E0
2.561992714E1;-6.840071201E0;2.153301716E0;8.817322731E0
2.562994194E1;-7.171000481E0;1.824262619E0;8.284904480E0
2.564012785E1;-7.525346279E0;1.440918922E0;7.979503632E0
2.566008827E1;-7.706354141E0;7.019090652E-1;7.582606316E0
2.567996438E1;-6.500326633E0;7.293596268E-1;7.789300442E0
2.569985841E1;-5.743969440E0;-8.320279121E-1;9.815776825E0
2.571015158E1;-5.753191471E0;-2.144042492E0;9.822010040E0
2.572998371E1;-3.319824696E0;-4.375104427E0;1.054759121E1
2.574023373E1;7.742695808E-1;-4.490433693E0;1.340945339E1
2.575029374E1;4.711132050E0;-2.060427189E0;1.480807114E1
2.576996350E1;1.618776703E1;2.685766220E-1;2.035430717E1
2.578987794E1;3.327365112E1;-1.672126770E0;1.973433113E1
2.579993684E1;3.342678452E1;-2.130522728E0;1.529360676E1
2.581987677E1;3.320833206E1;-1.761240482E0;8.467235565E-1
2.582988226E1;3.211336136E1;-3.078322411E0;6.538383961E-1
2.584002400E1;2.611606789E1;-5.292416096E0;4.086672783E0
2.585989556E1;1.479076767E1;-9.404726982E0;7.516056061E0
2.587992970E1;8.299188614E0;-1.003425789E1;2.262444019E0
2.589988599E1;4.629231453E0;-9.359857559E0;-1.494017124E0
2.590989937E1;2.693529606E0;-9.298600197E0;-1.608079910E0
2.592995690E1;-9.528336525E-1;-9.721800804E0;-1.449736118E0
2.593998083E1;-3.334154606E0;-1.007391548E1;-9.951405525E-1
2.595997002E1;-1.025900269E1;-1.284272861E1;-8.697228432E-1
2.597000338E1;-1.147673988E1;-1.321850395E1;-4.947962761E-1
2.598002607E1;-1.239950371E1;-1.356952572E1;-1.545948982E-1
2.599019591E1;-1.338009548E1;-1.380366516E1;-1.861934662E-1
2.601022104E1;-1.408456230E1;-1.398733044E1;-6.311683655E-1
2.603002157E1;-1.220663261E1;-1.360627556E1;-2.063241482E0
2.604997096E1;-7.966282845E0;-1.273328209E1;-1.328229427E0
2.606997230E1;-2.981673002E0;-1.134237289E1;2.881809235E0
2.608994089E1;1.357953072E0;-9.999402046E0;5.753061295E0
2.611001503E1;6.661245823E0;-8.387434006E0;4.806008339E0
2.612990332E1;1.277729797E1;-7.555362225E0;5.905804157E0
2.614002304E1;2.911477661E1;1.046674252E-1;1.015502834E1
2.615015439E1;3.460776138E1;5.100416183E0;1.190339184E1
2.616995316E1;3.469474411E1;9.427644730E0;1.427663422E1
2.618007346E1;3.428336716E1;8.705086708E0;1.222763538E1
2.619015160E1;2.911217880E1;7.151946545E0;1.007272339E1
2.620015168E1;2.279704094E1;5.703345776E0;8.417028427E0
2.621997373E1;1.346004009E1;3.628512383E0;6.457582951E0
2.623993900E1;9.476877213E0;2.295620441E0;7.225057125E0
2.625002387E1;7.441908836E0;1.742603064E0;8.336773872E0
2.626991828E1;2.428404808E0;5.874099731E-1;1.041405964E1
2.628989788E1;-2.211257458E0;-1.335568428E-1;1.154086018E1
2.630002732E1;-3.823184490E0;-2.534418106E-1;1.178487206E1
2.631999289E1;-6.156639099E0;-3.946352005E-2;1.228266907E1
2.633000432E1;-6.973999023E0;2.972984314E-2;1.246691513E1
2.634009204E1;-7.953091145E0;3.812270164E-1;1.138964558E1
2.636017057E1;-8.707070351E0;5.712318420E-2;9.832029343E0
2.637998721E1;-7.970085144E0;-4.028272629E-2;9.200797081E0
2.640404011E1;-7.022221565E0;-1.075443745E0;8.540860176E0
2.642068975E1;-6.843344688E0;-1.973555088E0;8.126148224E0
2.643990275E1;-4.639221668E0;-3.224173546E0;7.304422379E0
2.645003275E1;-3.074788094E0;-3.164370060E0;7.700154305E0
2.646149075E1;-1.066989899E0;-2.857134819E0;8.852680206E0
2.648005875E1;3.047859669E0;-1.763856888E0;1.087111282E1
2.649981875E1;8.472957611E0;-2.128053665E0;1.101642799E1
2.650999175E1;1.175892067E1;-3.016784668E0;9.549799919E0
2.652984675E1;1.773471069E1;-2.451586723E0;9.008535385E0
2.653989675E1;2.087416649E1;-1.755279064E0;1.223868656E1
2.655012375E1;2.401459885E1;-2.777325630E0;1.463310814E1
2.656979975E1;1.907633781E1;-5.416709900E0;1.349050617E1
2.657986375E1;1.616536522E1;-6.627676964E0;1.082044315E1
2.659015575E1;1.288235474E1;-7.557701111E0;7.308861256E0
2.661030575E1;5.357074261E0;-9.655588150E0;7.309272289E-1
2.662988575E1;2.532792091E0;-9.846534729E0;2.488921165E0
2.663989575E1;1.883117676E0;-9.577278137E0;3.599542618E0
2.665981975E1;-4.372406006E-1;-8.849215508E0;3.223614931E0
2.667014775E1;-1.950181007E0;-8.755224228E0;2.381082296E0
2.668999975E1;-6.112405777E0;-9.147546768E0;8.182001114E-2
2.671037675E1;-9.308051109E0;-9.721215248E0;-9.848408699E-1
2.672987775E1;-1.112602997E1;-1.014445877E1;-8.915872574E-1
2.675003875E1;-1.182318783E1;-1.095012093E1;-3.269266129E0
2.677002475E1;-8.806519508E0;-1.080115223E1;-3.673402309E0
2.679013775E1;-4.547611237E0;-1.091823578E1;-6.341552734E-1
2.681003975E1;1.101493359E0;-9.841159821E0;2.839570999E0
2.682023175E1;4.550614834E0;-9.167545319E0;2.756934166E0
2.683027275E1;7.856386662E0;-8.489761353E0;2.158356667E0
2.684060475E1;9.298142433E0;-8.266259193E0;3.461829662E0
2.686004375E1;1.891485214E1;-3.982710838E0;9.230014801E0
2.687014775E1;2.530365372E1;-8.451847434E-1;1.118113422E1
2.689059075E1;2.988956833E1;2.644037247E0;1.125291824E1
2.690993675E1;2.437240028E1;2.559489727E0;6.060818195E0
2.692986375E1;1.576185989E1;1.961011887E0;1.822859764E0
2.694013775E1;8.536678314E0;8.553175926E-1;2.754457712E0
2.695992775E1;5.240142345E0;4.351742268E-1;8.179328918E0
2.697005075E1;3.687574863E0;8.381288052E-1;1.117285728E1
2.699084975E1;4.364042282E-1;1.709464550E0;1.390509224E1
2.700994975E1;-2.515173912E0;2.518032789E0;1.445162582E1
2.702989175E1;-4.368484020E0;3.345416546E0;1.294747543E1
2.704020275E1;-5.076395988E0;3.906168461E0;1.201751995E1
2.706004575E1;-5.894340515E0;4.354320049E0;1.027490616E1
2.707994875E1;-6.253638744E0;4.262573719E0;9.549581528E0
2.709989875E1;-7.654260159E0;2.684837818E0;9.171675682E0
2.712001575E1;-9.732409477E0;5.520195961E-1;7.847484589E0
2.713028275E1;-9.119805336E0;-5.825376511E-2;6.526541710E0
2.714058675E1;-7.607975960E0;-2.495913506E-1;6.259879112E0
2.715989775E1;-2.020035267E0;7.297320366E-1;8.616573334E0
2.717006675E1;1.270662308E0;1.690974712E0;1.092448425E1
2.718995875E1;6.091902256E0;2.378645420E0;1.371422863E1
2.720003075E1;8.282037735E0;2.218047619E0;1.314506340E1
2.721008075E1;9.874092102E0;1.586401463E0;1.163236523E1
2.722989075E1;1.514378262E1;-2.370595932E-2;9.674127579E0
2.725032275E1;2.262574005E1;-7.478899956E-1;1.266342926E1
2.726988175E1;2.436786461E1;-3.760845423E0;1.360886002E1
2.728040975E1;2.083990669E1;-6.198940754E0;1.122415638E1
2.729099075E1;1.617092133E1;-8.350728035E0;8.020195961E0
2.730985675E1;9.048702240E0;-1.062067890E1;4.092016220E0
2.732009175E1;6.797209263E0;-1.099281883E1;4.451265812E0
2.733994575E1;1.694075584E0;-1.101588440E1;3.061186075E0
2.736007475E1;-1.780126095E0;-9.974336624E0;2.321341038E-1
2.737985375E1;-4.362313271E0;-8.695264816E0;-1.758716345E0
2.739006175E1;-5.580461025E0;-8.308271408E0;-2.022036552E0
2.741051275E1;-8.630074501E0;-9.100450516E0;-1.748019218E0
2.743003375E1;-9.955247879E0;-9.848257065E0;-1.271941662E-1
2.744005575E1;-1.067518044E1;-1.028889942E1;4.020781517E-1
2.745984775E1;-1.223571491E1;-1.102593517E1;-1.153047562E0
2.747043175E1;-1.215948868E1;-1.129302025E1;-1.738402367E0
2.748987675E1;-1.046872997E1;-1.218866539E1;-2.410505772E0
2.749994175E1;-8.806019783E0;-1.231936550E1;-2.269621849E0
2.751002675E1;-6.387954712E0;-1.195637608E1;-9.190907478E-1
2.752986075E1;-1.702220917E0;-1.312410450E1;5.656678200E0
2.753986775E1;1.432144165E0;-1.226773643E1;5.938128948E0
2.755012775E1;5.493158340E0;-9.615510941E0;5.177948475E0
2.756987075E1;1.159283924E1;-5.678309441E0;4.236877918E0
2.758064975E1;1.615084267E1;-2.989294291E0;4.721253872E0
2.759982275E1;2.697312164E1;3.323487759E0;7.501640320E0
2.761043275E1;3.094112587E1;5.671812057E0;1.104212570E1
2.763000475E1;3.140486336E1;8.984766006E0;1.673205757E1
2.765012175E1;2.281684494E1;8.278899193E0;1.122971725E1
2.766987575E1;1.047516060E1;6.578618050E0;3.551178455E0
2.767989975E1;4.981770039E0;5.173753738E0;1.431506634E0
2.768997675E1;1.031024933E0;4.275784492E0;1.522638798E0
2.771022575E1;-2.990252972E0;4.562463760E0;8.827444077E0
2.773019075E1;-3.826532602E0;5.056431770E0;1.314197922E1
2.774042175E1;-5.183696747E0;5.038163185E0;1.368010616E1
2.776045275E1;-8.001866341E0;4.433524609E0;1.287527657E1
2.777987175E1;-1.013282204E1;3.618061781E0;1.115651894E1
2.778993775E1;-1.127212143E1;2.845449448E0;1.009723854E1
2.781017775E1;-1.209706497E1;1.594258308E0;8.918525696E0
2.782034275E1;-1.177782631E1;1.362875462E0;8.611272812E0
2.783996075E1;-1.043426037E1;7.363905907E-1;7.897286415E0
2.784999875E1;-9.506355286E0;1.556782722E-1;7.906044960E0
2.786003075E1;-8.310219765E0;-5.566768646E-1;7.865082264E0
2.787988475E1;-4.385528088E0;-1.543512583E0;7.143351555E0
2.789014375E1;-1.663418293E0;-1.212584019E0;6.992684364E0
2.791003075E1;5.019971371E0;5.242800713E-1;1.029211807E1
2.793009175E1;1.301797867E1;-9.963102341E-1;9.493947983E0
2.794039275E1;2.079558563E1;-1.949300766E-1;1.134519958E1
2.796012075E1;2.985078049E1;2.386116982E-1;1.093590260E1
2.797086275E1;2.919270706E1;-3.155026436E-1;7.028039932E0
2.798993275E1;2.347012711E1;-2.473480940E0;2.796079874E0
2.800997675E1;1.753809738E1;-4.556830883E0;4.695470810E0
2.802068575E1;1.450626755E1;-6.147861004E0;6.133094788E0
2.804154075E1;9.105146408E0;-8.150972366E0;6.428857803E0
2.806001475E1;4.514947414E0;-9.914374352E0;4.436933994E0
2.808012075E1;6.051979065E-1;-1.064110756E1;3.365501165E0
2.809034875E1;-1.262151718E0;-1.081836700E1;2.780847073E0
2.811056675E1;-5.060287476E0;-1.038527870E1;1.493678331E0
2.812997875E1;-8.094923019E0;-1.067143440E1;7.687766552E-1
2.813998875E1;-9.461016655E0;-1.081733418E1;1.302676201E-1
2.816017775E1;-1.278355598E1;-1.156553078E1;-1.134137630E0
2.817987975E1;-1.507659912E1;-1.221276379E1;-2.549880981E0
2.819987575E1;-1.449794483E1;-1.238384438E1;-1.937405586E0
2.820989775E1;-1.285894775E1;-1.210272503E1;-1.033978939E0
2.821991375E1;-1.023456669E1;-1.138046837E1;9.289264679E-3
2.823990075E1;-4.393964767E0;-9.245937347E0;2.316931248E0
2.825019775E1;-1.644986153E0;-8.156217575E0;3.422541142E0
2.827103775E1;3.641203403E0;-6.162066460E0;5.216874123E0
2.829011975E1;9.351431847E0;-3.235162973E0;7.857034683E0
2.830021075E1;1.154956436E1;-2.209059715E0;7.942367554E0
2.831029275E1;1.287508583E1;-7.992751598E-1;6.088195801E0
2.832999075E1;2.092885590E1;2.560572386E0;7.815200806E0
2.834067975E1;2.644126892E1;4.377872467E0;1.054252148E1
2.836001575E1;3.168339920E1;7.823878288E0;2.065048409E1
2.837010975E1;3.009301949E1;7.426382542E0;2.160123634E1
2.838986975E1;1.532876015E1;3.728011131E0;1.424112034E1
2.839989275E1;8.972065926E0;2.561655998E0;1.058041096E1
2.841003675E1;3.812877655E0;1.880448818E0;7.736083031E0
2.842990875E1;-2.169855118E0;1.924073458E0;4.455271721E0
2.844000975E1;-3.421351910E0;2.048279047E0;4.369575977E0
2.845993175E1;-5.090139389E0;1.697573900E0;5.836647511E0
2.846996575E1;-5.768813133E0;1.419847965E0;6.642498493E0
2.848025775E1;-6.520403385E0;1.251261711E0;7.143394470E0
2.849074175E1;-7.734855652E0;1.465778589E0;7.689218521E0
2.850987775E1;-9.232400894E0;1.304176092E0;7.907814503E0
2.852994375E1;-1.112893677E1;5.350766182E-1;7.270185947E0
2.854995075E1;-1.243856621E1;-3.448939323E-1;6.398407936E0
2.856992275E1;-1.281986141E1;-1.101530552E0;6.418947220E0
2.858990175E1;-1.008571339E1;-6.691279411E-1;8.029453278E0
2.859990375E1;-8.649560928E0;-9.108657837E-1;9.372263908E0
2.860993775E1;-7.702222824E0;-1.563652277E0;9.679251671E0
2.863004675E1;-4.549571037E0;-2.253518581E0;9.069620132E0
2.864020275E1;-3.859759331E0;-2.307884932E0;8.269882202E0
2.865987475E1;-8.118710518E-1;-6.608037949E-1;7.006888390E0
2.866994075E1;3.497490406E0;1.617691994E0;8.434979439E0
2.869008075E1;1.200601578E1;5.993090630E0;1.197443581E1
2.870014575E1;1.806318474E1;4.889603615E0;1.374062157E1
2.872043575E1;2.633087540E1;1.386703491E0;1.188591766E1
2.873987875E1;3.190287018E1;3.216957569E0;8.789767265E0
2.875027175E1;3.123759651E1;1.693240166E0;7.942242146E0
2.876988275E1;2.109582138E1;-3.512282133E0;7.689105988E0
2.878014775E1;1.619976997E1;-5.190917969E0;7.118653297E0
2.879986575E1;8.187227249E0;-7.240977287E0;4.648316860E0
2.880989175E1;4.873343468E0;-7.773307323E0;3.336075783E0
2.882048275E1;2.164593697E0;-7.967076778E0;2.433988333E0
2.884095875E1;-2.147426128E0;-8.450096130E0;1.127734542E0
2.885997275E1;-5.390648365E0;-9.692041397E0;-9.226682186E-1
2.887990075E1;-8.349278450E0;-1.126338577E1;-2.905412197E0
2.889000775E1;-1.115000248E1;-1.318345451E1;-3.876663446E0
2.891031875E1;-1.373465347E1;-1.486809731E1;-4.703660011E0
2.892988675E1;-1.509786987E1;-1.592781067E1;-5.521263599E0
2.894009475E1;-1.422675228E1;-1.569953918E1;-5.276463509E0
2.896003075E1;-9.906599045E0;-1.453153038E1;-1.678144932E0
2.897006175E1;-7.971180439E0;-1.344827366E1;1.874237061E-1
2.898997275E1;-5.419405937E0;-1.142353439E1;3.209242344E0
2.900991575E1;-1.461768150E-1;-9.820615768E0;3.320572853E0
2.902000475E1;1.840706825E0;-8.086734772E0;3.020817757E0
2.903000675E1;4.710413456E0;-6.654192924E0;3.514577150E0
2.904012675E1;9.489416122E0;-4.532154560E0;6.942397594E0
2.905028075E1;1.630147171E1;3.118444681E-1;1.132003403E1
2.906993975E1;3.061844063E1;1.065536690E1;1.290658760E1
2.909016475E1;3.167623520E1;1.447341347E1;1.633433914E1
2.910987275E1;2.473346329E1;1.099964809E1;1.580036545E1
2.911995975E1;1.744887543E1;8.704894066E0;1.435374546E1
2.913000875E1;1.028124619E1;6.444353580E0;1.233450127E1
2.914992675E1;-1.087044716E0;3.593457222E0;7.273805141E0
2.916001675E1;-4.818486214E0;2.696863174E0;4.742828369E0
2.917011775E1;-7.094146729E0;1.998833418E0;3.329133749E0
2.919112675E1;-9.312628746E0;4.820005894E-1;3.981600523E0
2.921010875E1;-1.043835831E1;-9.654133320E-1;6.486667156E0
2.922018775E1;-1.168634033E1;-1.562836170E0;7.356559277E0
2.923990775E1;-1.385469818E1;-2.240652084E0;7.706548691E0
2.925005775E1;-1.464247894E1;-2.210463524E0;7.524582863E0
2.927020475E1;-1.590004921E1;-2.255657673E0;7.142940044E0
2.928042675E1;-1.594844151E1;-2.431275368E0;6.559424400E0
2.930029275E1;-1.348872375E1;-2.028452873E0;6.131276131E0
2.931990375E1;-9.010186195E0;-1.690587997E0;7.805625916E0
2.933002375E1;-5.731865883E0;-8.376910686E-1;9.150169373E0
2.935006675E1;-2.410348415E0;-3.727262020E-1;1.081642723E1
2.936987675E1;2.432289124E0;2.074066162E0;1.252924824E1
2.938996975E1;9.158982277E0;6.106447220E0;1.468906879E1
2.940026575E1;1.184999847E1;6.743546486E0;1.639755440E1
2.941988475E1;2.165802002E1;7.420937538E0;1.875240707E1
2.942997775E1;2.828569412E1;7.842243195E0;1.762231064E1
2.944992575E1;3.072175789E1;7.473171234E0;1.672673416E1
2.946534375E1;2.886354065E1;3.739208937E0;1.196340084E1
2.947990875E1;1.775036621E1;-5.052089691E-1;6.123157978E0
2.948991975E1;1.206866074E1;-2.308315039E0;2.342613459E0
2.950994175E1;3.616296768E0;-5.319346428E0;1.071066856E-1
2.952003775E1;1.274612427E0;-6.496319294E0;9.004423618E-1
2.953991475E1;-3.421117783E0;-9.390718460E0;8.342111111E-1
2.955987575E1;-8.763404846E0;-1.150636959E1;-1.199262142E0
2.957004775E1;-1.154493713E1;-1.234845734E1;-1.418394566E0
2.959008075E1;-1.451697350E1;-1.285134888E1;-3.518732309E0
2.960995375E1;-1.758476257E1;-1.283652687E1;-5.271158218E0
2.962982275E1;-1.667060852E1;-1.241793919E1;-3.904648304E0
2.963992375E1;-1.548815536E1;-1.213661194E1;-2.644742489E0
2.965004875E1;-1.436159611E1;-1.198317432E1;-1.663473129E0
2.967001875E1;-7.276626587E0;-1.107833195E1;1.205840111E0
2.968073675E1;-4.561687469E0;-8.739021301E0;7.204113007E-1
2.969989675E1;-8.311529160E-1;-7.577950478E0;-1.168966293E-2
2.971007475E1;7.999238968E-1;-7.383446693E0;1.468632698E0
2.973002875E1;5.679449558E0;-5.209244251E0;3.515609503E0
2.975008075E1;1.458772278E1;-1.226554871E0;5.814366817E0
2.976992175E1;3.162579918E1;8.770905495E0;7.054480076E0
2.978991475E1;3.245147324E1;1.381310940E1;1.725067329E1
2.980988275E1;3.118381119E1;1.034517479E1;1.721086502E1
2.981995575E1;2.254098320E1;8.288915634E0;1.371033859E1
2.983984175E1;1.029591370E1;6.849603653E0;9.398065567E0
2.985023175E1;7.908322811E0;7.207385540E0;9.614343643E0
2.986984675E1;3.316677570E0;6.990505695E0;1.200202179E1
2.988994475E1;-9.611825943E-1;5.394330978E0;1.217086792E1
2.990984275E1;-6.502209187E0;2.555833817E0;1.241245365E1
2.991987275E1;-9.137362480E0;1.180463791E0;1.259167862E1
2.993999275E1;-1.325714111E1;-8.461258411E-1;1.280224609E1
2.995985975E1;-1.520642281E1;-1.821629882E0;1.186665344E1
2.997004775E1;-1.556205750E1;-2.136796951E0;1.081120968E1
2.999018175E1;-1.441882324E1;-2.046349525E0;9.123901367E0
3.000986075E1;-1.232694721E1;-2.458341837E0;8.804699898E0
3.001990675E1;-1.090902710E1;-2.635478258E0;8.993029594E0
3.003007675E1;-9.706653595E0;-2.969598770E0;9.232557297E0
3.004084975E1;-8.353210449E0;-3.385832548E0;9.184887886E0
3.006000675E1;-4.565102577E0;-3.054478884E0;9.003049850E0
3.007999675E1;1.541766167E0;-9.159083366E-1;8.118118286E0
3.009056575E1;4.146330357E0;3.471102715E-1;8.404204369E0
3.011002275E1;1.090824986E1;4.421588421E0;1.065732670E1
3.012096975E1;1.433837318E1;5.084808826E0;1.172421646E1
3.013994975E1;2.615065002E1;6.361769199E0;1.448662758E1
3.015990975E1;3.252619934E1;6.595020294E0;1.308209801E1
3.017008175E1;3.253967667E1;5.693946362E0;1.128378868E1
3.019038075E1;3.047866821E1;2.369696140E0;6.315936565E0
3.021018775E1;1.792407417E1;-2.521182299E0;3.428264141E0
3.022988675E1;7.033138275E0;-6.273625374E0;3.041227818E0
3.024093775E1;1.893836975E0;-7.982258797E0;5.041399956E0
3.025985275E1;-2.360690117E0;-9.258314133E0;5.276921272E0
3.026992975E1;-4.545129776E0;-9.993377686E0;4.713026047E0
3.029001275E1;-8.988349915E0;-1.157525826E1;2.907644749E0
3.031002475E1;-1.222047615E1;-1.287639618E1;3.236287117E0
3.032999075E1;-1.465863991E1;-1.345472527E1;3.414877892E0
3.034982275E1;-1.496277618E1;-1.298637772E1;1.951749325E0
3.035990375E1;-1.331699562E1;-1.184487534E1;1.345202923E0
3.037004075E1;-1.164888573E1;-1.092070770E1;1.211070538E0
3.039048075E1;-8.437254906E0;-9.577966690E0;1.964817047E0
3.041006875E1;-4.415808678E0;-8.567483902E0;5.524952888E0
3.043036475E1;-1.063684940E0;-7.293356895E0;6.115517616E0
3.044993275E1;4.989241600E0;-4.332674503E0;5.034002304E0
3.046996975E1;1.555295563E1;2.792597532E0;4.610636711E0
3.049002275E1;2.406453323E1;6.951813698E0;6.168585777E0
3.050987575E1;3.270949554E1;1.169147778E1;1.444525146E1
3.053001075E1;3.282075882E1;1.263519096E1;1.594661808E1
3.054997775E1;2.181453323E1;9.385740280E0;9.344673157E0
3.056071775E1;1.518379021E1;7.220530033E0;7.383233070E0
3.057986275E1;4.259113789E0;4.087274075E0;6.234845161E0
3.059009175E1;5.961074829E-1;3.348977804E0;6.410047531E0
3.061008675E1;-3.391493559E0;2.500888586E0;7.807167053E0
3.062999075E1;-5.339607716E0;2.156127453E0;9.983205795E0
3.065013575E1;-9.456759453E0;1.584831953E0;1.103362942E1
3.066020975E1;-9.893845558E0;1.980341673E0;1.037036324E1
3.067030175E1;-1.014413834E1;2.294932604E0;9.655264854E0
3.069017375E1;-1.258911324E1;1.083252192E0;8.837651253E0
3.070991575E1;-1.428555679E1;-5.593204498E-1;9.665576935E0
3.071995375E1;-1.401054764E1;-9.808297157E-1;9.776597977E0
3.074003675E1;-1.113107872E1;-1.241297483E0;9.319435120E0
3.075987075E1;-4.607078075E0;8.675026894E-1;8.258922577E0
3.076992975E1;-1.667187691E0;1.476985455E0;8.433885574E0
3.079004275E1;1.230145931E0;5.404610634E-1;9.233146667E0
3.080988075E1;4.617249012E0;1.059691429E0;1.223090076E1
3.083000675E1;1.195317936E1;5.272926807E0;1.337687302E1
3.085009375E1;2.018617630E1;2.616592407E0;1.470286560E1
3.087000875E1;2.961277199E1;1.816240311E0;1.139941597E1
3.089041375E1;3.270119095E1;2.955072880E0;5.244259357E0
3.090990675E1;2.559469223E1;-2.828907967E-1;4.875030518E0
3.091990775E1;2.040691757E1;-2.663622856E0;6.485059738E0
3.094001575E1;9.735325813E0;-7.543899059E0;7.014709949E0
3.095985275E1;1.449738026E0;-1.006206512E1;7.819446564E0
3.096990075E1;-2.042846918E0;-1.108725071E1;7.298488140E0
3.097994175E1;-4.761947632E0;-1.164154816E1;6.186576366E0
3.099990875E1;-1.019355679E1;-1.262243462E1;3.877478123E0
3.101003175E1;-1.295474148E1;-1.343946266E1;2.694527626E0
3.103014575E1;-1.501161385E1;-1.353533363E1;3.271235228E0
3.105032775E1;-1.413735867E1;-1.324368286E1;4.184482574E0
3.106988375E1;-1.052583218E1;-1.143735790E1;2.970664501E0
3.107989475E1;-8.517076492E0;-1.072869968E1;2.758833885E0
3.108995275E1;-6.392506599E0;-9.947560310E0;2.637744904E0
3.110018475E1;-4.008637428E0;-8.815013885E0;2.565823555E0
3.111985975E1;-1.878051758E-1;-7.677477837E0;3.889405251E0
3.113031975E1;2.868045330E0;-6.661949158E0;4.439958572E0
3.115003175E1;9.462152481E0;-3.763567209E0;5.910857677E0
3.116995475E1;1.616905022E1;2.097635567E-1;6.324896336E0
3.118998275E1;1.979785156E1;3.374801159E0;3.452433109E0
3.120989375E1;2.585394096E1;6.705149651E0;6.076902390E0
3.122998975E1;2.906043625E1;7.336530209E0;1.221312141E1
3.124986575E1;1.826527405E1;5.030023575E0;1.308218002E1
3.125993675E1;1.229565620E1;4.032860756E0;1.081354427E1
3.126993975E1;6.550551891E0;3.456055880E0;8.816694260E0
3.128010775E1;1.930156708E0;3.223597765E0;7.373590469E0
3.129033675E1;-7.616786957E-1;3.058464527E0;7.080605984E0
3.131018075E1;-2.009988308E0;2.795122862E0;1.088265610E1
3.132985675E1;-3.597077847E0;2.297360897E0;1.302323532E1
3.133985775E1;-4.374595165E0;2.379698992E0;1.325813580E1
3.134991675E1;-5.305388927E0;2.429362774E0;1.305830002E1
3.136025075E1;-6.286190510E0;2.396522999E0;1.281768227E1
3.137980575E1;-9.011926651E0;1.442409992E0;1.064397812E1
3.139002075E1;-9.916935921E0;1.085244656E0;9.748379707E0
3.140138975E1;-1.047577667E1;6.878256798E-1;9.160581589E0
3.141989175E1;-1.105119324E1;-1.224598885E-1;8.267578125E0
3.142993075E1;-1.099643993E1;-4.628005028E-1;7.646818161E0
3.144990475E1;-9.547953606E0;-1.407820702E0;7.876532078E0
3.145997575E1;-8.448588371E0;-1.860875368E0;8.185691833E0
3.147986775E1;-6.418039322E0;-2.677860737E0;7.718622208E0
3.148993875E1;-4.587806225E0;-2.346785069E0;7.416405678E0
3.150989875E1;-3.198037148E-1;-1.255663872E0;7.049726486E0
3.152990475E1;1.816934586E0;-7.177400589E-1;9.142652512E0
3.154068175E1;3.532200336E0;-5.224819183E-1;1.088167000E1
3.156040775E1;1.191044044E1;-2.394156456E-1;1.174961662E1
3.157052575E1;1.907416344E1;7.305407524E-1;1.208213234E1
3.159037675E1;2.937925720E1;2.424190998E0;1.046731949E1
3.160038475E1;2.944127274E1;1.766378880E0;8.320775032E0
3.161987675E1;2.314689827E1;-1.380461931E0;5.203020573E0
3.163034475E1;1.461554527E1;-4.466715813E0;5.671974182E0
3.164987075E1;4.417747021E0;-8.010252953E0;5.740613461E0
3.165995775E1;-1.294889450E-1;-9.472291946E0;4.586666584E0
3.167982875E1;-4.411598682E0;-9.899978638E0;2.713894844E0
3.169013675E1;-4.937775612E0;-9.170610428E0;1.749298096E0
3.171005775E1;-3.452363014E0;-6.343282700E0;1.031231642E0
3.173007275E1;-7.519841194E0;-7.596790314E0;-1.012719870E0
3.175011075E1;-1.001517010E1;-8.320734024E0;-2.195605040E0
3.176992875E1;-1.135857868E1;-8.077332497E0;-3.325643063E0
3.179005975E1;-1.220483017E1;-8.198891640E0;-4.651093483E0
3.180988175E1;-1.053413391E1;-8.075973511E0;-4.451378822E0
3.182985375E1;-4.223840237E0;-7.110358238E0;-3.833869934E0
3.183987575E1;-8.592114449E-1;-6.113164902E0;-2.358314991E0
3.184988775E1;2.591219902E0;-5.007658958E0;2.647304535E-2
3.187015975E1;6.574955940E0;-4.379907608E0;6.247750282E0
3.189005075E1;9.320169449E0;-3.312750340E0;7.013176441E0
3.191003775E1;8.895233154E0;-3.196671486E0;2.558305264E0
3.192015575E1;1.056528854E1;-2.613181591E0;9.351532459E-1
3.194004575E1;2.030639267E1;-3.092167377E-1;4.480296135E0
3.195997575E1;2.968758392E1;2.673828602E-1;1.562298965E1
3.197987075E1;2.332692528E1;-8.664613962E-1;2.195503426E1
3.199012675E1;1.611646271E1;-8.561714888E-1;1.884274292E1
3.201010475E1;2.463169098E0;-1.416437507E0;9.505981445E0
3.203001575E1;-4.537188530E0;3.404459953E-1;6.501429081E0
3.204003875E1;-5.257585526E0;7.499315739E-1;7.110416412E0
3.205042275E1;-6.100003242E0;9.557886124E-1;7.926814079E0
3.206993675E1;-7.053252220E0;1.785158634E0;9.199146271E0
3.208040675E1;-7.546317577E0;2.248431444E0;9.530048370E0
3.209985975E1;-9.508352280E0;2.873435020E0;8.525614738E0
3.210991575E1;-1.017220116E1;3.309321642E0;7.494340420E0
3.212997975E1;-1.168793678E1;3.232084990E0;5.795924187E0
3.215014075E1;-1.296467972E1;2.067199469E0;4.449639320E0
3.216984075E1;-1.144395447E1;9.785428047E-1;5.954102039E0
3.218001875E1;-9.446040154E0;6.758871078E-1;6.916638374E0
3.219001975E1;-6.565649033E0;8.012151718E-1;7.137507439E0
3.220988375E1;-1.281912804E0;1.431679726E0;8.481340408E0
3.222002475E1;8.468313217E-1;7.907028198E-1;9.195157051E0
3.223002775E1;2.447386742E0;1.025723934E0;1.065881443E1
3.224999275E1;7.810342789E0;1.148427963E0;1.117473793E1
3.226995075E1;2.113117790E1;-3.512306213E-1;1.630409050E1
3.229075875E1;2.725116348E1;-6.216600418E0;1.717385674E1
3.230990875E1;2.540618706E1;-9.337849617E0;9.686510086E0
3.232990775E1;1.830930710E1;-9.644485474E0;3.752426147E0
3.234004375E1;1.463635826E1;-9.615421295E0;2.168256044E0
3.235986475E1;8.254850388E0;-1.007956696E1;7.812001705E-1
3.236989175E1;5.738257408E0;-9.801566124E0;1.875703335E-1
3.239495975E1;-1.105817318E0;-8.629946709E0;-1.731392860E0
3.241025975E1;-6.143198013E0;-8.964766502E0;-1.710344553E0
3.242994075E1;-1.096578789E1;-9.277729034E0;-2.078961611E0
3.244995175E1;-1.409941673E1;-9.569887161E0;-2.723614454E0
3.246023375E1;-1.518316555E1;-9.783392906E0;-2.986005306E0
3.247991075E1;-1.595789814E1;-1.001606846E1;-3.052675724E0
3.249998175E1;-1.530294609E1;-1.064411259E1;-3.290322781E0
3.251989475E1;-1.177384377E1;-1.109701252E1;-2.218717098E0
3.253005275E1;-9.388588905E0;-1.130216789E1;-1.129981995E0
3.254023875E1;-6.726717949E0;-1.110356522E1;4.759840965E-1
3.255990275E1;-1.745242596E0;-1.065690517E1;3.781043530E0
3.257000075E1;1.311633110E0;-9.924644470E0;5.536083221E0
3.259005675E1;7.557022095E0;-7.148185730E0;7.814159393E0
3.260987175E1;1.115211868E1;-6.582536697E0;7.059452057E0
3.263000075E1;2.273676491E1;-1.126457334E0;6.798785686E0
3.265004775E1;3.178324127E1;2.825349331E0;1.521019936E1
3.267032875E1;2.844933319E1;3.177753448E0;1.851956367E1
3.269000675E1;1.453192329E1;1.242708683E0;1.107325172E1
3.270987575E1;5.181268215E0;1.824076653E0;4.829735756E0
3.271996275E1;2.440504074E0;2.579733610E0;3.729565620E0
3.273003875E1;6.746387482E-1;3.107549667E0;4.179849625E0
3.275000575E1;-4.111995697E-1;3.498651266E0;7.907798290E0
3.276989675E1;-1.397621632E0;4.047031403E0;1.108166790E1
3.278007875E1;-2.247508526E0;4.490077019E0;1.157786751E1
3.279019775E1;-3.431049824E0;4.737263680E0;1.134367752E1
3.280993875E1;-7.790489197E0;4.034889221E0;8.825608253E0
3.282991475E1;-9.891516685E0;3.095658302E0;7.182773590E0
3.284991175E1;-1.134743023E1;1.973047495E0;5.744814396E0
3.287004975E1;-1.140092754E1;7.866435051E-1;5.944044113E0
3.289013675E1;-9.899337769E0;-1.196789742E-1;6.788286686E0
3.291002375E1;-7.656322479E0;-1.359921694E0;7.002278805E0
3.292988475E1;-4.134995937E0;-8.850598335E-1;5.776287079E0
3.293998075E1;-2.657295227E0;-1.067300320E0;4.981442451E0
3.295003875E1;-1.853389740E-1;-8.528647423E-1;5.040124416E0
3.296012475E1;3.628898144E0;2.047429085E-1;7.258386135E0
3.297993775E1;1.144452477E1;1.962400913E0;9.803355217E0
3.298994775E1;1.350126839E1;1.120291710E0;8.766031265E0
3.300035875E1;1.565451527E1;-2.296786547E0;5.744301796E0
3.301994575E1;2.221176910E1;-1.359970570E0;4.394963264E0
3.304002075E1;2.573823166E1;-9.836626053E-2;8.872283936E0
3.305045075E1;2.323624420E1;-1.620112658E0;1.078794479E1
3.306996075E1;1.446320915E1;-4.866366386E0;1.217187977E1
3.308989675E1;8.356590271E0;-6.520997047E0;8.261118889E0
3.311677975E1;1.452282429E0;-7.393867970E0;3.503820419E0
3.313003575E1;-6.354837418E-1;-7.464096069E0;2.468309164E0
3.314012275E1;-2.423959732E0;-7.541821480E0;2.498685360E0
3.315998875E1;-6.615940094E0;-8.499026299E0;2.363227844E0
3.318001775E1;-1.090866184E1;-1.006744194E1;2.906203270E-1
3.320016875E1;-1.387924194E1;-1.277705193E1;2.261734009E-2
3.321986175E1;-1.348127556E1;-1.323002720E1;-3.737158775E-1
3.323016575E1;-1.239476013E1;-1.285781860E1;-1.151968956E0
3.325025675E1;-8.435812950E0;-1.136858559E1;-1.061771393E0
3.326987575E1;-4.699672699E0;-1.055858326E1;1.405344963E0
3.329009675E1;-1.260967255E0;-1.014221764E1;3.663356543E0
3.330989175E1;4.040682316E0;-7.739605427E0;4.396773338E0
3.331994475E1;8.003284454E0;-5.598503113E0;4.015749454E0
3.332999475E1;1.273100662E1;-2.456327915E0;2.493273973E0
3.335008575E1;1.983790970E1;2.797799826E0;-2.744107723E0
3.337028775E1;3.084773254E1;5.710982800E0;6.403941154E0
3.339000675E1;2.873623466E1;4.559876442E0;1.805362511E1
3.340999275E1;1.292350006E1;1.674736500E0;1.298618507E1
3.342993875E1;1.897780895E0;1.393610001E0;6.849193573E0
3.344009675E1;-1.761783123E0;1.437168360E0;4.812275887E0
3.345046875E1;-3.509336948E0;1.563347578E0;4.830330849E0
3.346988475E1;-4.960377693E0;1.534039974E0;7.920310020E0
3.347991875E1;-5.801086426E0;1.528301954E0;9.475378990E0
3.349984375E1;-9.327221870E0;9.337158203E-1;9.806854248E0
3.350990975E1;-1.095657539E1;6.048521996E-1;9.255012512E0
3.352002075E1;-1.176964951E1;5.218963623E-1;8.643990517E0
3.353988175E1;-1.183565712E1;1.525342941E0;7.023987770E0
3.354990075E1;-1.258489895E1;1.385622025E0;5.847045898E0
