"Time (s)";"Gyroscope x (rad/s)";"Gyroscope y (rad/s)";"Gyroscope z (rad/s)"
3.345314800E-2;-4.703662544E-2;-1.307251677E-2;5.365840346E-2
5.333353700E-2;-7.269296050E-2;-4.789183661E-2;6.831917167E-2
6.339826800E-2;-7.696902007E-2;-6.621779501E-2;6.526484340E-2
8.332306700E-2;-7.574729621E-2;-6.866125762E-2;4.449542239E-2
1.040682660E-1;-7.147122920E-2;-5.216789246E-2;3.349985182E-2
1.235343160E-1;-4.276056588E-2;-3.872885555E-2;4.144109786E-2
1.337821580E-1;-2.871066704E-2;-3.933972120E-2;3.899763897E-2
1.535812890E-1;-2.871066704E-2;-6.316346675E-2;1.822821796E-2
1.638206440E-1;-5.131268129E-2;-7.660250366E-2;9.065240622E-3
1.834994110E-1;-1.276708394E-1;-1.328020990E-1;9.065240622E-3
2.033743520E-1;-1.863138974E-1;-1.822821796E-1;7.232644595E-3
2.233318380E-1;-1.643227488E-1;-1.554041207E-1;-9.260716848E-3
2.333794190E-1;-1.337794960E-1;-1.175304800E-1;-1.414763834E-2
2.433927090E-1;-7.574729621E-2;-5.155702680E-2;-1.903456077E-2
2.534228540E-1;-5.742133409E-2;-3.445279971E-2;-2.147802338E-2
2.734554630E-1;-6.841690838E-2;-6.743952632E-2;-2.086715773E-2
2.834582310E-1;-8.185593784E-2;-8.332201838E-2;-1.781282946E-2
3.033948070E-1;-9.346237779E-2;-1.089783609E-1;-8.649851196E-3
3.135349030E-1;-1.062905490E-1;-1.156978756E-1;-8.038987406E-3
3.335364750E-1;-1.618792862E-1;-1.621236354E-1;-1.109331194E-2
3.536863680E-1;-1.954768896E-1;-1.828930527E-1;-1.536936965E-2
3.734458420E-1;-1.386664063E-1;-1.334129721E-1;-1.231504325E-2
3.935017100E-1;-5.864306539E-2;-6.255260110E-2;-2.086715773E-2
4.134066770E-1;-3.909537569E-2;-7.476990670E-2;-3.858225048E-2
4.334751690E-1;-1.374446750E-1;-1.376890242E-1;-4.652349651E-2
4.436485840E-1;-1.814269871E-1;-2.116037160E-1;-3.674965352E-2
4.636508960E-1;-2.272418737E-1;-2.458121777E-1;-2.697581053E-2
4.834707240E-1;-2.003637999E-1;-2.158797681E-1;-5.507561192E-2
5.033909310E-1;-1.441642046E-1;-1.596801728E-1;-9.478184581E-2
5.134354650E-1;-1.240056455E-1;-1.321912408E-1;-1.173838675E-1
5.333908660E-1;-1.233947873E-1;-1.126435548E-1;-1.418184787E-1
5.434124330E-1;-1.374446750E-1;-1.230282634E-1;-1.412076056E-1
5.634668580E-1;-1.765400618E-1;-1.150870174E-1;-1.265468448E-1
5.833734640E-1;-1.899790913E-1;-5.705481395E-2;-1.063882858E-1
6.033781160E-1;-1.356120855E-1;-2.590068616E-2;-1.106643453E-1
6.133865580E-1;-1.160643995E-1;5.253441632E-3;-1.228816509E-1
6.234472790E-1;-1.288925707E-1;3.029891476E-2;-1.412076056E-1
6.433890690E-1;-3.029891551E-1;1.075122878E-2;-1.906876862E-1
6.634717670E-1;-3.628539443E-1;-9.065240622E-2;-1.741943359E-1
6.736178830E-1;-3.652974069E-1;-1.254717261E-1;-1.705291420E-1
6.934347200E-1;-3.426953852E-1;-9.737192094E-2;-1.961854845E-1
7.134054300E-1;-3.298672140E-1;-3.298672847E-3;-1.967963427E-1
7.335006070E-1;-3.707951903E-1;7.061602175E-2;-1.839681715E-1
7.533706510E-1;-3.921754658E-1;1.433089972E-1;-1.961854845E-1
7.642173250E-1;-3.860668242E-1;1.634675413E-1;-2.108462453E-1
7.836770810E-1;-4.214970171E-1;1.909564734E-1;-2.236744165E-1
8.035985200E-1;-4.404338300E-1;2.349387705E-1;-2.041267306E-1
8.234153800E-1;-3.866776824E-1;3.015230596E-1;-2.004615366E-1
8.433700950E-1;-2.064724565E-1;4.285830557E-1;-2.597154677E-1
8.533730470E-1;-1.295034289E-1;4.621806443E-1;-3.061412275E-1
8.634730230E-1;-5.375614017E-2;5.202128291E-1;-3.708929420E-1
8.833860050E-1;6.291912496E-2;6.491053700E-1;-5.315505266E-1
8.934260020E-1;9.834930301E-2;6.576575041E-1;-6.335650086E-1
9.035100010E-1;9.101891518E-2;5.770233274E-1;-7.716205716E-1
9.136040000E-1;2.321287617E-2;3.870442212E-1;-8.430917859E-1
9.337802500E-1;-2.205223590E-1;2.685363591E-1;-7.868921757E-1
9.534465620E-1;-4.453207552E-1;1.860695630E-1;-6.751038432E-1
9.733723900E-1;-4.025601745E-1;1.879021525E-1;-5.633155107E-1
9.833871950E-1;-3.579670191E-1;2.251649350E-1;-5.003963709E-1
1.003354298E0;-2.864958048E-1;4.908912778E-1;-3.171368241E-1
1.013495649E0;-2.919935882E-1;7.053049803E-1;-2.236744165E-1
1.033552162E0;-2.675589621E-1;1.044946074E0;-3.898297846E-1
1.043584081E0;-2.638937831E-1;9.252164960E-1;-4.460293651E-1
1.063504770E0;-2.816088796E-1;7.975456715E-1;-3.751690090E-1
1.083361192E0;-2.015855312E-1;9.148317575E-1;-3.678386211E-1
1.103324548E0;1.710422710E-2;1.081598043E0;-5.419352055E-1
1.113418274E0;1.215621829E-1;1.190942883E0;-5.737001896E-1
1.133414318E0;2.907718718E-1;1.384587169E0;-4.472511113E-1
1.154102579E0;3.689626157E-1;1.623435497E0;-3.843320012E-1
1.165134289E0;5.650503635E-1;1.714454412E0;-5.908044577E-1
1.183844822E0;6.597344875E-1;1.730947733E0;-7.868921757E-1
1.203549705E0;5.583308339E-1;1.546466470E0;-1.138139606E0
1.213751352E0;4.581489041E-2;1.509814501E0;-1.293910265E0
1.233446588E0;-2.510656118E-1;1.848844767E0;-1.623166680E0
1.253473897E0;-1.221730560E-1;2.116403818E0;-2.009844542E0
1.273413474E0;-3.781255782E-1;2.041878223E0;-2.108804703E0
1.283470237E0;-7.635815740E-1;1.941696286E0;-2.059324503E0
1.294183618E0;-1.105055213E0;1.798753738E0;-2.008622646E0
1.313915404E0;-1.169806957E0;2.062647581E0;-2.006790161E0
1.324239202E0;-9.553932548E-1;2.476814270E0;-2.068487644E0
1.343631050E0;-5.235115290E-1;3.265441179E0;-2.170501947E0
1.366213762E0;-1.478293896E0;2.989330053E0;-2.267629623E0
1.383335000E0;-1.478293896E0;2.989330053E0;-2.267629623E0
1.394667000E0;-1.729970336E0;2.638082743E0;-2.251747131E0
1.413380000E0;-1.574199677E0;2.346089125E0;-2.320163965E0
1.423399000E0;-1.278540969E0;2.417560339E0;-2.353150845E0
1.443357000E0;-5.809328556E-1;2.694282293E0;-2.333603144E0
1.463303000E0;-1.273043156E0;2.369302034E0;-2.480210781E0
1.473369000E0;-1.775174379E0;2.022330523E0;-2.513197422E0
1.483434000E0;-2.169182539E0;1.718119621E0;-2.538853884E0
1.493493000E0;-2.380541801E0;1.523253560E0;-2.602994680E0
1.513417000E0;-2.271807909E0;1.489045143E0;-2.781367302E0
1.523583000E0;-2.042122602E0;1.640539646E0;-2.868721008E0
1.543403000E0;-1.398270488E0;2.162218571E0;-3.074582577E0
1.563323000E0;-7.452555895E-1;2.618535042E0;-3.224244595E0
1.573640000E0;-4.740314186E-1;2.760866642E0;-3.248679161E0
1.593340000E0;-1.117883474E-1;2.827450752E0;-3.250511885E0
1.603456000E0;-1.710422710E-2;2.725436449E0;-3.265783310E0
1.623439000E0;1.221731305E-3;2.155498981E0;-3.172931910E0
1.647878000E0;-1.026253551E-1;1.744997621E0;-2.948133469E0
1.663348000E0;-2.052507252E-1;1.428569436E0;-2.681185484E0
1.673533000E0;-2.394591868E-1;1.304563761E0;-2.544351578E0
1.693390000E0;-2.840523422E-1;1.074878454E0;-2.253579617E0
1.713301000E0;-3.286454976E-1;7.529525161E-1;-1.913327694E0
1.723450000E0;-3.561344147E-1;5.910732150E-1;-1.759389639E0
1.743479000E0;-4.080579877E-1;2.422691733E-1;-1.529093385E0
1.763501000E0;-4.868595898E-1;-1.547932476E-1;-1.325675249E0
1.783272000E0;-6.291912198E-1;-5.384166241E-1;-1.113705039E0
1.793485000E0;-6.768386960E-1;-7.143458128E-1;-9.848124981E-1
1.813323000E0;-7.202101350E-1;-1.029552341E0;-6.812124848E-1
1.823456000E0;-7.550294399E-1;-1.170051336E0;-4.454185069E-1
1.843353000E0;-7.183775306E-1;-1.112019062E0;-2.933130562E-1
1.853491000E0;-6.658431292E-1;-1.036882639E0;-2.340591252E-1
1.874906000E0;-4.783074856E-1;-8.585100174E-1;-1.170417760E-2
1.893308000E0;-3.524692357E-1;-6.660874486E-1;-8.038987406E-3
1.910988000E0;-2.999348342E-1;-5.512447953E-1;1.761735417E-2
1.925926000E0;-1.032362282E-1;-3.985284865E-1;9.065240622E-3
1.938032000E0;-6.108652800E-3;-3.514918685E-1;-1.292590890E-2
1.953443500E0;3.213151395E-1;-2.494773567E-1;-9.417098016E-2
1.968468750E0;3.213151395E-1;-2.494773567E-1;-9.417098016E-2
1.985107000E0;3.579670489E-1;-2.171014994E-1;-8.134281635E-2
2.004492000E0;2.883284092E-1;-1.670105606E-1;-4.346917197E-2
2.014577000E0;2.883284092E-1;-1.670105606E-1;-4.346917197E-2
2.027237000E0;1.985311955E-1;1.481959075E-1;-7.279069722E-2
2.044956000E0;1.722639948E-1;3.345097899E-1;-2.365025878E-1
2.063443000E0;2.400700301E-1;5.073846579E-1;-5.639263988E-1
2.073536000E0;3.048217595E-1;5.825210810E-1;-7.471859455E-1
2.083633000E0;3.677408993E-1;6.558248997E-1;-8.693590164E-1
2.093738000E0;4.019493461E-1;7.150788307E-1;-8.797436953E-1
2.113360000E0;3.952298164E-1;7.498981357E-1;-7.807835340E-1
2.124434000E0;3.842342496E-1;7.486764193E-1;-7.459642291E-1
2.146508000E0;4.868596196E-1;7.700567245E-1;-6.989275813E-1
2.164398000E0;7.892379165E-1;7.822740078E-1;-7.661227584E-1
2.183323000E0;1.050077319E0;9.814161062E-1;-7.490185499E-1
2.193874000E0;1.188132882E0;1.141462803E0;-6.195151210E-1
2.213404000E0;1.518610954E0;1.592892170E0;2.155376971E-1
2.223580000E0;1.524108768E0;1.748662829E0;4.989791512E-1
2.233894000E0;1.443474531E0;1.890383601E0;7.524882555E-1
2.253405000E0;1.103833556E0;2.079140902E0;1.172152758E0
2.273631000E0;7.580837607E-1;2.237965822E0;1.503852487E0
2.283797000E0;6.487389207E-1;2.317378283E0;1.636410356E0
2.303270000E0;5.418374538E-1;2.443827391E0;1.790348291E0
2.313337000E0;5.314527750E-1;2.474370718E0;1.812339544E0
2.323451000E0;5.332853794E-1;2.468873024E0;1.812339544E0
2.343320000E0;6.707300544E-1;2.459709883E0;1.745755196E0
2.363301000E0;9.101892114E-1;2.422447205E0;1.734759569E0
2.373449000E0;9.749408960E-1;2.403510332E0;1.739646554E0
2.393318000E0;9.877691269E-1;2.330817461E0;1.793402672E0
2.413332000E0;1.006095052E0;2.109684229E0;1.795235276E0
2.423577000E0;1.037249207E0;2.049208641E0;1.736592174E0
2.443410000E0;1.079398870E0;1.944139719E0;1.640686393E0
2.463292000E0;9.657779932E-1;1.802418947E0;1.538061023E0
2.473417000E0;8.546004891E-1;1.741332412E0;1.497133017E0
2.495736000E0;6.090326309E-1;1.670472145E0;1.451318145E0
2.513282000E0;3.640756905E-1;1.683300257E0;1.285162807E0
2.523304000E0;2.474004179E-1;1.670472145E0;1.164211512E0
2.543363000E0;6.352998316E-2;1.741332412E0;9.754540324E-1
2.563771000E0;-4.948008433E-2;1.757214904E0;8.331224322E-1
2.583297000E0;-8.552113175E-2;1.504316688E0;6.694105864E-1
2.593566000E0;-6.047566235E-2;1.307618141E0;6.022154093E-1
2.613288000E0;1.081231385E-1;6.649879217E-1;3.871908188E-1
2.623302000E0;1.667662114E-1;4.994434118E-1;2.705155611E-1
2.633330000E0;2.620612085E-1;4.224743843E-1;1.599489599E-1
2.643432000E0;4.227187634E-1;4.188092053E-1;1.104688719E-1
2.663282000E0;8.301658630E-1;5.837427974E-1;7.687128335E-2
2.673366000E0;1.013425469E0;7.633371949E-1;4.266282916E-2
2.693325000E0;1.234558702E0;1.195218921E0;1.456302777E-2
2.713331000E0;1.222952247E0;1.589226961E0;5.793445930E-2
2.733266000E0;9.535606503E-1;1.922148585E0;6.526484340E-2
2.743411000E0;7.916813493E-1;1.991176367E0;4.789183848E-3
2.763302000E0;6.053674817E-1;1.885496616E0;-2.621589303E-1
2.773388000E0;6.499606371E-1;1.772486567E0;-4.105992019E-1
2.793375000E0;1.038470984E0;1.526307940E0;-6.793798804E-1
2.813348000E0;1.655444860E0;8.598539233E-1;-1.065446734E0
2.823961000E0;1.622458100E0;5.684711933E-1;-1.190063238E0
2.843522000E0;1.384220600E0;-6.438519806E-2;-1.403255105E0
2.863302000E0;1.206458926E0;-3.655417860E-1;-1.516265273E0
2.873306000E0;1.269988894E0;-1.853365153E-1;-1.521152139E0
2.883308000E0;1.454470158E0;2.807536423E-1;-1.486943722E0
2.893391000E0;1.750739813E0;9.496511221E-1;-1.428911448E0
2.913321000E0;2.387261391E0;2.192761898E0;-1.159519911E0
2.923401000E0;2.570520878E0;2.547063828E0;-1.018410087E0
2.933538000E0;2.631607533E0;2.658241272E0;-9.054000378E-1
2.953286000E0;2.333505154E0;2.182377100E0;-6.958732605E-1
2.963385000E0;1.966375351E0;1.667417765E0;-5.944696069E-1
2.973469000E0;1.480737329E0;1.105421782E0;-4.967312217E-1
2.994493000E0;1.453859210E-1;-7.660250366E-2;-1.644204855E-1
3.016758000E0;-1.502728462E-1;-3.844785988E-1;-7.523415983E-2
3.033328000E0;-1.117883474E-1;-3.881437778E-1;-1.454836577E-1
3.043459000E0;-2.443461120E-2;-3.777590692E-1;-2.334482521E-1
3.063410000E0;1.789835095E-1;-4.522846341E-1;-4.203730524E-1
3.083294000E0;2.064724416E-1;-6.031683683E-1;-4.820704162E-1
3.093860000E0;1.533271670E-1;-7.064045668E-1;-4.655770659E-1
3.113321000E0;-7.208210230E-2;-9.421985745E-1;-3.886080384E-1
3.124307000E0;-2.302961946E-1;-1.028330564E0;-3.678386211E-1
3.143274000E0;-4.013384581E-1;-1.080254078E0;-3.036977649E-1
3.153304000E0;-3.909537494E-1;-1.058262944E0;-2.462764233E-1
3.173662000E0;-2.669481039E-1;-9.421985745E-1;-1.234925091E-1
3.193344000E0;-1.588249765E-2;-8.823337555E-1;-7.156896591E-2
3.213433000E0;2.076941729E-2;-9.825156927E-1;-1.570900977E-1
3.223555000E0;2.321287617E-2;-1.065593362E0;-2.029049993E-1
3.243582000E0;7.330384105E-3;-1.225029230E0;-2.810957730E-1
3.263375000E0;6.719518453E-3;-1.243965983E0;-2.963674068E-1
3.273561000E0;2.871066704E-2;-1.190820694E0;-2.865935564E-1
3.293400000E0;5.375614390E-2;-1.026497960E0;-2.389460355E-1
3.313360000E0;5.558873340E-2;-8.597317338E-1;-1.839681715E-1
3.326278000E0;4.459315911E-2;-7.839844823E-1;-1.656422168E-1
3.343314000E0;3.420845047E-2;-5.995031595E-1;-1.546466500E-1
3.363258000E0;-4.886921495E-3;-4.070806205E-1;-2.102353871E-1
3.373297000E0;-1.710422710E-2;-2.971248627E-1;-2.646023929E-1
3.383711000E0;5.742133036E-2;-1.694540083E-1;-3.770016134E-1
3.403350000E0;2.205223590E-1;3.027448058E-1;-4.228165150E-1
3.423474000E0;3.139847517E-1;5.977927446E-1;-3.788341880E-1
3.443356000E0;2.480112761E-1;7.926587462E-1;-3.269106448E-1
3.453418000E0;1.551597714E-1;8.500800729E-1;-3.030869067E-1
3.463418000E0;6.536258757E-2;8.934515119E-1;-3.043086529E-1
3.473568000E0;-1.221731305E-3;9.588140845E-1;-3.385170996E-1
3.493463000E0;1.356120855E-1;1.282572627E0;-5.437678099E-1
3.503782000E0;3.762930036E-1;1.484769106E0;-6.488366127E-1
3.523415000E0;9.755518436E-1;1.803029895E0;-6.647191644E-1
3.533738000E0;1.205847979E0;1.890994430E0;-5.969130993E-1
3.553307000E0;1.180191636E0;1.792034268E0;-4.362555444E-1
3.563376000E0;9.279043078E-1;1.625268102E0;-3.843320012E-1
3.573386000E0;6.456845999E-1;1.416962981E0;-3.727255464E-1
3.593395000E0;1.221730560E-2;5.324301124E-1;-7.111449242E-1
3.613324000E0;-6.658431143E-2;1.769065857E-1;-1.296353698E0
3.623378000E0;5.558873340E-2;1.109331250E-1;-1.614003658E0
3.643360000E0;5.766568184E-1;2.569299042E-1;-2.008011818E0
3.663470000E0;1.312749386E0;4.927238822E-1;-1.901110291E0
3.673471000E0;1.712255239E0;5.880188942E-1;-1.727624655E0
3.693407000E0;2.172236919E0;1.024176717E0;-1.288412452E0
3.713274000E0;2.100154638E0;1.594113946E0;-8.608068824E-1
3.723383000E0;1.857641220E0;1.769432306E0;-6.195151210E-1
3.743295000E0;1.152702689E0;1.700404525E0;-1.045556962E-1
3.753445000E0;7.666358948E-1;1.498818994E0;1.190209836E-1
3.763671000E0;3.506366611E-1;1.226983905E0;3.028914034E-1
3.783522000E0;-6.072000265E-1;6.179512739E-1;7.708141804E-1
3.793639000E0;-7.373143435E-1;6.393315792E-1;8.508375287E-1
3.813459000E0;-7.953465581E-1;1.083430529E0;9.815626740E-1
3.833405000E0;-5.742133260E-1;1.796921253E0;1.148329020E0
3.853326000E0;-1.081231534E-1;2.332649946E0;1.299212694E0
3.863659000E0;1.203404516E-1;2.405343056E0;1.263782501E0
3.878573000E0;3.921754956E-1;2.036380291E0;1.064029574E0
3.893439000E0;3.878994286E-1;1.734612942E0;9.742323160E-1
3.903531000E0;3.109304309E-1;1.432845473E0;9.326934814E-1
3.923441000E0;8.979718387E-2;9.960768223E-1;1.030431986E0
3.943609000E0;2.443458885E-3;9.111666083E-1;1.196587324E0
3.964393000E0;1.710422710E-2;1.044335246E0;1.305321336E0
3.983406000E0;2.131919712E-1;1.414519548E0;1.196587324E0
3.993786000E0;2.742784917E-1;1.531805634E0;1.122672677E0
4.005491000E0;3.200933933E-1;1.631376743E0;1.038373232E0
4.024289000E0;3.139847517E-1;1.732780337E0;8.654983044E-1
4.043458000E0;3.127630055E-1;1.719341278E0;7.708141804E-1
4.054145000E0;3.488040566E-1;1.702847958E0;7.702033520E-1
4.065227000E0;4.037819505E-1;1.691241503E0;7.805880308E-1
4.083359000E0;5.064073205E-1;1.687576294E0;7.708141804E-1
4.093489000E0;5.192354918E-1;1.668639541E0;7.866966724E-1
4.113398000E0;4.825835824E-1;1.575788021E0;8.575570583E-1
4.123407000E0;4.337143302E-1;1.492710352E0;8.679417372E-1
4.143519000E0;4.086688459E-1;1.393750191E0;8.422853947E-1
4.163333000E0;5.332853794E-1;1.310061574E0;8.025791645E-1
4.174441000E0;4.954117537E-1;1.187277675E0;7.744793892E-1
4.194779000E0;3.426954150E-1;1.093815327E0;7.445470095E-1
4.213478000E0;2.651155293E-1;1.219653487E0;6.736866236E-1
4.224017000E0;2.467895597E-1;1.361985087E0;6.785735488E-1
4.243510000E0;3.194825351E-1;1.590448737E0;8.105204105E-1
4.263348000E0;3.316998482E-1;1.619770288E0;7.256101370E-1
4.273615000E0;3.451388776E-1;1.529973030E0;6.406998634E-1
4.293378000E0;3.084869683E-1;1.299676895E0;5.026443601E-1
4.313662000E0;2.003637999E-1;1.009515882E0;4.751554132E-1
4.333366000E0;1.991420686E-1;7.621154785E-1;4.812640548E-1
4.343502000E0;1.930334121E-1;7.211874723E-1;4.244535863E-1
4.363298000E0;2.528982162E-1;8.427496552E-1;3.267151415E-1
4.373494000E0;5.009095073E-1;9.154426455E-1;3.493171632E-1
4.393440000E0;9.126327038E-1;1.007683277E0;3.096109331E-1
4.413398000E0;1.151481032E0;1.046778679E0;2.570765316E-1
4.433556000E0;1.129489899E0;9.765291810E-1;1.862161607E-1
4.453320000E0;9.761626720E-1;8.103738427E-1;-2.147802338E-2
4.463327000E0;9.138544202E-1;7.114136815E-1;-1.662530750E-1
4.473801000E0;8.576548100E-1;5.910732150E-1;-3.269106448E-1
4.493324000E0;7.324274182E-1;2.587625086E-1;-6.922080517E-1
4.513510000E0;5.363397002E-1;-9.407324716E-3;-1.075831413E0
4.533282000E0;4.838052988E-1;-2.036624700E-1;-1.402033448E0
4.543363000E0;4.789183736E-1;-2.262644768E-1;-1.539478064E0
4.553649000E0;4.673119187E-1;-2.262644768E-1;-1.644546986E0
4.573745000E0;3.384193480E-1;-3.411071599E-1;-1.843078136E0
4.593363000E0;2.443460971E-1;-2.238210291E-1;-2.131406546E0
4.613403000E0;5.161811709E-1;5.397605300E-1;-2.513808250E0
4.623579000E0;8.912523985E-1;1.024176717E0;-2.602383852E0
4.643341000E0;1.739744186E0;1.848233819E0;-2.336046457E0
4.663996000E0;2.006692410E0;2.087082148E0;-1.609727621E0
4.683443000E0;1.339016676E0;1.452393174E0;-8.889066577E-1
4.693689000E0;7.391469479E-1;9.111666083E-1;-6.439497471E-1
4.713473000E0;-4.386012256E-1;-2.842966914E-1;-4.423641860E-1
4.723595000E0;-8.161159754E-1;-7.968126535E-1;-4.466402531E-1
4.743313000E0;-1.078177094E0;-1.265346289E0;-4.637444615E-1
4.753317000E0;-1.009149432E0;-1.269011497E0;-4.435859323E-1
4.763399000E0;-6.530149579E-1;-1.047267437E0;-4.020470679E-1
4.773471000E0;-4.783074856E-1;-8.585100174E-1;-3.922732472E-1
4.793442000E0;-2.761110961E-1;-4.412890673E-1;-3.708929420E-1
4.803799000E0;-2.272418737E-1;-2.629164159E-1;-3.568430543E-1
4.823395000E0;-2.009746730E-1;2.785545588E-2;-3.183585405E-1
4.844513000E0;-1.569923759E-1;1.555262953E-1;-2.664349973E-1
4.863365000E0;-1.417207420E-1;7.611380517E-2;-2.297830731E-1
4.873409000E0;-1.313360333E-1;-1.001819037E-2;-2.255070060E-1
4.893772000E0;-8.368854225E-2;-1.822821796E-1;-2.365025878E-1
4.913313000E0;-1.771509275E-2;-2.568077445E-1;-2.432221025E-1
4.923367000E0;1.710422710E-2;-2.519208193E-1;-2.383351773E-1
4.933387000E0;3.237586096E-2;-2.207666934E-1;-2.212309539E-1
4.953384000E0;-1.954768784E-2;-1.382998824E-1;-1.216599196E-1
4.963676000E0;-8.307766914E-2;-8.698721230E-2;3.105638921E-2
4.974175000E0;-1.258382350E-1;-1.022588462E-1;8.053647727E-2
4.993412000E0;-1.875356287E-1;-1.810604483E-1;7.992561162E-2
5.005514000E0;-1.734857410E-1;-2.158797681E-1;4.571715370E-2
5.018813500E0;-7.330383360E-2;-2.238210291E-1;-5.751907453E-2
5.033330000E0;-2.504547499E-2;-1.944994926E-1;-8.195368201E-2
5.043437000E0;2.443458885E-3;-1.621236354E-1;-6.912551075E-2
5.053470000E0;2.443460748E-2;-1.248608530E-1;-3.125186637E-2
5.063479000E0;4.337143525E-2;-7.293730974E-2;2.678033337E-2
5.077231000E0;5.131268129E-2;1.136209257E-2;8.908858895E-2
5.093563000E0;2.932153270E-2;1.646892726E-1;1.477316469E-1
5.113374000E0;-1.404990070E-2;2.098933011E-1;1.153557971E-1
5.123412000E0;-5.497787148E-3;2.098933011E-1;9.397551417E-2
5.143761000E0;2.687807009E-2;1.665218621E-1;4.327369481E-2
5.163404000E0;1.099557430E-2;1.353677362E-1;-2.575407922E-2
5.173451000E0;1.099557430E-2;1.646892726E-1;-3.552792221E-2
5.183804000E0;3.054326400E-2;2.050063759E-1;-3.308446333E-2
5.203314000E0;1.374446750E-1;3.595552742E-1;-7.086033002E-4
5.213316000E0;2.241875380E-1;4.298047721E-1;2.006081492E-2
5.223690000E0;2.944370508E-1;5.024977326E-1;2.494773641E-2
5.243442000E0;3.433062732E-1;6.252816319E-1;-1.319468953E-3
5.263403000E0;3.286455274E-1;6.827029586E-1;-1.109331194E-2
5.273744000E0;2.993239760E-1;6.710965633E-1;-1.536936965E-2
5.293384000E0;3.145956099E-1;6.594901085E-1;-6.607118249E-2
5.313423000E0;4.721988440E-1;7.663915157E-1;-1.387641430E-1
5.323448000E0;5.522221923E-1;8.128172755E-1;-1.705291420E-1
5.343538000E0;6.566801667E-1;8.311432600E-1;-2.279504687E-1
5.363376000E0;3.915646374E-1;5.293757915E-1;-3.867754638E-1
5.373393000E0;3.029891849E-1;4.408003390E-1;-4.655770659E-1
5.383412000E0;2.596177459E-1;3.381749988E-1;-5.132245421E-1
5.393711000E0;2.266310006E-1;2.361605018E-1;-5.394917727E-1
5.413359000E0;1.007927656E-1;7.977899909E-2;-5.706458688E-1
5.433442000E0;-3.665190190E-3;-2.223549411E-2;-7.429099083E-1
5.453276000E0;-3.420845419E-2;1.319468953E-2;-1.133863568E0
5.463389000E0;3.054326400E-2;8.307768032E-3;-1.353775024E0
5.483510000E0;2.150245756E-1;-1.718974710E-1;-1.760000467E0
5.503282000E0;4.031710625E-1;-3.808134198E-1;-1.907829881E0
5.513414000E0;5.363397002E-1;-3.398854434E-1;-1.880340934E0
5.533348000E0;7.617489696E-1;1.258382387E-2;-1.664705515E0
5.543844000E0;8.674286604E-1;3.112969100E-1;-1.306738496E0
5.563616000E0;9.224065542E-1;9.612575173E-1;-8.424808979E-1
5.583376000E0;4.361577928E-1;8.256454468E-1;-3.873863220E-1
5.603355000E0;-1.411098689E-1;4.462981224E-1;-4.652349651E-2
5.613531000E0;-3.323106766E-1;3.235142231E-1;6.221051514E-2
5.623909000E0;-4.324925840E-1;2.929709554E-1;1.220753118E-1
5.643432000E0;-3.408628106E-1;4.951673746E-1;1.947682798E-1
5.663731000E0;-1.734857410E-1;6.900333762E-1;3.316020668E-1
5.683441000E0;-5.436700583E-2;7.676132321E-1;4.989791512E-1
5.694148000E0;-5.009094998E-2;7.841066122E-1;5.826677084E-1
5.713382000E0;-6.719517708E-2;8.720712066E-1;6.999537945E-1
5.723416000E0;-4.581489414E-2;9.459859133E-1;7.390491962E-1
5.734030000E0;-2.687807009E-2;1.035172224E0;8.251811862E-1
5.753398000E0;-6.658431143E-2;1.170173407E0;9.449107647E-1
5.763595000E0;-1.215621829E-1;1.140241027E0;9.895039201E-1
5.783398000E0;-3.255911767E-1;9.557597637E-1;1.031042814E0
5.793736000E0;-4.190535545E-1;8.409171104E-1;1.065251350E0
5.813465000E0;-5.320636034E-1;6.203947067E-1;1.206972003E0
5.823739000E0;-5.436700583E-1;5.648059845E-1;1.290660620E0
5.843412000E0;-4.978551567E-1;5.990144610E-1;1.409168482E0
5.853439000E0;-4.386012256E-1;6.778160930E-1;1.426272631E0
5.875839000E0;-2.883283794E-1;9.398772717E-1;1.385955572E0
5.893360000E0;-1.087340117E-1;1.322889805E0;1.351136208E0
5.903416000E0;-9.773844853E-3;1.524475336E0;1.335253716E0
5.913847000E0;8.185593784E-2;1.713843465E0;1.321203828E0
5.923997000E0;1.649336070E-1;1.882442355E0;1.310819149E0
5.943559000E0;3.017674387E-1;2.130453587E0;1.350525379E0
5.963757000E0;3.182607889E-1;2.145725250E0;1.394507647E0
5.983329000E0;2.907718718E-1;2.118236303E0;1.430548668E0
5.993687000E0;2.645046711E-1;2.066923618E0;1.445820332E0
6.003800000E0;2.339613885E-1;1.998506784E0;1.455594182E0
6.023374000E0;1.490511149E-1;1.786536455E0;1.443987727E0
6.033376000E0;1.240056455E-1;1.672915578E0;1.417720556E0
6.044767000E0;1.166752577E-1;1.555629373E0;1.374349117E0
6.063395000E0;1.392772645E-1;1.353433013E0;1.273556352E0
6.073433000E0;1.472185254E-1;1.277685761E0;1.223465443E0
6.083591000E0;1.521054357E-1;1.228816509E0;1.178261399E0
6.103358000E0;1.582140923E-1;1.190942883E0;1.123283505E0
6.124028000E0;7.269296050E-2;1.166508317E0;1.064640403E0
6.143537000E0;-6.108656526E-4;1.077932835E0;9.858387709E-1
6.163328000E0;3.604104742E-2;1.046167850E0;8.868786097E-1
6.173926000E0;9.407325089E-2;1.044335246E0;8.551135659E-1
6.193392000E0;3.756821454E-1;1.005850673E0;8.062443733E-1
6.203452000E0;5.992588401E-1;9.728639722E-1;7.494339347E-1
6.213618000E0;8.093964458E-1;9.380446672E-1;6.553606391E-1
6.233347000E0;9.492846131E-1;8.598539233E-1;5.661743283E-1
6.243566000E0;8.405506015E-1;8.207585216E-1;5.741155744E-1
6.263548000E0;5.082398653E-1;8.396953344E-1;4.934813678E-1
6.283801000E0;4.825835824E-1;9.808052182E-1;1.593380868E-1
6.293969000E0;5.852088928E-1;1.041891694E0;-6.851464510E-2
6.313705000E0;7.855727077E-1;9.661444426E-1;-6.836559772E-1
6.333582000E0;7.183775306E-1;3.253468275E-1;-1.623166680E0
6.344443000E0;5.955936313E-1;4.434881732E-2;-1.857128024E0
6.363376000E0;3.915646374E-1;-3.722612858E-1;-2.240751505E0
6.373688000E0;4.074471295E-1;-4.089131951E-1;-2.365978956E0
6.393889000E0;6.866125464E-1;-1.529606581E-1;-2.502812624E0
6.413412000E0;1.020755887E0;4.725653529E-1;-2.458219528E0
6.423897000E0;1.220508814E0;8.873428702E-1;-2.354372501E0
6.443363000E0;1.633453727E0;1.545855522E0;-1.869956255E0
6.463356000E0;1.519832730E0;1.318613648E0;-1.193117499E0
6.473380000E0;1.078788042E0;8.549669981E-1;-8.748567700E-1
6.483761000E0;4.715879560E-1;2.135584950E-1;-6.329541206E-1
6.503524000E0;-6.701191664E-1;-1.029552341E0;-4.142643809E-1
6.524128000E0;-1.149037480E0;-1.441886306E0;-4.002144933E-1
6.544171000E0;-8.081747293E-1;-9.324247241E-1;-4.802378416E-1
6.563406000E0;-4.019493163E-1;-3.899763823E-1;-5.431569815E-1
6.573525000E0;-2.510656118E-1;-2.079385221E-1;-5.443786979E-1
6.583721000E0;-1.582140923E-1;-1.047023088E-1;-5.168897510E-1
6.603405000E0;-7.330383360E-2;-8.210028708E-2;-4.277034104E-1
6.613421000E0;-6.963863969E-2;-1.346347034E-1;-3.867754638E-1
6.623437000E0;-7.880161703E-2;-2.109928578E-1;-3.568430543E-1
6.643700000E0;-6.963863969E-2;-3.899763823E-1;-3.385170996E-1
6.663309000E0;-8.552113548E-3;-5.390275121E-1;-3.574539125E-1
6.673638000E0;3.543018177E-2;-5.793446302E-1;-3.678386211E-1
6.693459000E0;1.172861159E-1;-5.530773997E-1;-3.226346076E-1
6.713285000E0;1.014036238E-1;-4.241848290E-1;-1.864116341E-1
6.723367000E0;2.504547313E-2;-3.521027267E-1;-1.039448306E-1
6.733377000E0;2.138028294E-2;-1.731192023E-1;-8.256454021E-2
6.743700000E0;3.665191308E-2;-9.309586883E-2;-5.690820888E-2
6.763406000E0;1.026253551E-1;-1.551597752E-2;-3.762929700E-3
6.776834000E0;1.203404516E-1;-2.687807195E-3;2.006081492E-2
6.793734000E0;1.478293836E-1;1.380555518E-2;2.983465791E-2
6.813394000E0;1.850921661E-1;9.566149116E-2;3.716504201E-2
6.824483000E0;2.144136876E-1;1.543045640E-1;4.205196351E-2
6.843428000E0;2.742784917E-1;3.308446109E-1;4.693888500E-2
6.853445000E0;2.919935882E-1;4.218635261E-1;5.549099669E-2
6.873790000E0;2.681698501E-1;5.965709686E-1;5.610186234E-2
6.893512000E0;2.565634251E-1;7.126353979E-1;4.938234389E-2
6.913363000E0;2.449569553E-1;7.670024037E-1;9.676105343E-3
6.923610000E0;2.791654170E-1;7.230200768E-1;-3.552792221E-2
6.943580000E0;3.200933933E-1;5.941275358E-1;-4.957782477E-2
6.963334000E0;3.207042515E-1;4.371351600E-1;-3.613878787E-2
6.973801000E0;3.164282143E-1;4.010941088E-1;-1.170417760E-2
6.993277000E0;3.194825351E-1;3.986506462E-1;1.055819541E-1
7.005612000E0;2.883284092E-1;3.815464079E-1;1.703336686E-1
7.023664000E0;1.667662114E-1;2.667037547E-1;1.349034756E-1
7.043441000E0;2.516764998E-1;2.074498385E-1;-9.905790538E-2
7.063336000E0;4.532620311E-1;1.390329301E-1;-1.735834628E-1
7.073365000E0;4.770857692E-1;6.450736523E-2;-1.558683664E-1
7.083383000E0;4.233296216E-1;-6.010913849E-2;-1.839681715E-1
7.103366000E0;2.278527468E-1;-1.999972761E-1;-3.543995917E-1
7.113630000E0;1.240056455E-1;-2.513099611E-1;-5.694241524E-1
7.133471000E0;-6.719517708E-2;-4.663345516E-1;-9.176173210E-1
7.153311000E0;-5.558873713E-2;-5.542991161E-1;-1.278027773E0
7.163465000E0;1.160643995E-2;-5.506339669E-1;-1.421581149E0
7.174190000E0;1.881464869E-1;-4.229631126E-1;-1.568188787E0
7.193455000E0;8.820894361E-1;1.811826378E-1;-1.626831889E0
7.213361000E0;1.502117634E0;1.006461620E0;-1.202891350E0
7.223366000E0;1.599856138E0;1.350989580E0;-9.396085143E-1
7.243371000E0;1.326188445E0;1.744997621E0;-5.914152861E-1
7.263346000E0;7.171558142E-1;1.621602893E0;-1.790812463E-1
7.283512000E0;2.260201424E-2;9.337686300E-1;3.108326495E-1
7.303282000E0;-5.833762884E-1;2.392148226E-1;6.132109761E-1
7.313354000E0;-7.116580009E-1;-8.820894361E-2;7.842532396E-1
7.323713000E0;-6.243042946E-1;-6.682865322E-2;8.105204105E-1
7.343370000E0;-3.652974069E-1;2.807536423E-1;8.410636783E-1
7.363445000E0;-2.516764700E-1;8.879536986E-1;1.009662509E0
7.373898000E0;-2.926044464E-1;1.204381943E0;1.155659318E0
7.393405000E0;-4.019493163E-1;1.696739316E0;1.346860170E0
7.413567000E0;-4.502076805E-1;1.953913569E0;1.376792550E0
7.423868000E0;-4.105014205E-1;2.005837202E0;1.373738289E0
7.443602000E0;-2.474004328E-1;1.940474510E0;1.361520886E0
7.463400000E0;-1.227839142E-1;1.708345771E0;1.352968812E0
7.473642000E0;-1.087340117E-1;1.577620625E0;1.368851304E0
7.493428000E0;-1.826487184E-1;1.427958608E0;1.494689584E0
7.503775000E0;-2.058615983E-1;1.458501816E0;1.655957937E0
7.523529000E0;-5.314527452E-2;1.822577477E0;1.800122142E0
7.543355000E0;9.224064648E-2;2.095634222E0;1.847158790E0
7.553374000E0;1.386664063E-1;2.165272951E0;1.857543468E0
7.563397000E0;1.600466967E-1;2.187264204E0;1.874647737E0
7.573595000E0;1.582140923E-1;2.181155443E0;1.902136683E0
7.593550000E0;1.117883325E-1;2.143281698E0;1.938788652E0
7.613324000E0;1.105666012E-1;2.058982372E0;1.918630004E0
7.623717000E0;1.356120855E-1;1.988732815E0;1.897249818E0
7.633845000E0;1.521054357E-1;1.904433489E0;1.874647737E0
7.653374000E0;1.624901444E-1;1.808527589E0;1.816004634E0
7.663414000E0;1.692096740E-1;1.782871246E0;1.776298404E0
7.673497000E0;1.747074574E-1;1.759047508E0;1.734759569E0
7.693381000E0;1.991420686E-1;1.693684936E0;1.630912542E0
7.703386000E0;2.193006128E-1;1.661919951E0;1.500798225E0
7.723476000E0;2.186897546E-1;1.545244694E0;1.394507647E0
7.743511000E0;1.673770696E-1;1.398026228E0;1.298601866E0
7.763345000E0;9.834930301E-2;1.214766622E0;1.195365548E0
7.773361000E0;7.757988572E-2;1.129245520E0;1.150161624E0
7.793624000E0;5.436700955E-2;1.005850673E0;1.067694783E0
7.813371000E0;4.337143525E-2;8.787907362E-1;9.601824284E-1
7.823696000E0;5.253441259E-2;7.688350081E-1;8.893220425E-1
7.843769000E0;7.147122920E-2;4.194200635E-1;7.280536294E-1
7.863339000E0;6.108652428E-2;9.566149116E-2;5.680069327E-1
7.873681000E0;8.368854225E-2;-8.148942888E-2;4.922596514E-1
7.893391000E0;9.346237779E-2;-4.144110084E-1;4.757662714E-1
7.903565000E0;-4.398229718E-2;-6.123313308E-1;6.309260726E-1
7.913614000E0;-1.264491081E-1;-5.940053463E-1;7.891401649E-1
7.923834000E0;-1.808161139E-1;-5.011538267E-1;9.565172195E-1
7.943399000E0;-1.514945775E-1;1.502728462E-2;1.180094004E0
7.963715000E0;1.142317951E-1;6.717073917E-1;1.136111617E0
7.983430000E0;3.543018401E-1;1.030285358E0;8.331224322E-1
7.996038000E0;4.367686510E-1;1.092593551E0;5.356310606E-1
8.013359000E0;5.241224170E-1;9.417098761E-1;-2.652132809E-1
8.023363000E0;5.705481768E-1;8.005999923E-1;-6.463931799E-1
8.043393000E0;7.189884186E-1;4.603480399E-1;-1.215108633E0
8.053535000E0;7.556403279E-1;2.752558589E-1;-1.423413754E0
8.073454000E0;7.385361195E-1;-1.926668882E-1;-1.835747719E0
8.093560000E0;6.695083380E-1;-6.257703900E-1;-2.378807068E0
8.113498000E0;9.046914577E-1;-3.771482110E-1;-3.008609056E0
8.133330000E0;1.155146241E0;-9.407324716E-3;-3.063586950E0
8.143559000E0;1.239445567E0;1.060461998E-1;-2.996391773E0
8.153966000E0;1.268767118E0;1.164309233E-1;-2.867499352E0
8.173347000E0;1.169806957E0;-4.300491512E-2;-2.468604326E0
8.183532000E0;1.001208186E0;-2.531425655E-1;-2.168669462E0
8.204141000E0;3.262020648E-1;-7.131240964E-1;-1.466785192E0
8.223334000E0;-4.752531648E-1;-1.086362720E0;-9.145630002E-1
8.244217000E0;-9.761626720E-1;-1.159055710E0;-6.781581640E-1
8.263345000E0;-1.121548533E0;-9.128770232E-1;-7.258056402E-1
8.283372000E0;-8.026769161E-1;-4.632802010E-1;-9.182282090E-1
8.303719000E0;1.227839142E-1;1.622458100E-1;-1.177235007E0
8.323599000E0;4.630358815E-1;1.665218621E-1;-1.147302628E0
8.343367000E0;3.262020648E-1;3.274237737E-2;-9.383867383E-1
8.363383000E0;6.414085627E-2;-1.382998824E-1;-7.117557526E-1
8.373410000E0;-8.491027355E-2;-2.067167908E-1;-6.103521585E-1
8.383528000E0;-2.247984111E-1;-2.616946697E-1;-5.358265638E-1
8.394088000E0;-3.109304011E-1;-2.537534237E-1;-4.997855425E-1
8.413390000E0;-2.901609838E-1;-1.883908361E-1;-4.423641860E-1
8.423432000E0;-2.596177161E-1;-1.657888293E-1;-4.008253515E-1
8.443439000E0;-2.254092842E-1;-1.156978756E-1;-3.849428594E-1
8.463351000E0;-1.673770845E-1;-3.933972120E-2;-4.258708358E-1
8.473356000E0;-1.252273768E-1;-4.520403221E-3;-4.209839106E-1
8.493382000E0;-4.031710699E-2;6.145304069E-2;-2.786523104E-1
8.503596000E0;-2.076941915E-2;8.588765562E-2;-2.444438189E-1
8.523576000E0;7.024949789E-2;9.077458084E-2;-2.029049993E-1
8.543431000E0;1.386664063E-1;7.122689486E-2;-1.485379934E-1
8.563422000E0;1.325577497E-1;5.229006335E-2;-4.896695912E-2
8.583553000E0;-4.276055843E-3;-3.078760765E-2;6.343224645E-2
8.603500000E0;-1.319468915E-1;-8.820894361E-2;1.391795427E-1
8.623540000E0;-1.056796908E-1;-6.805038452E-2;1.886596233E-1
8.643356000E0;6.719518453E-3;-5.033529550E-2;2.082073092E-1
8.663482000E0;1.087340117E-1;-5.583308265E-2;1.287948340E-1
8.683495000E0;2.626720667E-1;-5.888741091E-2;-1.536936965E-2
8.693588000E0;4.172209799E-1;-1.734857261E-2;-9.356011450E-2
8.713646000E0;4.636467099E-1;4.923573881E-2;-1.442619264E-1
8.733319000E0;4.642575979E-1;1.701870561E-1;-2.035158575E-1
8.743686000E0;4.899139404E-1;2.502104044E-1;-2.383351773E-1
8.763350000E0;6.407976747E-1;4.206418097E-1;-3.427931666E-1
8.783337000E0;8.258898258E-1;6.057339907E-1;-4.350337982E-1
8.793434000E0;8.949176073E-1;6.918659806E-1;-4.533597529E-1
8.813713000E0;9.297369123E-1;7.767762542E-1;-4.014362097E-1
8.833370000E0;7.049385309E-1;7.370699644E-1;-1.876333654E-1
8.853314000E0;3.622431159E-1;6.570466757E-1;7.748214900E-2
8.863327000E0;2.791654170E-1;6.790378094E-1;1.520077139E-1
8.873410000E0;3.054326475E-1;7.352374196E-1;1.703336686E-1
8.893325000E0;8.460483551E-1;1.088928342E0;-1.964542642E-2
8.903407000E0;1.026253581E0;1.108476043E0;-1.210490614E-1
8.913452000E0;1.068403363E0;1.037004828E0;-1.858007759E-1
8.923829000E0;9.517280459E-1;9.252164960E-1;-2.053484619E-1
8.945196000E0;5.668829679E-1;4.359134138E-1;-4.209839106E-1
8.955486000E0;4.337143302E-1;1.084896624E-1;-6.482257843E-1
8.973403000E0;3.726278245E-1;-4.296826124E-1;-1.337281704E0
8.993484000E0;7.666358948E-1;-3.447723687E-1;-1.855906248E0
9.013332000E0;1.463633180E0;9.260717034E-2;-1.872399688E0
9.023374000E0;1.751350641E0;3.057991266E-1;-1.757557034E0
9.033644000E0;1.875967145E0;4.169766009E-1;-1.566967010E0
9.053626000E0;1.519832730E0;2.856405675E-1;-1.080107450E0
9.073375000E0;7.232644558E-1;-3.445279971E-2;-6.176825166E-1
9.083390000E0;7.391469181E-2;-2.223549411E-2;2.189341001E-2
9.096108000E0;-9.285151958E-2;1.091005355E-1;3.462628424E-1
9.113353000E0;-1.435533315E-1;4.450764060E-1;8.050226569E-1
9.123517000E0;-1.142317951E-1;5.794667602E-1;9.345260859E-1
9.143379000E0;3.298671916E-2;7.834957242E-1;1.069527388E0
9.163337000E0;2.046398520E-1;8.427496552E-1;1.122672677E0
9.173533000E0;2.364048511E-1;8.934515119E-1;1.148329020E0
9.193464000E0;1.172861159E-1;1.077932835E0;1.330366850E0
9.213451000E0;-1.337794960E-1;1.104810834E0;1.536839247E0
9.223898000E0;-3.268128932E-1;1.044335246E0;1.600369215E0
9.243489000E0;-7.544185519E-1;9.392663836E-1;1.691999078E0
9.263349000E0;-1.054353356E0;1.089539289E0;1.777520180E0
9.273731000E0;-1.226006508E0;1.409021735E0;2.025531292E0
9.293433000E0;-1.317025423E0;1.573344469E0;2.162365198E0
9.313434000E0;-1.304197311E0;1.500651598E0;2.116550207E0
9.333474000E0;-1.085507512E0;1.215377450E0;1.954060197E0
9.343550000E0;-9.254608154E-1;1.047389507E0;1.876480341E0
9.363318000E0;-6.676756740E-1;7.633371949E-1;1.773244143E0
9.373345000E0;-6.462954283E-1;6.906442642E-1;1.723153114E0
9.383553000E0;-6.621779203E-1;6.808704138E-1;1.668786168E0
9.393999000E0;-6.695082784E-1;7.444003820E-1;1.608310461E0
9.413390000E0;-5.577199459E-1;9.911899567E-1;1.462313652E0
9.423484000E0;-4.416555762E-1;1.124969482E0;1.353579640E0
9.443508000E0;-1.954768896E-1;1.323500633E0;1.192311287E0
9.463559000E0;4.886921495E-3;1.396804452E0;1.189867854E0
9.483294000E0;1.551597714E-1;1.479882121E0;1.360910058E0
9.493328000E0;1.912008226E-1;1.544633865E0;1.406114101E0
9.503496000E0;2.364048511E-1;1.620991945E0;1.421996593E0
9.523348000E0;3.622431159E-1;1.712621808E0;1.379846931E0
9.543357000E0;4.948008657E-1;1.724839091E0;1.297990918E0
9.553366000E0;5.418374538E-1;1.694295883E0;1.247289181E0
9.564053000E0;5.662720799E-1;1.633209348E0;1.191700459E0
9.583499000E0;5.552765131E-1;1.411465168E0;1.125726938E0
9.603339000E0;5.186246037E-1;1.113973856E0;1.125726938E0
9.613354000E0;4.996877909E-1;9.905791283E-1;1.121450901E0
9.623449000E0;4.801400900E-1;9.239947796E-1;1.112287879E0
9.643423000E0;4.575380683E-1;9.838595390E-1;1.071970820E0
9.663352000E0;4.428773224E-1;1.190942883E0;1.029821157E0
9.673354000E0;4.502077103E-1;1.394971848E0;9.913365245E-1
9.693299000E0;5.106833577E-1;1.528140545E0;9.436890483E-1
9.703311000E0;5.656612515E-1;1.495153785E0;9.265848398E-1
9.713425000E0;6.261368990E-1;1.365039468E0;9.021502137E-1
9.723436000E0;6.707300544E-1;1.159788728E0;8.948198557E-1
9.743583000E0;5.229006410E-1;6.643770337E-1;1.020658135E0
9.763375000E0;1.319468915E-1;5.672494769E-1;1.168487549E0
9.774502000E0;6.658430398E-2;5.574756265E-1;1.178261399E0
9.793345000E0;2.315179259E-1;4.548502564E-1;9.583498240E-1
9.803363000E0;3.793473244E-1;4.175874591E-1;7.482121587E-1
9.813554000E0;5.283984542E-1;3.601661325E-1;5.221920609E-1
9.833392000E0;7.318165898E-1;1.457524449E-1;1.507859826E-1
9.853345000E0;6.511823535E-1;-1.370781660E-1;-1.277685761E-1
9.863534000E0;3.365867734E-1;-5.524665117E-1;-3.012543023E-1
9.883353000E0;-1.221730560E-1;-9.354790449E-1;-5.120028257E-1
9.893467000E0;-3.054326177E-1;-9.556375742E-1;-7.038145065E-1
9.913357000E0;-3.940080702E-1;-5.213124156E-1;-1.182121992E0
9.933467000E0;-3.176499158E-2;-4.544837400E-2;-1.667759776E0
9.944061000E0;1.765400469E-1;-3.933972120E-2;-1.849186778E0
9.963391000E0;3.335324228E-1;-4.840496182E-1;-2.152786970E0
9.973509000E0;2.400700301E-1;-7.485542893E-1;-2.269462109E0
9.993392000E0;7.086037099E-2;-7.962017655E-1;-2.372698307E0
1.000339500E1;1.130100638E-1;-6.838025451E-1;-2.298783779E0
1.001342800E1;1.869247556E-1;-4.712214470E-1;-2.154008627E0
1.003346300E1;2.767219543E-1;-4.520403221E-3;-1.722126842E0
1.005336000E1;1.673770696E-1;1.512502432E-1;-1.245041013E0
1.006341300E1;-1.081231534E-1;-2.406809106E-2;-7.960551381E-1
1.007486600E1;-2.596177161E-1;-1.364672929E-1;-6.054652333E-1
1.009346700E1;-4.636467099E-1;-2.513099611E-1;-3.879971802E-1
1.011334800E1;-4.459316134E-1;-2.940705419E-1;-4.667988122E-1
1.012336500E1;-4.056145251E-1;-2.464230359E-1;-6.298997998E-1
1.014341500E1;-2.070833296E-1;6.023130938E-2;-1.004360199E0
1.016332000E1;2.706133127E-1;4.475198686E-1;-1.193117499E0
1.017360000E1;5.180137157E-1;5.892406106E-1;-1.159519911E0
1.019347000E1;7.935139537E-1;5.531995296E-1;-9.420519471E-1
1.020359500E1;7.617489696E-1;3.858224750E-1;-8.467569947E-1
1.021401600E1;6.243042946E-1;1.628566831E-1;-7.746748924E-1
1.023340200E1;2.357939929E-1;-3.618765771E-1;-7.294708490E-1
1.024342900E1;4.153883830E-2;-6.367659569E-1;-7.526837587E-1
1.026374300E1;-2.504547536E-1;-8.212472200E-1;-8.131594062E-1
1.028333600E1;-1.478293836E-1;-6.007248759E-1;-7.288599610E-1
1.029336100E1;-9.529498219E-2;-4.596150219E-1;-6.457822919E-1
1.030351700E1;-5.986479670E-2;-3.148399591E-1;-5.596503019E-1
1.032340000E1;-5.314527452E-2;-7.171557844E-2;-4.203730524E-1
1.033357400E1;-3.665191680E-2;4.923573881E-2;-3.867754638E-1
1.034431400E1;1.160643995E-2;1.396438032E-1;-3.574539125E-1
1.036337500E1;1.508837044E-1;2.581516504E-1;-3.275215328E-1
1.037340000E1;2.193006128E-1;2.856405675E-1;-3.262997866E-1
1.039399100E1;3.200933933E-1;2.874731719E-1;-3.269106448E-1
1.041333400E1;3.976732790E-1;2.746450007E-1;-3.061412275E-1
1.042347100E1;4.355469346E-1;2.880840302E-1;-2.890370190E-1
1.044378600E1;5.186246037E-1;3.815464079E-1;-2.621589303E-1
1.046333800E1;7.843509912E-1;6.179512739E-1;-1.925202906E-1
1.047335800E1;8.613200188E-1;6.717073917E-1;-1.540357769E-1
1.048340800E1;9.205739498E-1;7.089701891E-1;-1.198273301E-1
1.049380000E1;9.511172175E-1;7.083593011E-1;-1.167729944E-1
1.051331700E1;8.533787727E-1;6.320011616E-1;-1.265468448E-1
1.052337400E1;7.776314616E-1;6.069557071E-1;-1.039448306E-1
1.053341600E1;7.312057018E-1;6.014578938E-1;-5.874080583E-2
1.055333900E1;7.012733221E-1;6.643770337E-1;8.542339504E-2
1.056339200E1;6.969972849E-1;7.327939272E-1;1.825509667E-1
1.057340400E1;6.927211881E-1;7.798305750E-1;2.656286359E-1
1.059339900E1;6.438519955E-1;8.604647517E-1;2.949501574E-1
1.061333300E1;6.921103597E-1;9.410989881E-1;2.137051076E-1
1.062335200E1;7.189884186E-1;9.533162713E-1;2.057638466E-1
1.064404700E1;6.731734872E-1;8.232020140E-1;1.092471406E-1
1.066342900E1;6.725626588E-1;6.478836536E-1;-1.228816509E-1
1.068353000E1;6.762278080E-1;3.558900952E-1;-1.839681715E-1
1.070329000E1;2.663372457E-1;-2.164906412E-1;-1.467053890E-1
1.071377700E1;-5.558873713E-2;-4.950452149E-1;-2.413894981E-1
1.073365400E1;-6.334672570E-1;-1.038104415E0;-7.337468863E-1
1.075375600E1;-8.460483551E-1;-1.253739834E0;-1.584071279E0
1.077379100E1;-2.370157242E-1;-1.165164351E0;-2.571840525E0
1.079344500E1;5.638286471E-1;-1.052154303E0;-2.732498169E0
1.081372500E1;1.102611780E0;-7.998669744E-1;-2.361092091E0
1.083333100E1;1.321912408E0;-4.150218666E-1;-1.843688965E0
1.084344600E1;1.216232657E0;3.946189582E-2;-1.260312676E0
1.085350200E1;1.024420977E0;2.856405675E-1;-8.882958293E-1
1.087337800E1;4.282165468E-1;7.804414034E-1;-1.051665545E-1
1.089339300E1;-6.902777404E-2;1.119471669E0;4.965356886E-1
1.090343400E1;-1.753183305E-1;1.167119145E0;7.036190033E-1
1.092461300E1;-1.899790913E-1;1.156734467E0;1.012716889E0
1.094414400E1;-1.258382350E-1;1.162843108E0;1.207582951E0
1.096333400E1;-8.857546002E-2;1.209268808E0;1.343194962E0
1.097344100E1;-4.886921868E-2;1.246531606E0;1.400005460E0
1.098352000E1;-6.108652800E-3;1.281350970E0;1.460481167E0
1.099354200E1;8.552111685E-3;1.321668029E0;1.515458941E0
1.101339100E1;-2.932153270E-2;1.473162651E0;1.560662985E0
1.102345900E1;-2.932153270E-2;1.580674887E0;1.560662985E0
1.103361900E1;-2.871066704E-2;1.700404525E0;1.550889134E0
1.104403500E1;-6.108652800E-3;1.919705153E0;1.487969995E0
1.106362700E1;-6.414084882E-2;2.084638834E0;1.368240476E0
1.108413400E1;-1.325577646E-1;2.153666496E0;1.224076271E0
1.110328500E1;-2.101376504E-1;2.222083330E0;1.139776826E0
1.111333000E1;-2.083050460E-1;2.258735418E0;1.116564035E0
1.112335200E1;-1.716531366E-1;2.292943716E0;1.107401013E0
1.113335500E1;-1.014036313E-1;2.318600178E0;1.119618297E0
1.114348500E1;-4.886921495E-3;2.332649946E0;1.148329020E0
1.116345300E1;2.174680084E-1;2.291722059E0;1.257063031E0
1.118336300E1;3.860668540E-1;2.137173176E0;1.437268257E0
1.119351400E1;4.208861589E-1;2.016832590E0;1.547223926E0
1.121328400E1;3.762930036E-1;1.743775964E0;1.745755196E0
1.122337100E1;2.956587970E-1;1.608163834E0;1.815393806E0
1.123337400E1;2.083050460E-1;1.517755747E0;1.916797400E0
1.125328400E1;7.635815442E-2;1.454836607E0;2.042635679E0
1.126342600E1;5.619959906E-2;1.486601591E0;2.089672089E0
1.127379800E1;4.642575607E-2;1.536692619E0;2.114106894E0
1.129335900E1;4.459315911E-2;1.647259235E0;2.112884998E0
1.131341300E1;7.452556491E-2;1.754771471E0;2.062183142E0
1.132361400E1;9.224064648E-2;1.778595209E0;2.032861710E0
1.134337300E1;1.594358236E-1;1.770043135E0;1.941842914E0
1.135361000E1;1.948660165E-1;1.696128488E0;1.880756378E0
1.137384500E1;2.351831049E-1;1.423071623E0;1.751253009E0
1.139341800E1;3.384193480E-1;1.057774305E0;1.561884761E0
1.141342100E1;4.550946057E-1;7.682241201E-1;1.480028749E0
1.143334100E1;8.729264736E-1;3.033556640E-1;1.330977678E0
1.144342300E1;1.002429843E0;1.365894675E-1;1.145885468E0
1.146337200E1;1.222952247E0;-9.126326442E-2;6.309260726E-1
1.147357500E1;1.373225093E0;-1.059240401E-1;3.957429230E-1
1.149349200E1;1.708590150E0;-9.187413752E-2;8.175820857E-2
1.151343900E1;1.761735320E0;2.978578806E-1;2.189341001E-2
1.152349400E1;1.642616630E0;3.943745792E-1;7.232644595E-3
1.154355600E1;1.057407737E0;3.742160499E-1;-2.200092226E-1
1.156340900E1;3.097086847E-1;2.624276876E-1;-6.616647840E-1
1.158330400E1;2.015855163E-2;1.848478317E-1;-1.208999991E0
1.159340100E1;7.391469181E-2;2.135584950E-1;-1.522373915E0
1.160357300E1;2.394591719E-1;2.563190460E-1;-1.838191271E0
1.162335600E1;6.921103597E-1;1.830152273E-1;-2.302448988E0
1.163345300E1;6.951646805E-1;-1.334129721E-1;-2.402630806E0
1.165335500E1;4.050036669E-1;-5.720142126E-1;-2.366589785E0
1.167340000E1;3.988950253E-1;-7.784866691E-1;-2.473491192E0
1.168359000E1;5.241224170E-1;-7.137349844E-1;-2.541908026E0
1.170361900E1;9.425650835E-1;-4.125784039E-1;-2.550460100E0
1.172358000E1;1.203404546E0;-1.065348983E-1;-2.094754696E0
1.174340500E1;9.718866348E-1;-8.454374969E-2;-1.439296246E0
1.176338300E1;2.638937831E-1;-3.594331145E-1;-8.895175457E-1
1.178343900E1;-4.691444933E-1;-6.593679786E-1;-5.938587785E-1
1.179355300E1;-6.896668673E-1;-7.595498562E-1;-5.547633767E-1
1.181330700E1;-7.544185519E-1;-8.365188837E-1;-5.816414356E-1
1.182350200E1;-4.612032473E-1;-7.571064234E-1;-6.390628219E-1
1.184349200E1;-4.337143153E-2;-4.272391498E-1;-7.129774690E-1
1.186331700E1;4.141666591E-1;-1.395216137E-1;-7.630684376E-1
1.187336900E1;5.363397002E-1;-3.872885555E-2;-7.575706840E-1
1.189346200E1;5.235115290E-1;1.439198554E-1;-7.196969986E-1
1.191333300E1;4.471533597E-1;2.648711503E-1;-6.390628219E-1
1.192342500E1;4.050036669E-1;2.917492390E-1;-5.730893612E-1
1.194356800E1;2.950479388E-1;2.544864416E-1;-4.173187017E-1
1.196329900E1;2.144136876E-1;9.627236426E-2;-3.550104499E-1
1.197332200E1;2.052507252E-1;2.724459022E-2;-3.427931666E-1
1.198358900E1;2.156354338E-1;-3.689625859E-2;-3.360736370E-1
1.200336700E1;2.638937831E-1;-1.059240401E-1;-3.226346076E-1
1.202342400E1;2.846632004E-1;-3.017674387E-2;-2.591046095E-1
1.203357900E1;2.736676335E-1;-3.078760765E-2;-1.986289471E-1
1.205342000E1;1.576032341E-1;-9.309586883E-2;-4.408003762E-2
1.207548800E1;-4.214970395E-2;-1.969429553E-1;1.116906032E-1
1.209348300E1;-2.205223590E-1;-1.737300754E-1;1.953791380E-1
1.211338600E1;-3.255911767E-1;-6.866125762E-2;1.880487651E-1
1.212370900E1;-3.506366313E-1;-2.076941542E-3;1.825509667E-1
1.214348800E1;-3.304780722E-1;1.860695630E-1;1.959900111E-1
1.216337700E1;-2.095267773E-1;3.974289298E-1;1.984334737E-1
1.217351500E1;-1.398881376E-1;4.805065989E-1;1.868270338E-1
1.219355400E1;-5.192354694E-2;5.281540751E-1;1.654467434E-1
1.221332100E1;-1.832596958E-3;3.754377663E-1;1.440664679E-1
1.222337600E1;-1.649336144E-2;5.778785422E-2;1.190209836E-1
1.223340700E1;-5.253441259E-2;-1.059240401E-1;9.153205156E-2
1.225338200E1;-1.490511149E-1;-3.594331145E-1;-8.649851196E-3
1.227372400E1;-1.478293836E-1;-3.991393745E-1;-1.503705829E-1
1.229617200E1;2.687807009E-2;-3.288898468E-1;-2.957565188E-1
1.231335900E1;1.887573600E-1;-1.517389268E-1;-4.283142984E-1
1.232353100E1;2.614503503E-1;-3.689625859E-2;-4.716857076E-1
1.234346000E1;3.475823402E-1;2.428800315E-1;-4.686313868E-1
1.236334900E1;3.793473244E-1;5.403713584E-1;-3.837211132E-1
1.237339900E1;4.123340547E-1;6.869790554E-1;-3.409605622E-1
1.239337700E1;4.917465448E-1;8.952841163E-1;-2.975891232E-1
1.241335100E1;5.900958180E-1;8.128172755E-1;-4.674096704E-1
1.242369900E1;5.632177591E-1;6.558248997E-1;-5.278853178E-1
1.244368600E1;2.461787015E-1;2.092824429E-1;-5.370482802E-1
1.246576300E1;-3.127630055E-1;-2.415361106E-1;-5.657589436E-1
1.247900400E1;-7.061601877E-1;-4.522846341E-1;-9.182282090E-1
1.249344600E1;-6.872233748E-1;-5.188689232E-1;-1.270697355E0
1.251334300E1;-3.164281845E-1;-3.863112032E-1;-1.929210186E0
1.252343200E1;1.771509275E-2;-1.425759494E-1;-2.088646173E0
1.254352800E1;9.883799553E-1;4.566828609E-1;-2.086813450E0
1.256335900E1;1.797776461E0;8.115955591E-1;-1.753891826E0
1.258336800E1;1.920560360E0;8.604647517E-1;-1.356829405E0
1.259348100E1;1.646281838E0;7.816631794E-1;-1.119813681E0
1.261337700E1;1.038470864E-2;5.971818566E-1;-1.992398053E-1
1.262349500E1;-5.015203953E-1;5.898514986E-1;1.336817443E-1
1.264339800E1;-1.166141748E0;7.327939272E-1;8.038009405E-1
1.266357500E1;-1.284649611E0;9.746965766E-1;1.391453385E0
1.267416600E1;-1.158200502E0;1.084041476E0;1.614419103E0
1.269467900E1;-6.866125464E-1;1.223929644E0;1.880756378E0
1.271424600E1;-1.954768896E-1;1.293568254E0;1.928403854E0
1.273337300E1;5.314527825E-2;1.389474034E0;1.903358459E0
1.274338300E1;7.696902752E-2;1.476216912E0;1.932679892E0
1.276334000E1;8.429940045E-2;1.660698295E0;2.070124388E0
1.278334800E1;9.712757170E-2;1.783482194E0;2.187410593E0
1.279335700E1;1.142317951E-1;1.794477701E0;2.194130182E0
1.281327700E1;1.441641897E-1;1.679024220E0;1.986436129E0
1.282348800E1;1.288925558E-1;1.600833416E0;1.898471475E0
1.283422300E1;1.209513098E-1;1.520199180E0;1.797678709E0
1.285331500E1;1.606575549E-1;1.340604901E0;1.582654119E0
1.286338600E1;1.942551434E-1;1.261803269E0;1.517291546E0
1.288331900E1;2.101376355E-1;1.178725600E0;1.450707316E0
1.289336100E1;2.199114710E-1;1.196440697E0;1.423218369E0
1.291335300E1;2.962696552E-1;1.284405231E0;1.392064214E0
1.293330100E1;4.269948304E-1;1.407800078E0;1.340751529E0
1.294340100E1;4.838052988E-1;1.458501816E0;1.296769261E0
1.296379700E1;5.564982295E-1;1.534249187E0;1.181315660E0
1.298336100E1;5.962045193E-1;1.584340096E0;1.073192596E0
1.299349600E1;6.078109145E-1;1.603887796E0;1.035318851E0
1.300424100E1;6.511823535E-1;1.576398849E0;9.168109894E-1
1.302369900E1;6.310238242E-1;1.522642732E0;8.557244539E-1
1.304352700E1;4.978551865E-1;1.442008495E0;8.282355070E-1
1.306342875E1;3.530801237E-1;1.378478527E0;7.848640680E-1
1.308342894E1;3.011565804E-1;1.352211237E0;7.023972869E-1
1.309354797E1;3.274237812E-1;1.343659163E0;6.406998634E-1
1.311342349E1;4.324926138E-1;1.324722409E0;5.417397022E-1
1.313367987E1;5.149593949E-1;1.204381943E0;4.910379052E-1
1.315342822E1;5.296201706E-1;1.015013695E0;4.293405116E-1
1.316425111E1;5.613851547E-1;8.122064471E-1;3.743626475E-1
1.318358353E1;5.943719149E-1;7.059158683E-1;3.676431179E-1
1.320367438E1;6.444628239E-1;2.770884633E-1;2.711264193E-1
1.322354734E1;6.432411075E-1;4.923573881E-2;7.259522378E-2
1.324338084E1;7.318165898E-1;5.962045118E-2;-4.713436216E-2
1.326336296E1;8.613200188E-1;1.591914892E-1;-1.170417760E-2
1.328338174E1;9.920451641E-1;5.534439161E-2;-1.803029776E-1
1.329340687E1;1.067181587E0;-1.123992074E-2;-3.281323910E-1
1.330341143E1;1.205237150E0;-5.888741091E-2;-4.600792825E-1
1.331356022E1;1.387274981E0;-4.483750835E-2;-5.492656231E-1
1.333360280E1;1.726305246E0;2.624276876E-1;-5.773653984E-1
1.335338020E1;1.871080279E0;5.996252894E-1;-5.370482802E-1
1.336346010E1;1.806328535E0;6.998072267E-1;-5.468221307E-1
1.338360703E1;1.180802584E0;5.220454335E-1;-7.453533411E-1
1.340360976E1;7.519751191E-1;6.267477572E-2;-1.232823730E0
1.342348119E1;5.253441334E-1;-2.250427455E-1;-1.784435034E0
1.343351209E1;4.764748812E-1;-2.445904464E-1;-2.019618273E0
1.345339552E1;4.819726944E-1;-1.334129721E-1;-2.345209599E0
1.346358676E1;4.954117537E-1;-1.248608530E-1;-2.359870195E0
1.348345769E1;2.266310006E-1;-2.867401540E-1;-2.173556328E0
1.349349584E1;-5.864306539E-2;-3.343876600E-1;-2.140569687E0
1.351350446E1;-3.891211450E-1;1.915673465E-1;-2.330548763E0
1.353340762E1;-1.832596958E-3;1.476827860E0;-2.466771603E0
1.354346581E1;3.597996533E-1;2.063869238E0;-2.374531031E0
1.355351840E1;6.921103597E-1;2.393125772E0;-2.197380066E0
1.356352470E1;8.509352803E-1;2.399845123E0;-1.949368715E0
1.358344793E1;-6.902777404E-2;7.450112700E-1;-1.036125183E0
1.360334298E1;-9.596692920E-1;-4.547280967E-1;-6.873211265E-1
1.361334899E1;-1.142928839E0;-7.357261181E-1;-5.645372272E-1
1.362345150E1;-1.140485406E0;-8.126951456E-1;-4.490837157E-1
1.363346125E1;-1.009149432E0;-7.345044017E-1;-3.660060465E-1
1.364348062E1;-8.112290502E-1;-5.823989511E-1;-3.293541074E-1
1.365352031E1;-6.084218025E-1;-4.284608960E-1;-3.476800621E-1
1.366518816E1;-4.349360466E-1;-3.105638921E-1;-3.739472926E-1
1.368383904E1;-2.290744781E-1;-2.506991029E-1;-4.179295897E-1
1.370351476E1;-2.364048511E-1;-3.123964965E-1;-4.038796723E-1
1.372338344E1;-3.359758854E-1;-3.661526442E-1;-3.617299795E-1
1.373351772E1;-3.524692357E-1;-3.911981285E-1;-3.458474874E-1
1.375348193E1;-3.561344147E-1;-4.535063803E-1;-2.823174894E-1
1.377344648E1;-1.814269871E-1;-4.510629177E-1;-3.189693987E-1
1.378344724E1;-1.386664063E-1;-5.689598918E-1;-3.256889284E-1
1.380336006E1;-1.325577646E-1;-6.862460375E-1;-4.081557393E-1
1.381351553E1;-9.834930301E-2;-7.265631557E-1;-4.173187017E-1
1.383344813E1;-9.162979200E-3;-7.259522676E-1;-3.513452709E-1
1.385344578E1;-5.742133409E-2;-7.112914920E-1;-3.098064363E-1
1.386359139E1;-8.429940045E-2;-7.015176415E-1;-2.713219225E-1
1.388352785E1;-7.269296050E-2;-6.966307163E-1;-1.668639481E-1
1.390342796E1;-1.600466967E-1;-7.461107969E-1;-1.369315535E-1
1.391351648E1;-2.541199327E-1;-7.705454230E-1;-1.448727995E-1
1.393342912E1;-2.987130880E-1;-7.314500809E-1;-2.059593201E-1
1.394349906E1;-2.577851415E-1;-6.721961498E-1;-2.279504687E-1
1.396347476E1;-1.857030392E-1;-4.919908941E-1;-2.499416322E-1
1.398338869E1;-6.902777404E-2;-1.938886195E-1;-2.279504687E-1
1.399385734E1;-7.208210230E-2;-1.413542181E-1;-1.912985593E-1
1.401356484E1;-1.227839142E-1;-1.138652861E-1;-1.253251135E-1
1.403365746E1;-1.960877478E-1;-1.609019041E-1;-1.522031873E-1
1.405359211E1;-1.710422784E-1;-1.004262418E-1;-2.517742217E-1
1.406628556E1;-5.131268129E-2;1.054353416E-1;-3.489018083E-1
1.408339800E1;-5.131268129E-2;1.054353416E-1;-3.489018083E-1
1.409342800E1;1.404989883E-2;2.135584950E-1;-3.690603673E-1
1.411342100E1;7.574729621E-2;3.235142231E-1;-3.409605622E-1
1.412342400E1;7.880161703E-2;3.235142231E-1;-3.195802867E-1
1.414340400E1;1.417207271E-1;3.057991266E-1;-3.311867118E-1
1.416336600E1;3.066543639E-1;2.685363591E-1;-3.030869067E-1
1.417341400E1;3.457497358E-1;2.214997411E-1;-2.450547069E-1
1.418348200E1;2.211332172E-1;8.344419301E-2;-6.607118249E-2
1.420337100E1;-8.185593784E-2;-2.590068616E-2;1.287948340E-1
1.422338800E1;-1.930334270E-1;-8.210028708E-2;1.862161607E-1
1.423346300E1;-1.753183305E-1;-7.232644409E-2;1.440664679E-1
1.425332100E1;-4.520402849E-2;-5.461135134E-2;-4.041484371E-2
1.426350100E1;5.253441259E-2;-8.943067491E-2;-1.509814560E-1
1.427366800E1;1.411098689E-1;-1.389107555E-1;-2.560502887E-1
1.429338500E1;2.461787015E-1;-1.865582466E-1;-3.354627788E-1
1.431362400E1;3.933972418E-1;-6.010913849E-2;-3.299649954E-1
1.433334800E1;5.247332454E-1;2.043955177E-1;-1.619770229E-1
1.434343400E1;5.326744914E-1;3.296228647E-1;-3.980398178E-2
1.436339600E1;4.166101217E-1;5.654168725E-1;2.857871950E-1
1.437353100E1;2.901610136E-1;6.307794452E-1;7.176688910E-1
1.439343200E1;1.325577497E-1;5.257106423E-1;1.149550676E0
1.441347600E1;-1.392772794E-1;4.175874591E-1;1.396340251E0
1.442404300E1;-2.412917763E-1;4.823391736E-1;1.417720556E0
1.444341700E1;-2.577851415E-1;8.848993778E-1;1.326701641E0
1.446349000E1;-1.264491081E-1;1.333885312E0;1.150772452E0
1.447350900E1;-9.162978828E-2;1.516534090E0;1.081744671E0
1.449390000E1;-1.588249654E-1;1.779206157E0;1.093351126E0
1.451335900E1;-2.632829249E-1;1.882442355E0;1.230795741E0
1.452346200E1;-2.687807083E-1;1.895881414E0;1.297990918E0
1.454337600E1;-1.600466967E-1;1.804862499E0;1.349914551E0
1.456330100E1;-1.588249765E-2;1.696128488E0;1.332199454E0
1.457335300E1;1.624901444E-1;1.619159460E0;1.312040806E0
1.458350100E1;2.425134927E-1;1.594724774E0;1.321814656E0
1.460329100E1;3.414736688E-1;1.556240320E0;1.329755902E0
1.461341400E1;3.738495409E-1;1.565403223E0;1.326090813E0
1.462372700E1;3.927863538E-1;1.592281342E0;1.326701641E0
1.464336300E1;4.086688459E-1;1.685743690E0;1.308986545E0
1.466351900E1;4.037819505E-1;1.790812492E0;1.276610613E0
1.468342600E1;3.714060783E-1;1.889772654E0;1.247900009E0
1.470334100E1;3.683517575E-1;1.906266093E0;1.222243667E0
1.471337100E1;3.701843619E-1;1.886718392E0;1.199030757E0
1.472347500E1;3.878994286E-1;1.845179558E0;1.166654944E0
1.474337200E1;4.300491512E-1;1.675969839E0;1.098848939E0
1.475338100E1;4.184426963E-1;1.550131679E0;1.057920933E0
1.476351300E1;3.952298164E-1;1.421849966E0;9.772866368E-1
1.478347800E1;4.080579877E-1;1.063271999E0;9.009284973E-1
1.479401700E1;4.227187634E-1;9.924116135E-1;8.575570583E-1
1.481378600E1;4.673119187E-1;8.519126773E-1;7.549316883E-1
1.483341000E1;4.954117537E-1;6.833138466E-1;6.168761253E-1
1.484348000E1;5.186246037E-1;5.916840434E-1;5.496809483E-1
1.486339500E1;5.839871764E-1;4.072027504E-1;4.476664662E-1
1.487354300E1;6.212499738E-1;3.424510360E-1;4.403360784E-1
1.489341800E1;6.383541822E-1;2.966361642E-1;5.295224190E-1
1.491358400E1;5.736024976E-1;3.387858570E-1;6.804061532E-1
1.492359300E1;4.917465448E-1;3.925420046E-1;7.702033520E-1
1.494357600E1;2.901610136E-1;4.835609198E-1;8.111312985E-1
1.496387300E1;2.736676335E-1;5.202128291E-1;4.342274368E-1
1.498336500E1;3.500258029E-1;3.345097899E-1;7.503868639E-2
1.499347100E1;3.384193480E-1;1.909564734E-1;-7.034724206E-2
1.501391700E1;2.693915963E-1;-1.859473735E-1;-3.635625839E-1
1.503356300E1;2.370157093E-1;-5.414709449E-1;-7.227513194E-1
1.504363800E1;2.504547536E-1;-6.526484489E-1;-9.255586267E-1
1.506343700E1;2.968805134E-1;-7.167893052E-1;-1.306127548E0
1.508337000E1;3.878994286E-1;-6.679200530E-1;-1.596288562E0
1.509342100E1;4.563163519E-1;-6.092770100E-1;-1.723348498E0
1.511335300E1;6.065891981E-1;-4.547280967E-1;-1.874843121E0
1.512350400E1;6.951646805E-1;-3.154508173E-1;-1.868734479E0
1.514334400E1;8.106181622E-1;-4.056145251E-2;-1.661651134E0
1.515336900E1;7.898487449E-1;7.855726779E-2;-1.459454775E0
1.516337700E1;5.186246037E-1;2.037846446E-1;-9.108978510E-1
1.517348900E1;2.706133127E-1;2.178345472E-1;-6.384519339E-1
1.519346600E1;-2.620611787E-1;1.506393701E-1;-2.529959679E-1
1.521337100E1;-4.691444933E-1;1.563815027E-2;-9.966877103E-2
1.522340200E1;-4.471533597E-1;-5.400048941E-2;-9.539271146E-2
1.523343200E1;-3.940080702E-1;-1.187521964E-1;-1.467053890E-1
1.524343800E1;-3.323106766E-1;-1.798387319E-1;-2.328373939E-1
1.526358400E1;-2.229658216E-1;-2.726902664E-1;-4.173187017E-1
1.528335100E1;-1.099557430E-1;-2.250427455E-1;-5.034506917E-1
1.529339000E1;-5.619960278E-2;-1.499063224E-1;-5.181114674E-1
1.531358100E1;3.665190190E-3;7.000516355E-2;-5.376591682E-1
1.533337200E1;4.520402476E-2;2.862514555E-1;-5.846958160E-1
1.534342300E1;7.941247523E-2;3.400075734E-1;-6.127955914E-1
1.536339200E1;1.252273768E-1;3.021339476E-1;-6.390628219E-1
1.537340900E1;1.099557430E-1;2.404365689E-1;-6.158499122E-1
1.539345400E1;7.269296050E-2;1.005484164E-1;-5.456004143E-1
1.541377500E1;1.343903318E-2;-4.117231816E-2;-4.503054321E-1
1.542386000E1;-1.832595840E-2;-6.682865322E-2;-4.142643809E-1
1.544352300E1;-1.099557430E-2;-4.544837400E-2;-3.770016134E-1
1.546351000E1;3.481931612E-2;7.489207387E-2;-3.855537176E-1
1.548331200E1;1.081231385E-1;2.563190460E-1;-4.124317765E-1
1.549363100E1;1.386664063E-1;3.216816187E-1;-3.928841054E-1
1.551338100E1;9.162978828E-2;3.112969100E-1;-3.165259361E-1
1.552338600E1;4.459315911E-2;2.581516504E-1;-2.847609520E-1
1.553353700E1;6.719518453E-3;1.915673465E-1;-2.487198859E-1
1.555328000E1;-2.565634064E-2;5.595525727E-2;-1.271577030E-1
1.556334400E1;-3.115412779E-2;4.007276148E-2;-1.021122336E-1
1.557339900E1;-1.588249765E-2;2.907718718E-2;-7.523415983E-2
1.559338800E1;2.809980139E-2;9.773839265E-4;2.983465791E-2
1.561333000E1;-2.809980139E-2;-1.120326817E-1;8.420167118E-2
1.562356800E1;-7.086037099E-2;-1.663996875E-1;8.969945461E-2
1.564349800E1;-1.007927656E-1;-2.042733282E-1;1.190209836E-1
1.566392100E1;-7.208210230E-2;-1.731192023E-1;1.037493572E-1
1.568338600E1;-5.497787148E-3;-1.602910310E-1;2.739119902E-2
1.569348600E1;2.199114859E-2;-1.859473735E-1;-2.208888903E-2
1.570355900E1;1.954768598E-2;-2.372600585E-1;-8.378627151E-2
1.572376400E1;-2.199114859E-2;-2.726902664E-1;-2.798740268E-1
1.574350400E1;9.590584040E-2;-1.444085389E-1;-4.747400582E-1
1.576342300E1;3.995058835E-1;2.715906799E-1;-6.628865600E-1
1.577342500E1;4.092797339E-1;3.510031700E-1;-6.512801051E-1
1.578352100E1;3.451388776E-1;3.345097899E-1;-6.146281958E-1
1.579386600E1;2.131919712E-1;2.660928965E-1;-5.834740400E-1
1.581351100E1;-1.404990107E-1;7.977899909E-2;-5.144462585E-1
1.582367700E1;-2.455678284E-1;-1.979203522E-2;-5.187223554E-1
1.584348800E1;-2.730567753E-1;-1.780061275E-1;-5.950804949E-1
1.586337200E1;-1.356120855E-1;-2.604729533E-1;-6.604430676E-1
1.587337300E1;-1.221730560E-2;-3.007900715E-1;-6.860994101E-1
1.589344500E1;2.321287841E-1;-3.838677406E-1;-6.977058649E-1
1.590344900E1;3.243694603E-1;-3.936415613E-1;-6.897646189E-1
1.592360700E1;4.440990388E-1;-2.726902664E-1;-6.879320145E-1
1.594356800E1;7.379252315E-1;1.066570729E-1;-5.956913829E-1
1.596348300E1;8.820894361E-1;9.392663836E-1;-2.951456606E-1
1.598339900E1;8.142833710E-1;1.363206863E0;9.641897678E-2
1.599375000E1;7.104362845E-1;1.517144918E0;2.754024863E-1
1.601465700E1;4.801400900E-1;1.710789204E0;5.460157990E-1
1.603341500E1;3.426954150E-1;1.851288199E0;7.231667042E-1
1.604402700E1;3.133738935E-1;1.920315981E0;7.891401649E-1
1.606334400E1;2.883284092E-1;2.007669687E0;8.679417372E-1
1.607339300E1;2.590068877E-1;2.008280516E0;8.838242888E-1
1.608463200E1;2.241875380E-1;1.982624173E0;8.661091924E-1
1.610339900E1;1.466076523E-1;1.863505483E0;8.160182238E-1
1.611340300E1;1.117883325E-1;1.814025402E0;7.976922393E-1
1.612340600E1;8.796459436E-2;1.774930000E0;7.830315232E-1
1.614342200E1;1.319468915E-1;1.773097396E0;7.396600842E-1
1.616362300E1;2.608394623E-1;1.864727259E0;6.584149599E-1
1.617388400E1;3.353650272E-1;1.937420249E0;6.150435805E-1
1.619340300E1;4.709771276E-1;2.112127542E0;5.337984562E-1
1.620344900E1;5.436700583E-1;2.174435854E0;4.910379052E-1
1.622348500E1;6.670648456E-1;2.201313972E0;4.067384899E-1
1.624335400E1;7.141014934E-1;2.153666496E0;4.055167735E-1
1.626334900E1;7.104362845E-1;2.080973625E0;4.861509800E-1
1.627367000E1;6.878342628E-1;2.049819469E0;5.417397022E-1
1.629353700E1;5.845980644E-1;2.013778448E0;6.736866236E-1
1.631333300E1;5.015203953E-1;2.138394833E0;7.732576728E-1
1.632356200E1;4.819726944E-1;2.248350620E0;8.074660897E-1
1.634344300E1;4.202753007E-1;2.515298605E0;8.343441486E-1
1.636333800E1;2.926044762E-1;2.419392824E0;8.422853947E-1
1.637346400E1;1.979203373E-1;2.297219753E0;8.600004911E-1
1.639336900E1;-6.291912496E-2;1.930089831E0;9.052045345E-1
1.641341100E1;-3.072652221E-1;1.528140545E0;8.282355070E-1
1.642345300E1;-3.475823104E-1;1.385197997E0;7.421035171E-1
1.644334700E1;-2.107485086E-1;1.321057200E0;5.826677084E-1
1.646362400E1;-2.382374555E-2;1.366261244E0;4.543859959E-1
1.647382600E1;3.054326400E-2;1.406578302E0;3.951320648E-1
1.649338200E1;8.246681094E-2;1.457890987E0;3.083891869E-1
1.651364500E1;1.404989883E-2;1.422460794E0;2.387505770E-1
1.653332300E1;-2.174680382E-1;1.272187948E0;7.381695509E-2
1.654346600E1;-2.486221641E-1;1.213544846E0;-3.736051917E-2
1.656335900E1;-1.655444801E-1;1.126191139E0;-3.165259361E-1
1.657340700E1;-5.253441259E-2;1.029674411E0;-4.759617746E-1
1.658347000E1;5.558873340E-2;8.366410136E-1;-6.274563670E-1
1.660354100E1;1.753183156E-1;2.990796268E-1;-8.889066577E-1
1.662338500E1;2.528982162E-1;-1.938886195E-1;-1.193728328E0
1.663339700E1;2.999348342E-1;-2.574186325E-1;-1.390426993E0
1.664346400E1;3.811799288E-1;-1.615127623E-1;-1.566356182E0
1.666341800E1;6.438519955E-1;3.913202584E-1;-1.766109109E0
1.667358400E1;7.580837607E-1;6.985855103E-1;-1.752670050E0
1.669346200E1;7.971791625E-1;1.023565769E0;-1.483889341E0
1.671343900E1;4.477642477E-1;8.934515119E-1;-1.014744878E0
1.672354300E1;1.747074574E-1;6.491053700E-1;-7.526837587E-1
1.674339100E1;-6.896668673E-1;-4.950452149E-1;-2.880840749E-2
1.675341600E1;-8.930850029E-1;-8.004778028E-1;9.397551417E-2
1.676344400E1;-1.003651619E0;-9.690766335E-1;1.495642513E-1
1.678338100E1;-9.266825914E-1;-8.175820708E-1;9.764070064E-2
1.680359400E1;-5.393940210E-1;-3.576005399E-1;-4.835609347E-2
1.682340100E1;-1.447750628E-1;-6.560692191E-2;-2.029049993E-1
1.684369600E1;1.710422710E-2;-8.210028708E-2;-3.140824735E-1
1.686363700E1;4.764748737E-2;-2.439795732E-1;-3.214128613E-1
1.688338100E1;5.314527825E-2;-3.521027267E-1;-3.238563240E-1
1.689341700E1;8.429940045E-2;-3.545461893E-1;-3.299649954E-1
1.691333000E1;1.740965843E-1;-3.533244729E-1;-3.275215328E-1
1.692335500E1;2.009746581E-1;-3.624874353E-1;-3.543995917E-1
1.693337300E1;2.156354338E-1;-3.704286814E-1;-3.916623592E-1
1.694345300E1;2.205223590E-1;-3.844785988E-1;-4.173187017E-1
1.696362300E1;2.199114710E-1;-4.376238585E-1;-4.380881190E-1
1.698333400E1;1.649336070E-1;-3.857003152E-1;-4.393098652E-1
1.699349800E1;1.533271670E-1;-3.258355260E-1;-4.179295897E-1
1.701134200E1;1.618792862E-1;-1.859473735E-1;-3.776124716E-1
1.702342000E1;1.685988009E-1;-1.114218235E-1;-3.611191213E-1
1.703385100E1;1.820378453E-1;-5.155702680E-2;-3.550104499E-1
1.705338100E1;2.211332172E-1;4.129448906E-2;-3.464583457E-1
1.707455500E1;2.675589919E-1;2.480112761E-2;-3.403497040E-1
1.709333700E1;2.235766798E-1;-3.323107213E-2;-3.336301744E-1
1.710337400E1;2.046398520E-1;-4.850270227E-2;-3.311867118E-1
1.712349800E1;1.551597714E-1;-9.309586883E-2;-3.067521155E-1
1.714345800E1;1.643227488E-1;-8.943067491E-2;-3.238563240E-1
1.716419200E1;2.449569553E-1;-1.047023088E-1;-3.012543023E-1
1.718329200E1;3.158173561E-1;-2.012190074E-1;-2.248961478E-1
1.719349400E1;3.359758854E-1;-2.910162210E-1;-1.790812463E-1
1.721334200E1;3.115412891E-1;-5.970597267E-1;-1.259359717E-1
1.722338600E1;2.522873580E-1;-7.057937384E-1;-1.387641430E-1
1.724335000E1;2.272418588E-1;-5.756794214E-1;-1.815247089E-1
1.726353600E1;3.066543639E-1;-1.364672929E-1;-1.570900977E-1
1.727373700E1;3.604105115E-1;1.292590946E-1;-1.363206804E-1
1.729349500E1;3.824016452E-1;4.524067938E-1;2.956587821E-3
1.731354300E1;2.150245756E-1;4.065918922E-1;9.214291722E-2
1.733333800E1;-7.819075137E-2;-1.731192023E-1;-1.155512631E-1
1.734336200E1;-1.258382350E-1;-3.612657189E-1;-2.572720051E-1
1.735409100E1;-1.453859359E-1;-5.084842443E-1;-3.739472926E-1
1.737340600E1;-1.899790913E-1;-6.642549038E-1;-5.162788630E-1
1.739336700E1;-2.700024247E-1;-5.811772346E-1;-5.553742647E-1
1.740337500E1;-2.877175212E-1;-4.767192602E-1;-5.211657882E-1
1.741365200E1;-2.974913716E-1;-3.734830320E-1;-4.955094457E-1
1.743341800E1;-3.469714522E-1;-2.213775665E-1;-8.021638393E-1
1.744363000E1;-3.329215348E-1;-1.505171955E-1;-1.102709413E0
1.746338300E1;2.809980139E-2;6.145304069E-2;-1.522984743E0
1.747358000E1;3.585779071E-1;1.598023474E-1;-1.611560225E0
1.749347700E1;9.596692920E-1;3.137403727E-1;-1.582238674E0
1.750352600E1;1.144761443E0;3.772703707E-1;-1.432576656E0
1.752378400E1;1.211956620E0;9.343794584E-1;-7.337468863E-1
1.754339500E1;9.975429773E-1;1.573955417E0;-1.082208827E-1
1.756343300E1;6.921103597E-1;1.992398024E0;5.875546336E-1
1.757365400E1;4.422664344E-1;1.938031077E0;9.033719301E-1
1.758396400E1;1.001818925E-1;1.705902219E0;1.159324527E0
1.760335700E1;-6.206390858E-1;8.903971910E-1;1.460481167E0
1.761362000E1;-8.888089061E-1;4.560719728E-1;1.537450075E0
1.763338600E1;-1.109942198E0;-1.389107555E-1;1.613197446E0
1.764339700E1;-1.047023058E0;-2.213775665E-1;1.619306087E0
1.765340100E1;-8.949175477E-1;-1.651779562E-1;1.616862655E0
1.766341600E1;-6.957755089E-1;-1.001819037E-2;1.617473483E0
1.768350200E1;-3.072652221E-1;3.736051619E-1;1.676116586E0
1.770332400E1;-2.131919712E-1;6.368880868E-1;1.715211868E0
1.772333600E1;-3.830125034E-1;9.435424209E-1;1.542337060E0
1.773372700E1;-3.457497060E-1;1.057774305E0;1.447042108E0
1.775415600E1;-1.099557430E-1;1.256916285E0;1.274778128E0
1.777342600E1;1.117883325E-1;1.323500633E0;1.189867854E0
1.778362500E1;1.435533315E-1;1.288681269E0;1.181926608E0
1.779505000E1;1.282816976E-1;1.240422964E0;1.191089511E0
1.781342100E1;6.291912496E-2;1.207436204E0;1.257673860E0
1.783396600E1;2.382374182E-2;1.254472852E0;1.356634021E0
1.785340500E1;6.719517708E-2;1.358930826E0;1.374959946E0
1.786361900E1;1.258382350E-1;1.407189131E0;1.356634021E0
1.788364000E1;2.858849466E-1;1.474384308E0;1.294325709E0
1.790337800E1;4.392121136E-1;1.485379934E0;1.228963137E0
1.791351100E1;4.386012554E-1;1.427958608E0;1.195365548E0
1.793331300E1;3.469714820E-1;1.307007313E0;1.206972003E0
1.794339700E1;2.968805134E-1;1.233703494E0;1.216135025E0
1.796339900E1;2.217440754E-1;1.062050343E0;1.186202645E0
1.797345700E1;2.254092842E-1;9.356011748E-1;1.135500789E0
1.799336600E1;3.573561907E-1;6.393315792E-1;1.024323344E0
1.800342200E1;4.532620311E-1;5.544213057E-1;9.950017333E-1
1.801368100E1;5.271767378E-1;4.969999790E-1;9.840061665E-1
1.803457800E1;5.186246037E-1;5.568647385E-1;9.870604873E-1
1.805340200E1;3.469714820E-1;8.128172755E-1;1.002943039E0
1.806360400E1;3.036000431E-1;1.027841806E0;1.004164696E0
1.807361800E1;3.298672438E-1;1.311283350E0;1.001110435E0
1.809343200E1;6.236934066E-1;1.848844767E0;9.650693536E-1
1.810347300E1;1.144150615E0;2.071810484E0;8.074660897E-1
1.812351300E1;1.556484699E0;1.755382299E0;7.249993086E-1
1.814346700E1;1.335351467E0;1.269133568E0;8.190725446E-1
1.816337600E1;6.169739366E-1;8.427496552E-1;9.467433691E-1
1.817341900E1;2.742784917E-1;7.523416281E-1;9.180327058E-1
1.819333800E1;-7.269296050E-2;8.769581318E-1;6.126000881E-1
1.820353300E1;-7.452556491E-2;9.655336142E-1;3.566475511E-1
1.822336100E1;9.101891518E-2;9.649227262E-1;-1.216599196E-1
1.823340600E1;1.600466967E-1;7.896044254E-1;-3.592865169E-1
1.824343100E1;1.863138974E-1;5.208237171E-1;-6.164608002E-1
1.826330400E1;1.258382350E-1;-2.519208193E-1;-1.135696173E0
1.827340600E1;9.285151958E-2;-6.141639352E-1;-1.410585523E0
1.829340100E1;1.038470864E-1;-1.091860533E0;-1.925544977E0
1.830342900E1;-9.162979200E-3;-1.053376079E0;-2.267018795E0
1.832339500E1;-1.429424733E-1;-3.337767720E-1;-2.406296015E0
1.834356900E1;1.991420686E-1;6.460510492E-1;-2.438060999E0
1.836339900E1;7.024950385E-1;1.336328745E0;-2.257855654E0
1.837517500E1;8.417723179E-1;1.458501816E0;-2.071541786E0
1.839347600E1;8.100073338E-1;1.274020553E0;-1.654931664E0
1.841341500E1;4.526511431E-1;6.998072267E-1;-1.274973512E0
1.842353500E1;1.850921661E-1;4.065918922E-1;-1.123478889E0
1.844330100E1;-2.290744781E-1;-3.995058686E-2;-9.304454923E-1
1.845337800E1;-3.488040566E-1;-1.731192023E-1;-8.620285988E-1
1.846355300E1;-4.147774875E-1;-2.171014994E-1;-8.186571598E-1
1.848331800E1;-3.738495111E-1;-1.792278588E-1;-7.258056402E-1
1.849337800E1;-3.029891551E-1;-1.511280537E-1;-5.535416603E-1
1.850351500E1;-1.942551583E-1;-1.175304800E-1;-4.832921624E-1
1.852355900E1;-1.569923759E-1;-1.034805775E-1;-3.855537176E-1
1.853410100E1;-1.172861308E-1;-6.133086979E-2;-3.678386211E-1
1.855332300E1;3.298671916E-2;4.984660447E-2;-3.458474874E-1
1.857330700E1;2.266310006E-1;1.579697579E-1;-3.629516959E-1
1.858354400E1;3.231477141E-1;1.781283021E-1;-3.635625839E-1
1.859370900E1;3.738495409E-1;1.726305187E-1;-3.324084580E-1
1.861336100E1;3.060435057E-1;4.373795167E-2;-1.888550967E-1
1.862359800E1;1.771509200E-1;-5.644394830E-2;-9.966877103E-2
1.864344700E1;-3.054326400E-2;-1.468520015E-1;3.044552356E-2
1.866342000E1;-4.459316283E-2;-1.242499948E-1;1.123014688E-1
1.867359300E1;1.832595840E-2;-6.805038452E-2;1.361252069E-1
1.869359800E1;2.290744632E-1;1.683544666E-1;2.020986676E-1
1.871344500E1;3.426954150E-1;3.253468275E-1;2.509678602E-1
1.872347600E1;3.940081000E-1;3.791029453E-1;2.863980532E-1
1.874334200E1;4.196644425E-1;3.668856621E-1;3.774169683E-1
1.875358100E1;4.214970171E-1;3.876550794E-1;4.006298482E-1
1.877337800E1;4.276056886E-1;3.803246915E-1;4.085710943E-1
1.878353400E1;4.502077103E-1;3.681073785E-1;4.024624527E-1
1.880328400E1;4.978551865E-1;2.734232843E-1;3.798604310E-1
1.881376700E1;4.783074856E-1;2.312735915E-1;3.566475511E-1
1.883330500E1;3.891211748E-1;1.811826378E-1;2.937284410E-1
1.884346800E1;3.488040566E-1;1.817934960E-1;2.625743151E-1
1.886340500E1;2.809980214E-1;2.386039644E-1;2.039312571E-1
1.887341200E1;2.681698501E-1;2.819753885E-1;1.538403034E-1
1.889339700E1;3.543018401E-1;4.737870693E-1;-1.167729944E-1
1.890340000E1;4.294382930E-1;5.648059845E-1;-2.010723948E-1
1.891343500E1;5.088507533E-1;6.509379745E-1;-2.499416322E-1
1.892349400E1;5.687155724E-1;7.297396064E-1;-2.591046095E-1
1.894354200E1;5.479461551E-1;8.213694096E-1;-1.784703881E-1
1.896382900E1;4.337143302E-1;8.616865277E-1;-1.467053890E-1
1.898335800E1;5.057964325E-1;9.386554956E-1;-2.255070060E-1
1.899347800E1;6.359107494E-1;9.582031965E-1;-2.963674068E-1
1.900384700E1;7.947356701E-1;9.649227262E-1;-3.770016134E-1
1.901404300E1;9.468411207E-1;9.533162713E-1;-4.625227451E-1
1.903344800E1;1.200350165E0;8.800124526E-1;-6.323432922E-1
1.904408500E1;1.219287038E0;7.285178900E-1;-6.793798804E-1
1.906336100E1;7.990117669E-1;2.935818136E-1;-7.459642291E-1
1.907337900E1;4.086688459E-1;1.075122878E-2;-7.875030637E-1
1.908388300E1;-2.138028443E-1;-4.785518348E-1;-1.020242691E0
1.910342100E1;-1.612684280E-1;-6.789156199E-1;-1.403255105E0
1.912352300E1;4.520402849E-1;-5.426927209E-1;-1.694027066E0
1.914336300E1;1.013425469E0;-2.513099611E-1;-1.632940531E0
1.915338200E1;1.173472166E0;-6.621779501E-2;-1.499161005E0
1.917344400E1;1.236391306E0;3.284011483E-1;-1.226715088E0
1.919344600E1;9.975429773E-1;8.280889392E-1;-9.377759099E-1
1.921337400E1;6.188064814E-1;1.170173407E0;-4.655770659E-1
1.922341600E1;3.659082949E-1;1.236757755E0;-1.393750161E-1
1.924352900E1;-2.003637999E-1;1.091371894E0;5.270789266E-1
1.926338600E1;-7.880161405E-1;6.594901085E-1;1.062807798E0
1.928329500E1;-1.080620646E0;1.011592895E-1;1.272945523E0
1.929340900E1;-9.700539708E-1;8.772024512E-2;1.286995411E0
1.930348500E1;-7.855727077E-1;1.481959075E-1;1.336475492E0
1.932335800E1;-4.129448831E-1;3.674965203E-1;1.530119777E0
1.933368400E1;-3.029891551E-1;4.615697563E-1;1.645573258E0
1.934438200E1;-2.712241709E-1;5.312083960E-1;1.739035606E0
1.936329600E1;-4.172209501E-1;6.295577288E-1;1.840439320E0
1.937333300E1;-5.009095073E-1;6.802595258E-1;1.835552335E0
1.938334400E1;-5.418374538E-1;7.364591360E-1;1.800733089E0
1.939335800E1;-5.357288122E-1;8.128172755E-1;1.739646554E0
1.941344500E1;-3.885102868E-1;1.010737658E0;1.545391321E0
1.942403900E1;-2.840523422E-1;1.100534797E0;1.414055347E0
1.944337200E1;-9.529498219E-2;1.286237836E0;1.159935355E0
1.946360100E1;4.886921868E-2;1.421849966E0;1.048757911E0
1.948330200E1;1.386664063E-1;1.632598400E0;1.075025082E0
1.949375400E1;1.631010175E-1;1.702237129E0;1.091518521E0
1.951341900E1;2.113593668E-1;1.824410081E0;1.093351126E0
1.953331200E1;2.895501256E-1;1.922759414E0;1.049979687E0
1.954366900E1;3.689626157E-1;1.983845949E0;1.031653762E0
1.955380900E1;4.557054937E-1;2.036991119E0;1.027377605E0
1.957341100E1;5.589417219E-1;2.110295057E0;1.032875419E0
1.958343000E1;5.668829679E-1;2.106019020E0;1.034097195E0
1.959345700E1;5.546656251E-1;2.083416939E0;1.030431986E0
1.961335300E1;5.143485665E-1;1.994230747E0;1.037762403E0
1.962376800E1;4.862487316E-1;1.931922436E0;1.046314478E0
1.964331500E1;4.361577928E-1;1.817079782E0;1.051201344E0
1.966367100E1;3.732386827E-1;1.715676069E0;1.052423120E0
1.968336400E1;2.809980214E-1;1.584950924E0;1.044481874E0
1.969339900E1;2.486221641E-1;1.548299074E0;1.035929799E0
1.970351000E1;2.290744632E-1;1.529362202E0;1.018214703E0
1.972349400E1;2.443460971E-1;1.476216912E0;9.510194659E-1
1.974373800E1;2.614503503E-1;1.457890987E0;7.970814109E-1
1.976337200E1;2.877175510E-1;1.544023037E0;6.358129978E-1
1.977343600E1;3.011565804E-1;1.619159460E0;5.924415588E-1
1.978349200E1;2.950479388E-1;1.690019727E0;5.588439703E-1
1.980359800E1;2.645046711E-1;1.778595209E0;4.104036987E-1
1.982372800E1;4.007275999E-1;1.803029895E0;9.031032026E-2
1.984356400E1;6.969972849E-1;1.746830225E0;-3.904406428E-1
1.986335400E1;8.478809595E-1;1.478049517E0;-8.082724810E-1
1.988337200E1;6.285803318E-1;6.875898838E-1;-1.142415643E0
1.989434100E1;4.709771276E-1;3.540574908E-1;-1.212054372E0
1.991336100E1;2.419026345E-1;-2.928487957E-1;-1.405087709E0
1.992350600E1;2.333505303E-1;-6.257703900E-1;-1.580406070E0
1.994331200E1;2.822197676E-1;-1.254350662E0;-1.891947389E0
1.995332600E1;2.205223590E-1;-1.485868692E0;-1.963418603E0
1.996364200E1;9.590584040E-2;-1.661186934E0;-2.030003071E0
1.998333600E1;-1.411098689E-1;-1.697838902E0;-2.224258184E0
1.999345200E1;-2.040289938E-1;-1.465710044E0;-2.367811441E0
2.000359500E1;-1.594358236E-1;-9.990090132E-1;-2.500980139E0
2.001682900E1;6.169738993E-2;-3.857003152E-1;-2.565731764E0
2.003468600E1;9.486737251E-1;8.958949447E-1;-2.449667454E0
2.005345000E1;1.691485882E0;1.656422138E0;-1.932875276E0
2.006368200E1;1.776396155E0;1.692463279E0;-1.257869244E0
2.008334300E1;9.608910084E-1;4.261395931E-1;-6.182934046E-1
2.009418000E1;4.367686510E-1;-2.183232307E-1;-3.464583457E-1
2.011335800E1;-5.418374538E-1;-1.311771989E0;5.182580650E-2
2.012339900E1;-7.947356701E-1;-1.626978517E0;1.697227955E-1
2.013346200E1;-8.649851680E-1;-1.769920945E0;2.424157709E-1
2.014352200E1;-8.020660281E-1;-1.762590647E0;2.827328444E-1
2.016345000E1;-4.630358517E-1;-1.417451739E0;2.876197696E-1
2.018333900E1;-1.331686229E-1;-8.805011511E-1;1.752205938E-1
2.019339500E1;1.282817125E-2;-6.288247108E-1;8.542339504E-2
2.020439000E1;1.490511149E-1;-4.156327248E-1;3.567453474E-3
2.022333400E1;3.652974367E-1;-1.663996875E-1;-8.012108505E-2
2.024342500E1;4.318817258E-1;-1.004262418E-1;-8.256454021E-2
2.026341700E1;3.610213697E-1;-2.103819847E-1;3.288898617E-2
2.027449900E1;3.371976316E-1;-2.085493952E-1;5.549099669E-2
2.028721100E1;3.237586021E-1;-1.584584415E-1;8.420167118E-2
2.030341600E1;3.518583775E-1;3.213151172E-2;1.232970431E-1
2.032336500E1;3.433062732E-1;2.007303238E-1;1.990443319E-1
2.033415300E1;3.084869683E-1;2.489886731E-1;2.228680849E-1
2.035336900E1;2.211332172E-1;2.966361642E-1;2.399723083E-1
2.037340800E1;1.643227488E-1;2.453234941E-1;2.613525689E-1
2.039338700E1;1.014036238E-1;1.231504381E-1;2.845654488E-1
2.040358100E1;5.986479297E-2;4.740314186E-2;2.980044782E-1
2.042342400E1;-3.115412779E-2;-5.461135134E-2;3.548149467E-1
2.044360400E1;-8.735372871E-2;-6.866125762E-2;4.055167735E-1
2.046335200E1;-3.115412779E-2;1.075122878E-2;4.299513698E-1
2.047338900E1;3.665190190E-3;4.129448906E-2;4.159014821E-1
2.048339200E1;4.398230091E-2;6.572909653E-2;3.835256100E-1
2.049339900E1;9.224064648E-2;7.367034256E-2;3.425976634E-1
2.050350500E1;1.252273768E-1;8.100073040E-2;2.943392992E-1
2.052455800E1;1.154535264E-1;1.200961173E-1;1.746097207E-1
2.054376400E1;1.490511149E-1;2.667037547E-1;9.214291722E-2
2.056337300E1;2.663372457E-1;4.340808392E-1;6.648657471E-2
2.057347900E1;3.152064681E-1;4.994434118E-1;5.243667215E-2
2.059340200E1;3.689626157E-1;5.623625517E-1;2.555860206E-2
2.060355100E1;3.775147200E-1;5.898514986E-1;6.621779408E-3
2.062336400E1;4.605923891E-1;7.211874723E-1;-3.064100072E-2
2.063339100E1;5.418374538E-1;8.238128424E-1;-4.835609347E-2
2.064344300E1;6.236934066E-1;9.569814801E-1;-6.057339534E-2
2.066335000E1;7.672467828E-1;1.387030602E0;-5.751907453E-2
2.068348100E1;7.764097452E-1;1.584950924E0;-8.806233108E-2
2.070334400E1;8.087856174E-1;1.663141727E0;-1.247142404E-1
2.072357300E1;7.165449262E-1;1.583729267E0;-5.595524795E-3
2.074332900E1;4.098905921E-1;1.278296590E0;1.526185721E-1
2.075334800E1;1.912008226E-1;1.014402866E0;1.703336686E-1
2.076334900E1;-3.481931984E-2;7.071375847E-1;9.458637983E-2
2.077347900E1;-2.327396572E-1;4.065918922E-1;-1.021122336E-1
2.079336900E1;-3.139847219E-1;-2.076941542E-3;-7.111449242E-1
2.081337800E1;-1.832596958E-3;-2.146580368E-1;-1.106374621E0
2.083345400E1;1.478293836E-1;-5.583308265E-2;-1.041012049E0
2.085338800E1;2.596177459E-1;4.206418097E-1;-6.286780834E-1
2.087335300E1;2.486221641E-1;9.288817048E-1;-2.707110643E-1
2.089343400E1;1.948660165E-1;1.369926333E0;1.630032808E-1
2.090372600E1;1.282816976E-1;1.455447555E0;4.275079072E-1
2.092338000E1;-2.522873282E-1;1.288070440E0;1.027377605E0
2.093348500E1;-4.740314186E-1;1.086484909E0;1.264393330E0
2.095330600E1;-7.648032904E-1;6.747617126E-1;1.548445702E0
2.096334300E1;-8.002334833E-1;5.318192840E-1;1.616862655E0
2.097337500E1;-7.770205736E-1;4.475198686E-1;1.663288355E0
2.099357700E1;-6.096435189E-1;4.670675695E-1;1.765913725E0
2.100391100E1;-5.045747161E-1;5.067737699E-1;1.827000260E0
2.102358900E1;-3.878994286E-1;5.660277009E-1;1.949784160E0
2.104357100E1;-4.349360466E-1;5.501452088E-1;2.043857336E0
2.106350700E1;-5.057964325E-1;5.287649632E-1;2.021866083E0
2.108330600E1;-4.648684263E-1;5.507560968E-1;1.957725406E0
2.109365800E1;-4.105014205E-1;5.477017760E-1;1.877091169E0
2.111341800E1;-2.651154995E-1;5.018868446E-1;1.629690766E0
2.112343000E1;-2.021964043E-1;4.548502564E-1;1.496522188E0
2.114424500E1;-2.284636050E-1;2.874731719E-1;1.280275822E0
2.116338300E1;-3.646865487E-1;1.573588848E-1;1.090907693E0
2.117339600E1;-4.318817258E-1;1.317025572E-1;1.015771270E0
2.119383300E1;-4.349360466E-1;1.988977343E-1;8.929872513E-1
2.121337600E1;-1.912008226E-1;3.986506462E-1;8.056334853E-1
2.123334100E1;1.502728462E-1;6.368880868E-1;7.366057634E-1
2.124336100E1;4.324926138E-1;8.439714313E-1;7.115602493E-1
2.126331800E1;6.084218025E-1;1.011348486E0;7.201123834E-1
2.128335000E1;7.580837607E-1;1.140851974E0;7.256101370E-1
2.130329200E1;8.888089657E-1;1.266079307E0;6.920125484E-1
2.131346100E1;9.535606503E-1;1.343659163E0;6.785735488E-1
2.133334600E1;1.092837930E0;1.482936502E0;6.828495860E-1
2.135334700E1;1.157589674E0;1.577620625E0;7.225558162E-1
2.136391900E1;1.161865711E0;1.597168207E0;7.366057634E-1
2.138333700E1;1.134987593E0;1.537303448E0;7.152254581E-1
2.139333700E1;1.124602914E0;1.500651598E0;6.785735488E-1
2.140339900E1;1.147204995E0;1.447506309E0;6.449759603E-1
2.141344300E1;1.185689449E0;1.381532788E0;6.205413342E-1
2.143355600E1;1.242499948E0;1.241644740E0;5.533461571E-1
2.144388200E1;1.239445567E0;1.096258759E0;5.337984562E-1
2.146346500E1;1.198517680E0;9.673662186E-1;5.234137774E-1
2.148335400E1;1.137431145E0;8.946732283E-1;5.197485685E-1
2.149365900E1;1.148426652E0;8.598539233E-1;5.026443601E-1
2.151386100E1;1.232115269E0;6.723182797E-1;4.165123403E-1
2.153335200E1;1.142928839E0;4.359134138E-1;2.424157709E-1
2.154414000E1;1.054964304E0;3.351206481E-1;1.385686696E-1
2.156343500E1;8.967502117E-1;2.685363591E-1;-1.131078005E-1
2.157369300E1;8.552113771E-1;3.253468275E-1;-2.652132809E-1
2.159342600E1;1.050077319E0;6.692639589E-1;-5.602611899E-1
2.161340200E1;1.649336219E0;1.167729974E0;-7.398555875E-1
2.162350500E1;1.963320971E0;1.379700184E0;-7.618467212E-1
2.164356300E1;2.434908867E0;1.625878930E0;-6.720495224E-1
2.166333400E1;2.211943150E0;1.593503118E0;-8.131594062E-1
2.167335800E1;1.898569226E0;1.601444364E0;-9.628213644E-1
2.169344300E1;1.164920092E0;1.531805634E0;-1.376377106E0
2.171345800E1;9.798278809E-1;1.460334420E0;-1.851630211E0
2.172347800E1;1.181413412E0;1.372980714E0;-2.078261375E0
2.174339800E1;1.799609065E0;1.035172224E0;-2.297561884E0
2.176338800E1;1.901623487E0;4.007276148E-2;-2.000070572E0
2.178359200E1;9.706648588E-1;-1.053986907E0;-1.592012525E0
2.180329500E1;4.703662172E-2;-1.665462971E0;-1.614003658E0
2.181367800E1;-4.459316283E-2;-1.542068243E0;-1.794208884E0
2.183335500E1;8.319984674E-1;2.117258906E-1;-2.168058634E0
2.185364300E1;1.689042449E0;1.455447555E0;-1.800928473E0
2.186612100E1;1.913840771E0;1.808527589E0;-1.430133224E0
2.188332900E1;1.622458100E0;1.839681745E0;-5.730893612E-1
2.189369200E1;1.105055213E0;1.620991945E0;-2.627698183E-1
2.191354700E1;-2.736676335E-1;8.427496552E-1;5.121494085E-2
2.192355100E1;-9.193521738E-1;4.872260988E-1;1.159666628E-1
2.193360700E1;-1.396437883E0;1.940108091E-1;1.794966459E-1
2.195339900E1;-1.771509171E0;-1.749518067E-1;3.316020668E-1
2.196347600E1;-1.712255239E0;-2.342057377E-1;4.085710943E-1
2.198331000E1;-1.323745012E0;-2.146580368E-1;5.374636650E-1
2.199360400E1;-1.114218235E0;-1.712866127E-1;5.692286491E-1
2.200505700E1;-9.480628371E-1;-1.450194120E-1;5.704503655E-1
2.201933800E1;-8.063421249E-1;-1.444085389E-1;5.008117557E-1
2.203338000E1;-7.556402683E-1;-1.981646866E-1;3.786387146E-1
2.204574300E1;-7.189883590E-1;-2.390926480E-1;3.138870001E-1
2.206342500E1;-5.839871764E-1;-3.802025318E-1;1.788857877E-1
2.207344300E1;-5.161811113E-1;-4.736649096E-1;1.196318492E-1
2.209339500E1;-4.587597847E-1;-6.312681437E-1;-9.773857892E-5
2.210350300E1;-4.728097022E-1;-7.045719624E-1;-4.408003762E-2
2.212335200E1;-5.540547371E-1;-7.314500809E-1;-3.552792221E-2
2.213338200E1;-5.613851547E-1;-6.166073680E-1;-7.086033002E-4
2.214353800E1;-5.033529401E-1;-4.327369630E-1;3.899763897E-2
2.216332400E1;-2.425135076E-1;9.773839265E-4;1.031384915E-1
2.217334600E1;-1.050688177E-1;1.921782047E-1;1.281839609E-1
2.218379400E1;6.108652800E-3;3.369532526E-1;1.361252069E-1
2.220331800E1;1.221730411E-1;4.927238822E-1;1.446773261E-1
2.221338800E1;1.380555481E-1;4.994434118E-1;1.654467434E-1
2.223344400E1;-1.221730560E-2;2.062281072E-1;3.108326495E-1
2.225332400E1;-1.777617931E-1;-5.155702680E-2;3.670322597E-1
2.226369800E1;-2.357939929E-1;-1.413542181E-1;3.920777440E-1
2.228351700E1;-2.834414840E-1;-2.274862081E-1;4.531642497E-1
2.229361500E1;-2.608394623E-1;-2.439795732E-1;4.696576297E-1
2.231337000E1;-1.692096740E-1;-2.354274690E-1;4.690467715E-1
2.232341000E1;-1.191187203E-1;-2.171014994E-1;4.507207870E-1
2.234351300E1;-1.954768784E-2;-2.061059326E-1;3.688648641E-1
2.236346900E1;3.420845047E-2;-1.737300754E-1;2.192028910E-1
2.238350500E1;1.777617782E-1;-1.285260469E-1;-1.319468953E-3
2.239353700E1;2.895501256E-1;-7.965682447E-2;-1.216599196E-1
2.241332700E1;5.919284225E-1;5.290092900E-2;-3.525669873E-1
2.242335800E1;9.071348906E-1;1.927890778E-1;-5.339939594E-1
2.244331100E1;1.171028733E0;4.737870693E-1;-6.482257843E-1
2.245333900E1;1.307251692E0;6.576575041E-1;-6.598322392E-1
2.246365200E1;1.426981211E0;8.549669981E-1;-6.445605755E-1
2.247398400E1;1.521665335E0;1.060828567E0;-6.329541206E-1
2.249342200E1;1.581530094E0;1.371758938E0;-5.993565321E-1
2.250372900E1;1.521054506E0;1.474384308E0;-5.981348157E-1
2.252344600E1;1.271210551E0;1.547688127E0;-6.689952016E-1
2.254332800E1;1.041525245E0;1.446895361E0;-7.276382446E-1
2.255375500E1;9.462302923E-1;1.288681269E0;-7.453533411E-1
2.257342900E1;6.939429045E-1;7.871609330E-1;-8.522547483E-1
2.259353000E1;4.300491512E-1;1.219287068E-1;-1.181511045E0
2.261332700E1;3.506366611E-1;-4.107457995E-1;-2.011677027E0
2.262346900E1;6.401867867E-1;-5.689598918E-1;-2.253579617E0
2.264335600E1;1.103222609E0;-3.264463842E-1;-2.391635180E0
2.266335200E1;1.579086661E0;3.420844674E-3;-2.136904478E0
2.267344100E1;1.724472642E0;1.359786093E-1;-1.911495090E0
2.269343100E1;1.583973646E0;4.530176520E-1;-1.306738496E0
2.270356500E1;1.302364707E0;6.674313545E-1;-9.548801184E-1
2.272337400E1;5.650503635E-1;9.746965766E-1;-2.994217277E-1
2.274329500E1;-1.447750628E-1;1.046778679E0;1.507859826E-1
2.275335100E1;-3.677408695E-1;1.019900560E0;2.857871950E-1
2.277335000E1;-6.316346526E-1;7.535633445E-1;4.647707045E-1
2.279392900E1;-9.645562172E-1;5.477017760E-1;5.600656867E-1
2.281332000E1;-1.237612963E0;5.861862898E-1;6.388673186E-1
2.282334100E1;-1.268156290E0;7.444003820E-1;6.920125484E-1
2.283334100E1;-1.247997642E0;9.710313678E-1;7.622620463E-1
2.284354800E1;-1.156978726E0;1.224540472E0;8.606113791E-1
2.286329900E1;-8.497135639E-1;1.740110755E0;1.123283505E0
2.287334600E1;-7.043276429E-1;1.947804928E0;1.274778128E0
2.288341100E1;-5.913175344E-1;2.098688602E0;1.421996593E0
2.289349800E1;-4.899139106E-1;2.194594383E0;1.535617590E0
2.291343000E1;-2.761110961E-1;2.168938160E0;1.654125452E0
2.292343200E1;-1.905899644E-1;2.058982372E0;1.676727414E0
2.294332100E1;-2.009746730E-1;1.821966648E0;1.734759569E0
2.295362800E1;-3.011565506E-1;1.750495434E0;1.787294030E0
2.297333200E1;-5.222898126E-1;1.683911085E0;1.891141057E0
2.299470900E1;-5.198463202E-1;1.626489758E0;1.977883935E0
2.301420900E1;-2.131919712E-1;1.380311131E0;1.998042583E0
2.303337400E1;-1.588249765E-2;1.052276492E0;1.969331861E0
2.304376600E1;2.809980139E-2;8.855102658E-1;1.944286346E0
2.306341600E1;-6.719518453E-3;6.222273111E-1;1.933290839E0
2.308353100E1;-7.086037099E-2;4.591262937E-1;1.982770920E0
2.310337300E1;-5.742133409E-2;3.784920871E-1;2.021255255E0
2.311374200E1;-3.115412779E-2;3.632204533E-1;2.021866083E0
2.313335100E1;5.375614390E-2;3.442836404E-1;1.996209979E0
2.314355600E1;1.288925558E-1;3.546683490E-1;1.946118951E0
2.316339800E1;3.054326475E-1;3.784920871E-1;1.747587800E0
2.317342800E1;3.964515626E-1;3.870442212E-1;1.624803901E0
2.319344400E1;5.723807216E-1;4.365243018E-1;1.344416738E0
2.321332400E1;8.429940343E-1;6.002361774E-1;9.992777705E-1
2.322335900E1;9.004153609E-1;6.582683921E-1;9.235305190E-1
2.324380500E1;9.334021211E-1;7.908261418E-1;8.160182238E-1
2.326337700E1;9.364564419E-1;9.075013995E-1;6.797952652E-1
2.327344700E1;9.340129495E-1;9.563705921E-1;6.003828049E-1
2.329348700E1;9.456194043E-1;1.062661171E0;4.226210117E-1
2.331337700E1;9.926559925E-1;1.249585986E0;1.324600130E-1
2.333331200E1;1.157589674E0;1.465221405E0;-2.022941262E-1
2.334337000E1;1.280984402E0;1.539746881E0;-3.556213379E-1
2.336353300E1;1.518000126E0;1.546466470E0;-6.494475007E-1
2.337392600E1;1.576032400E0;1.478049517E0;-7.600141168E-1
2.339340400E1;1.500285029E0;1.259359837E0;-9.188390970E-1
2.341332900E1;1.145983219E0;5.758015513E-1;-1.140583158E0
2.342345100E1;9.388998747E-1;2.630385756E-1;-1.337892532E0
2.343378900E1;7.409795523E-1;-9.065240622E-2;-1.610338449E0
2.345347600E1;5.119050741E-1;-9.312030077E-1;-2.063600540E0
2.346359500E1;3.903428912E-1;-1.372858524E0;-2.165004253E0
2.348343600E1;-1.771509200E-1;-2.080851316E0;-2.275570869E0
2.349356100E1;-5.784893632E-1;-2.293432474E0;-2.361702919E0
2.351339100E1;-1.075733662E0;-2.236622095E0;-2.694624424E0
2.352343800E1;-1.021366715E0;-1.900035262E0;-2.886435986E0
2.354353700E1;-3.628539443E-1;-6.813591123E-1;-3.054424047E0
2.356331500E1;6.725626588E-1;6.662096381E-1;-2.781978130E0
2.357340600E1;1.070235968E0;1.198884130E0;-2.500369310E0
2.359415000E1;1.378722906E0;1.865338087E0;-1.549251914E0
2.361335500E1;9.236282706E-1;1.432234645E0;-1.044677258E0
2.362338800E1;5.772676468E-1;1.041891694E0;-8.406483531E-1
2.364331700E1;-2.076941878E-1;2.001194507E-1;-4.918442965E-1
2.365336800E1;-5.296201706E-1;-1.975538135E-1;-3.861645758E-1
2.366337900E1;-7.629706860E-1;-5.481904745E-1;-3.171368241E-1
2.368338500E1;-9.108000994E-1;-1.013669848E0;-2.053484619E-1
2.369339000E1;-8.497135639E-1;-1.123014688E0;-1.332663596E-1
2.371330700E1;-6.065891981E-1;-1.038715243E0;-1.475850400E-2
2.372348300E1;-4.844161272E-1;-9.214291573E-1;4.388456047E-2
2.374332800E1;-3.769038320E-1;-6.935763955E-1;1.709445268E-1
2.376334400E1;-4.440990090E-1;-6.056118011E-1;2.815111279E-1
2.377343300E1;-4.966334403E-1;-5.903401971E-1;3.236608207E-1
2.379336400E1;-4.905247688E-1;-5.549100041E-1;3.157195747E-1
2.381333900E1;-3.567453027E-1;-5.390275121E-1;3.090000749E-1
2.382350700E1;-2.858849168E-1;-5.536882877E-1;3.303803504E-1
2.384339400E1;-2.254092842E-1;-5.836206675E-1;3.688648641E-1
2.385351700E1;-2.180788964E-1;-5.964488387E-1;3.896342814E-1
2.387336100E1;-1.869247705E-1;-5.659055710E-1;4.299513698E-1
2.389333600E1;-1.288925707E-1;-4.382347465E-1;4.934813678E-1
2.390341800E1;-9.224065393E-2;-3.527136147E-1;5.301333070E-1
2.392344600E1;-5.681046844E-2;-1.938886195E-1;5.661743283E-1
2.393357300E1;-5.681046844E-2;-1.083674878E-1;5.698395371E-1
2.395337300E1;0.000000000E0;-2.223549411E-2;6.199304461E-1
2.397337000E1;-3.054326400E-2;-6.352998782E-3;6.608584523E-1
2.398337800E1;-7.330383360E-2;-3.689625859E-2;6.614692807E-1
2.400338900E1;-1.771509200E-1;-1.590692997E-1;5.924415588E-1
2.401346100E1;-2.034181356E-1;-2.061059326E-1;5.392962694E-1
2.402346900E1;-2.376265824E-1;-2.268753499E-1;4.788205922E-1
2.404357000E1;-1.985312104E-1;-1.975538135E-1;3.346564174E-1
2.406339200E1;-5.558873713E-2;-1.694540083E-1;2.570765316E-1
2.407685300E1;6.108656526E-4;-1.260825843E-1;2.192028910E-1
2.409349300E1;1.276708394E-1;-1.466076821E-3;7.259522378E-2
2.411343600E1;2.981022596E-1;1.854586899E-1;-1.234925091E-1
2.413341300E1;5.766568184E-1;4.065918922E-1;-3.085846901E-1
2.414343700E1;7.128797770E-1;5.238780379E-1;-3.770016134E-1
2.415354200E1;8.142833710E-1;6.527705789E-1;-4.277034104E-1
2.417340400E1;9.199630618E-1;9.032253623E-1;-4.539706409E-1
2.419397300E1;9.016371369E-1;1.083430529E0;-4.246490896E-1
2.421335200E1;9.334021211E-1;1.040059209E0;-7.099231482E-1
2.423420900E1;1.073290229E0;7.205766439E-1;-1.196171880E0
2.425331700E1;7.861835957E-1;4.557054862E-2;-1.381874919E0
2.427335000E1;-2.070833296E-1;-8.200255036E-1;-1.387372613E0
2.428337000E1;-7.886270285E-1;-1.261681080E0;-1.409363866E0
2.429337000E1;-1.308473349E0;-1.682567239E0;-1.455178738E0
2.431350700E1;-1.874134541E0;-2.226237297E0;-1.689140081E0
2.433336300E1;-1.692707539E0;-2.116281509E0;-1.997627139E0
2.434354000E1;-1.382998943E0;-1.865826845E0;-2.080704927E0
2.436365600E1;-6.273586154E-1;-1.149892807E0;-1.997016072E0
2.438013700E1;-4.276055843E-3;-4.736649096E-1;-1.833304286E0
2.439336700E1;3.347541690E-1;-5.766567960E-2;-1.395313859E0
2.441333000E1;3.396410942E-1;1.475850493E-1;-7.636793256E-1
2.442338700E1;2.083050460E-1;1.732413918E-1;-3.757798672E-1
2.444332200E1;-2.131919712E-1;2.618168294E-1;4.244535863E-1
2.445332700E1;-4.141666293E-1;3.094643354E-1;7.714250684E-1
2.446362400E1;-5.467243791E-1;3.833790123E-1;1.042038441E0
2.448335500E1;-6.084218025E-1;5.721364021E-1;1.444598556E0
2.449339700E1;-5.577199459E-1;6.625444293E-1;1.587541103E0
2.451333000E1;-4.190535545E-1;8.280889392E-1;1.828832865E0
2.452356400E1;-3.481931686E-1;8.879536986E-1;1.940621138E0
2.454348700E1;-2.907718420E-1;8.861210942E-1;2.125102282E0
2.456357400E1;-2.974913716E-1;8.036543131E-1;2.144649982E0
2.458344800E1;-1.313360333E-1;7.254635692E-1;1.949784160E0
2.460332000E1;-2.748893574E-2;7.456220984E-1;1.818448186E0
2.461334600E1;-1.954768784E-2;7.114136815E-1;1.752474666E0
2.462338600E1;-1.954768784E-2;6.619335413E-1;1.688333869E0
2.464444900E1;-8.124507964E-2;5.837427974E-1;1.594260573E0
2.466337300E1;-8.124507964E-2;5.904623270E-1;1.614419103E0
2.467344100E1;-6.780604273E-2;6.448293328E-1;1.669396996E0
2.469341100E1;3.787364438E-2;8.054869175E-1;1.732926965E0
2.470351400E1;1.453859210E-1;9.276599288E-1;1.745755196E0
2.472353800E1;4.532620311E-1;1.200105906E0;1.778131008E0
2.474338000E1;7.183775306E-1;1.451171517E0;1.766524553E0
2.476339100E1;8.845328689E-1;1.628322363E0;1.773854971E0
2.478334500E1;9.663888216E-1;1.621602893E0;1.878923774E0
2.479335500E1;9.608910084E-1;1.558683753E0;1.871593475E0
2.481340300E1;8.991936445E-1;1.382143736E0;1.838606715E0
2.482342400E1;8.533787727E-1;1.289292216E0;1.832498074E0
2.484333100E1;7.782423496E-1;1.112141252E0;1.858765244E0
2.486362100E1;7.208210230E-1;9.404881001E-1;1.895417213E0
2.488336500E1;6.823365092E-1;8.134281635E-1;1.848991394E0
2.489344900E1;6.805039048E-1;7.725001574E-1;1.804398298E0
2.491348200E1;7.434229851E-1;7.089701891E-1;1.696275115E0
2.493330700E1;8.527678847E-1;6.594901085E-1;1.539282680E0
2.494349400E1;9.065240622E-1;6.191729903E-1;1.439100862E0
2.495364600E1;9.431759715E-1;5.635842681E-1;1.328534245E0
2.497366800E1;8.344419599E-1;3.125186563E-1;1.041427493E0
2.499346500E1;6.884451509E-1;1.769065857E-1;9.229196310E-1
2.501525400E1;6.072000861E-1;6.084217504E-2;6.724649072E-1
2.503335800E1;5.705481768E-1;4.862487316E-2;2.216463536E-1
2.504387800E1;6.108652353E-1;8.466592431E-2;-7.086033002E-4
2.506337400E1;9.138544202E-1;2.935818136E-1;-3.409605622E-1
2.507344900E1;1.130711555E0;4.017049670E-1;-4.588575363E-1
2.509459000E1;1.489900351E0;6.002361774E-1;-5.657589436E-1
2.511344000E1;1.583973646E0;6.857573390E-1;-6.500583887E-1
2.513337100E1;1.482569933E0;6.998072267E-1;-7.569597960E-1
2.514345000E1;1.394605398E0;7.291287184E-1;-8.003312349E-1
2.516369300E1;1.091005325E0;9.227730036E-1;-9.206717014E-1
2.518332700E1;8.228355050E-1;1.117639065E0;-1.054451108E0
2.519356200E1;6.792821884E-1;1.178725600E0;-1.141804814E0
2.521336900E1;4.624249935E-1;1.080376267E0;-1.443572283E0
2.523330600E1;4.105014503E-1;6.808704138E-1;-1.954255581E0
2.524365000E1;3.958407044E-1;4.010941088E-1;-2.251747131E0
2.526348500E1;3.689626157E-1;-1.792278588E-1;-2.783810616E0
2.528339400E1;4.086688459E-1;-5.995031595E-1;-3.150940657E0
2.529351900E1;4.453207850E-1;-7.387804389E-1;-3.248679161E0
2.531332200E1;4.086688459E-1;-9.250943661E-1;-3.329313278E0
2.532337100E1;2.748893797E-1;-9.269269109E-1;-3.260285616E0
2.534333200E1;-5.070181563E-2;-5.549100041E-1;-2.849784136E0
2.536341300E1;1.368338168E-1;3.913202584E-1;-1.788100243E0
2.538330900E1;2.919935882E-1;5.678603053E-1;-1.079496622E0
2.539340300E1;1.637118757E-1;4.640132189E-1;-7.777292132E-1
2.541336400E1;-2.858849168E-1;3.457497433E-2;-4.063231349E-1
2.542366600E1;-4.850269854E-1;-1.835039109E-1;-3.556213379E-1
2.543368100E1;-5.852088928E-1;-3.209486008E-1;-3.733364046E-1
2.545337700E1;-4.263839424E-1;-4.028045535E-1;-4.380881190E-1
2.547342900E1;-4.948008433E-2;-2.836858332E-1;-4.044905305E-1
2.548358600E1;1.185078472E-1;-1.773952693E-1;-3.733364046E-1
2.549428200E1;2.217440754E-1;-9.309586883E-2;-3.287432492E-1
2.551358600E1;2.144136876E-1;-1.185078546E-2;-1.906876862E-1
2.553338100E1;1.533271670E-1;-3.017674387E-2;-8.745146543E-2
2.555344700E1;8.674286306E-2;-1.065348983E-1;-7.217983156E-2
2.556349100E1;2.504547313E-2;-1.517389268E-1;-8.195368201E-2
2.557372700E1;1.710422710E-2;-1.706757396E-1;-5.996252969E-2
2.559359300E1;-6.719517708E-2;-2.036624700E-1;3.227812052E-2
2.560391200E1;-1.252273768E-1;-1.767843962E-1;7.992561162E-2
2.562344300E1;-1.435533315E-1;-1.236391217E-1;1.886596233E-1
2.564371400E1;-1.191187203E-1;-1.040914357E-1;3.083891869E-1
2.566341300E1;-1.514945775E-1;-1.456302702E-1;3.444302380E-1
2.567353600E1;-1.588249654E-1;-1.492954642E-1;3.303803504E-1
2.568358500E1;-1.331686229E-1;-1.456302702E-1;3.175521791E-1
2.569362000E1;-1.020144969E-1;-1.236391217E-1;3.175521791E-1
2.571363400E1;-8.063421398E-2;-6.743952632E-2;3.480954468E-1
2.573344600E1;-9.285151958E-2;1.014036313E-2;3.865799606E-1
2.575336700E1;-9.407325089E-2;1.808161102E-2;5.698395371E-1
2.576344500E1;-1.441642046E-1;-2.712241746E-2;6.095457673E-1
2.577387700E1;-1.844813079E-1;-4.605923966E-2;6.132109761E-1
2.579337600E1;-1.594358236E-1;-6.194173545E-2;5.826677084E-1
2.581337100E1;-3.909537569E-2;-7.599163055E-2;5.020334721E-1
2.582343100E1;2.443458885E-3;-9.309586883E-2;4.342274368E-1
2.584334800E1;9.407325089E-2;-1.065348983E-1;2.405831665E-1
2.586340400E1;2.302961797E-1;-2.467895672E-2;4.510628805E-2
2.587341000E1;3.188716769E-1;5.106833205E-2;-3.613878787E-2
2.589336600E1;4.379903972E-1;2.312735915E-1;-1.540357769E-1
2.590356500E1;4.440990388E-1;3.198490441E-1;-1.961854845E-1
2.592345900E1;4.111123085E-1;4.890587330E-1;-2.725436389E-1
2.594336700E1;3.762930036E-1;6.442185044E-1;-3.024760485E-1
2.595405300E1;3.536909819E-1;7.584502697E-1;-3.183585405E-1
2.597343100E1;3.671300113E-1;8.525235057E-1;-3.953275681E-1
2.599347100E1;4.801400900E-1;9.795835018E-1;-5.498764515E-1
2.600350200E1;5.894849896E-1;1.075489283E0;-6.433388591E-1
2.601364600E1;7.122688890E-1;1.187277675E0;-7.129774690E-1
2.603332100E1;9.205739498E-1;1.460334420E0;-7.484076619E-1
2.604349400E1;1.012814641E0;1.599611759E0;-7.355794907E-1
2.606332500E1;1.176526427E0;1.803640723E0;-7.001492977E-1
2.607353000E1;1.222952247E0;1.840292573E0;-7.093123198E-1
2.609386900E1;1.183246017E0;1.733391166E0;-7.887247801E-1
2.611338400E1;8.985828161E-1;1.380311131E0;-7.294708490E-1
2.612338600E1;6.389650702E-1;1.137186766E0;-6.415062547E-1
2.614334400E1;5.925392732E-2;7.841066122E-1;-4.906225204E-1
2.616336800E1;-4.520402849E-2;4.945564866E-1;-1.108818054E0
2.617340400E1;1.734857261E-1;3.259576857E-1;-1.364770651E0
2.618390600E1;3.750712574E-1;1.231504381E-1;-1.566967010E0
2.620336000E1;6.084218025E-1;-2.690250576E-1;-1.608505845E0
2.622337400E1;9.663888216E-1;-5.017647147E-1;-1.317123175E0
2.624343400E1;1.341460109E0;-4.327369630E-1;-1.089881301E0
2.625350100E1;1.390329361E0;-3.826459944E-1;-1.011690497E0
2.627336500E1;1.156978726E0;-4.370130002E-1;-8.143811226E-1
2.629396900E1;6.585127711E-1;-4.180761874E-1;-4.777943790E-1
2.631336700E1;2.498438805E-1;-2.476447672E-1;-3.980398178E-2
2.632337000E1;5.681046471E-2;-1.566258520E-1;2.075964510E-1
2.634342800E1;-7.098253965E-1;1.097113937E-1;8.422853947E-1
2.636336300E1;-1.095892191E0;2.361605018E-1;1.095794559E0
2.637339000E1;-1.142928839E0;3.357315361E-1;1.133668184E0
2.638351400E1;-1.076955438E0;4.444655478E-1;1.135500789E0
2.640332500E1;-7.470881939E-1;6.643770337E-1;1.072581649E0
2.641343100E1;-5.742133260E-1;7.822740078E-1;1.056699157E0
2.642365400E1;-4.312708378E-1;8.714603186E-1;1.094572783E0
2.644330800E1;-2.535090744E-1;9.062796831E-1;1.243013024E0
2.645331400E1;-2.064724565E-1;8.464148641E-1;1.291882277E0
2.646340700E1;-1.698205471E-1;7.541742325E-1;1.322425604E0
2.648334000E1;-1.343903504E-2;5.721364021E-1;1.370683908E0
2.650333400E1;1.185078472E-1;4.798957109E-1;1.442766070E0
2.651340100E1;1.392772645E-1;5.232671499E-1;1.465368032E0
2.653344800E1;2.522873580E-1;7.590611577E-1;1.477585316E0
2.655332900E1;4.776966572E-1;1.187277675E0;1.311429977E0
2.656338500E1;5.241224170E-1;1.291735649E0;1.220411062E0
2.658343800E1;5.607743263E-1;1.388252378E0;1.128781319E0
2.660331200E1;5.326744914E-1;1.362596035E0;1.067694783E0
2.662349400E1;5.229006410E-1;1.312505007E0;9.656801820E-1
2.664333800E1;5.803219676E-1;1.328387499E0;8.227377534E-1
2.666355300E1;6.811147332E-1;1.457890987E0;7.030081749E-1
2.668357200E1;7.385361195E-1;1.616105080E0;6.242065430E-1
2.670342600E1;7.483099103E-1;1.751717210E0;4.892053008E-1
2.671345400E1;7.562511563E-1;1.784703851E0;4.140688777E-1
2.673334600E1;7.672467828E-1;1.834794879E0;1.397904009E-1
2.674337100E1;8.210029006E-1;1.854342580E0;7.626041770E-2
2.676333400E1;8.344419599E-1;1.835405707E0;-1.048244815E-2
2.677334100E1;8.326093554E-1;1.808527589E0;-4.163657501E-2
2.678347900E1;8.258898258E-1;1.763323665E0;-6.179512665E-2
2.680334900E1;7.635815740E-1;1.642983198E0;-9.966877103E-2
2.681377800E1;7.195992470E-1;1.582507491E0;-1.253251135E-1
2.683416300E1;6.743952632E-1;1.472551703E0;-1.467053890E-1
2.685333600E1;6.615670919E-1;1.361374259E0;-1.369315535E-1
2.686336400E1;6.548475623E-1;1.288070440E0;-1.063882858E-1
2.688330900E1;6.499606371E-1;1.126191139E0;-2.025629207E-2
2.689341500E1;6.658431292E-1;1.051054716E0;2.555860206E-2
2.691334600E1;7.086036801E-1;8.671842813E-1;1.037493572E-1
2.692347800E1;6.902777553E-1;7.859392166E-1;1.416230053E-1
2.693370500E1;6.304129362E-1;7.169114351E-1;2.314201891E-1
2.695346900E1;6.560692787E-1;8.403062224E-1;3.529823720E-1
2.696386700E1;7.397578359E-1;9.429315925E-1;4.000189900E-1
2.698337400E1;8.747590184E-1;1.157345295E0;5.582330823E-1
2.699341600E1;8.881980777E-1;1.217820883E0;6.345912218E-1
2.701343000E1;7.935139537E-1;1.263635874E0;6.944560409E-1
2.702364300E1;6.927211881E-1;1.273409724E0;6.633018851E-1
2.704355500E1;5.540547967E-1;1.298455119E0;4.727119505E-1
2.706343700E1;6.792821884E-1;1.281350970E0;1.666684747E-1
2.708336200E1;7.855727077E-1;1.159177899E0;-9.844703972E-2
2.709418400E1;6.939429045E-1;1.010737658E0;-2.139005661E-1
2.711333500E1;3.536909819E-1;5.562539101E-1;-4.973420501E-1
2.712338800E1;1.826487035E-1;2.929709554E-1;-7.007601857E-1
2.714346900E1;-1.802052557E-1;-2.543642819E-1;-1.595677733E0
2.716343400E1;-1.313360333E-1;-3.123964965E-1;-2.169891119E0
2.718338800E1;-5.864306539E-2;-3.282789886E-1;-2.361702919E0
2.720341600E1;-3.237585723E-2;-3.661526442E-1;-2.278014421E0
2.722333400E1;-6.108656526E-4;-2.329840064E-1;-2.114302397E0
2.724368300E1;1.869247556E-1;4.774522781E-1;-1.922490597E0
2.726336300E1;5.699372888E-1;1.475606084E0;-1.546197653E0
2.728332700E1;8.692612648E-1;2.044321537E0;-1.110650659E0
2.729345000E1;8.497135639E-1;2.046154261E0;-9.084543586E-1
2.731343200E1;4.972442985E-1;1.514090538E0;-6.115738750E-1
2.733339500E1;-2.498438954E-1;1.646892726E-1;-3.269106448E-1
2.734346700E1;-4.282165170E-1;-2.079385221E-1;-2.670458555E-1
2.736337800E1;-6.072000265E-1;-5.488013625E-1;-2.340591252E-1
2.738339600E1;-5.345070958E-1;-3.240029514E-1;-2.279504687E-1
2.739370800E1;-4.404338300E-1;-1.126435548E-1;-1.900768280E-1
2.741341700E1;-3.707951903E-1;2.092824429E-1;-3.980398178E-2
2.742351400E1;-4.129448831E-1;2.691472173E-1;5.243667215E-2
2.744335900E1;-4.996877611E-1;2.379931062E-1;2.326419204E-1
2.746394400E1;-5.094616413E-1;1.347568780E-1;2.949501574E-1
2.748344700E1;-3.799581826E-1;5.473352596E-2;2.082073092E-1
2.749362100E1;-2.608394623E-1;2.419026196E-2;1.410121322E-1
2.751349400E1;-5.070181563E-2;1.136209257E-2;5.488013104E-2
2.753335100E1;4.459315911E-2;-1.307251677E-2;1.318491548E-1
2.755335400E1;3.237586096E-2;-6.499606371E-2;1.843835711E-1
2.756338100E1;2.199114859E-2;-9.370672703E-2;1.935465485E-1
2.758344700E1;4.031710699E-2;-1.187521964E-1;1.978226006E-1
2.760331400E1;6.230825558E-2;-1.731192023E-1;2.332527936E-1
2.761342500E1;4.276056960E-2;-2.042733282E-1;2.363071144E-1
2.763341300E1;1.099557430E-2;-2.623055279E-1;2.222572118E-1
2.764353400E1;6.719518453E-3;-2.574186325E-1;2.014877945E-1
2.766348200E1;5.803219602E-2;-1.596801728E-1;1.361252069E-1
2.768335100E1;1.227839142E-1;4.031710327E-3;1.092471406E-1
2.769340600E1;1.166752577E-1;8.405505121E-2;9.825156629E-2
2.771345400E1;2.626720443E-2;2.007303238E-1;4.816061631E-2
2.772350300E1;-2.932153270E-2;2.166128159E-1;4.510628805E-2
2.773361100E1;-4.703662544E-2;2.056172490E-1;4.693888500E-2
2.774386100E1;-5.314527452E-2;1.769065857E-1;3.777590767E-2
2.776350100E1;-4.703662544E-2;7.000516355E-2;1.211956609E-2
2.778342400E1;-2.443461120E-2;-2.590068616E-2;-1.842369512E-2
2.779387600E1;-3.665190190E-3;-5.644394830E-2;-2.514321357E-2
2.780402000E1;1.160643995E-2;-7.599163055E-2;-2.880840749E-2
2.782349100E1;5.436700955E-2;-5.949827656E-2;-5.874080583E-2
2.784369300E1;1.123992056E-1;6.511823833E-2;-1.381532848E-1
2.786343400E1;2.278527468E-1;2.489886731E-1;-2.670458555E-1
2.787349200E1;2.968805134E-1;3.870442212E-1;-3.324084580E-1
2.789340200E1;4.440990388E-1;7.156897187E-1;-4.234273732E-1
2.791344100E1;7.415904403E-1;1.306396365E0;-5.425460935E-1
2.793352200E1;8.655960560E-1;1.577009678E0;-4.942877293E-1
2.795350700E1;8.283332586E-1;1.643594027E0;-4.545814991E-1
2.796379600E1;8.069530129E-1;1.613050699E0;-4.906225204E-1
2.798358000E1;8.277224302E-1;1.442619324E0;-6.024108529E-1
2.800556800E1;7.452555895E-1;1.115195632E0;-5.999674201E-1
2.802391500E1;3.720169365E-1;6.191729903E-1;-4.906225204E-1
2.804347200E1;-8.368854225E-2;1.659110039E-1;-5.370482802E-1
2.806338000E1;-3.518583775E-1;-1.273043156E-1;-8.608068824E-1
2.807342000E1;-3.518583775E-1;-2.158797681E-1;-1.093546510E0
2.809340700E1;-6.352998316E-2;-3.172834218E-1;-1.447237492E0
2.810357900E1;1.392772645E-1;-3.484375477E-1;-1.470450282E0
2.812336600E1;5.937610269E-1;-4.119675457E-1;-1.447237492E0
2.814375600E1;7.880162001E-1;-4.394564629E-1;-1.351942420E0
2.816338400E1;8.155050874E-1;-2.965140045E-1;-1.009247065E0
2.818333900E1;6.627888083E-1;-3.017674387E-2;-3.702820837E-1
2.819338700E1;4.770857692E-1;1.280373633E-1;4.632801935E-2
2.821331000E1;-1.282817125E-2;3.748269081E-1;8.978741765E-1
2.822337300E1;-3.109304011E-1;4.133114219E-1;1.289438844E0
2.823339900E1;-6.139195561E-1;3.992615044E-1;1.602201819E0
2.825331500E1;-9.767735004E-1;3.699399829E-1;1.892973661E0
2.826355700E1;-9.816604257E-1;3.552792072E-1;1.888086796E0
2.828332400E1;-7.855727077E-1;4.505741894E-1;1.739646554E0
2.829359600E1;-6.352998614E-1;5.562539101E-1;1.665120959E0
2.831333600E1;-3.115412593E-1;9.392663836E-1;1.622971296E0
2.832335600E1;-2.559525371E-1;1.062661171E0;1.658401489E0
2.833340000E1;-2.333505303E-1;1.167119145E0;1.709103227E0
2.834469300E1;-2.547307909E-1;1.237368584E0;1.778131008E0
2.836353900E1;-4.037819207E-1;1.321668029E0;1.898471475E0
2.837353900E1;-4.318817258E-1;1.363206863E0;1.924127817E0
2.839337600E1;-4.105014205E-1;1.465832233E0;1.885643363E0
2.841334800E1;-2.480112910E-1;1.616715908E0;1.707881570E0
2.842348900E1;-1.191187203E-1;1.721173882E0;1.611364841E0
2.844331800E1;1.808161139E-1;1.936198473E0;1.513626337E0
2.845348700E1;3.097086847E-1;2.030271769E0;1.528898001E0
2.847341700E1;4.526511431E-1;2.139005661E0;1.619916916E0
2.849350600E1;4.935791492E-1;2.158553362E0;1.715211868E0
2.851337500E1;6.163630486E-1;2.054095507E0;1.698107719E0
2.852341300E1;6.688974500E-1;1.993619919E0;1.654736280E0
2.853384900E1;7.037167549E-1;1.923981190E0;1.603423595E0
2.855338500E1;7.250970602E-1;1.784093022E0;1.481250525E0
2.856341200E1;7.183775306E-1;1.712621808E0;1.443376899E0
2.858330600E1;6.298021078E-1;1.589226961E0;1.421385765E0
2.859431700E1;5.681046844E-1;1.534860015E0;1.412833571E0
2.861334800E1;4.428773224E-1;1.446895361E0;1.397562027E0
2.862347800E1;4.123340547E-1;1.423071623E0;1.385955572E0
2.863358500E1;4.080579877E-1;1.401080489E0;1.377403378E0
2.865339300E1;4.343251884E-1;1.329609275E0;1.341973305E0
2.866359900E1;4.526511431E-1;1.256916285E0;1.310208201E0
2.868355100E1;4.721988440E-1;9.618684053E-1;1.225908875E0
2.870332900E1;3.292563856E-1;2.923600972E-1;1.073803425E0
2.871374500E1;3.036000431E-1;3.029891476E-2;1.037762403E0
2.873329500E1;3.359758854E-1;-4.467868507E-1;9.107023478E-1
2.874354300E1;3.610213697E-1;-5.921728015E-1;8.172399402E-1
2.876347800E1;5.210680366E-1;-5.652946830E-1;6.077131629E-1
2.878332400E1;8.228355050E-1;-9.553933144E-2;4.598837793E-1
2.879349800E1;9.749408960E-1;2.740341425E-1;4.018515944E-1
2.880380900E1;1.102611780E0;6.802595258E-1;3.444302380E-1
2.882340500E1;1.220508814E0;1.518977523E0;2.595199943E-1
2.884334200E1;1.192408919E0;2.067534447E0;1.636141539E-1
2.885336500E1;1.130711555E0;2.178711891E0;9.947329760E-2
2.886352200E1;1.050688267E0;2.127399206E0;1.150870137E-2
2.888346100E1;7.544186115E-1;1.565403223E0;-2.371134460E-1
2.889362000E1;3.512475193E-1;4.224743843E-1;-6.445605755E-1
2.891336400E1;-1.649336144E-2;-8.945510983E-1;-1.248095393E0
2.893352400E1;-5.681046844E-2;-1.576887608E0;-1.852241158E0
2.894354900E1;5.558873340E-2;-1.651413083E0;-2.027559519E0
2.896330400E1;3.298672438E-1;-1.334374070E0;-2.159506559E0
2.897335300E1;4.654793143E-1;-1.027108788E0;-2.212040901E0
2.899342100E1;7.275404930E-1;-2.525317073E-1;-2.326272726E0
2.900388700E1;8.943067193E-1;8.283331990E-2;-2.375141859E0
2.902339400E1;1.173472166E0;4.267504513E-1;-2.360481024E0
2.903348100E1;1.170417786E0;4.151439965E-1;-2.271905661E0
2.904355300E1;1.044579625E0;3.094643354E-1;-2.143624067E0
2.905462800E1;8.142833710E-1;1.145983189E-1;-1.985409737E0
2.907415700E1;1.814269722E-1;-4.058588743E-1;-1.577962637E0
2.909365500E1;-5.955936313E-1;-8.401840925E-1;-9.292237759E-1
2.911346700E1;-6.524040699E-1;-7.674911022E-1;-8.125485182E-1
2.913343100E1;-3.775147200E-1;-4.357912838E-1;-8.345396519E-1
2.915331500E1;-3.787364438E-2;-1.095892191E-1;-8.626394868E-1
2.916335000E1;4.825835302E-2;4.031710327E-3;-8.785219789E-1
2.917341200E1;8.124507964E-2;9.016370773E-2;-8.956261873E-1
2.919345100E1;9.101891518E-2;1.824043691E-1;-9.194499254E-1
2.921342600E1;1.178969890E-1;2.434908897E-1;-9.072326422E-1
2.923331500E1;2.003637999E-1;3.400075734E-1;-8.143811226E-1
2.924354300E1;2.431243509E-1;3.791029453E-1;-7.337468863E-1
2.926343100E1;2.761110961E-1;3.962071836E-1;-5.773653984E-1
2.927387600E1;2.571742833E-1;3.491705656E-1;-5.150571465E-1
2.929333600E1;1.484402567E-1;1.750739813E-1;-4.057122767E-1
2.931344500E1;1.221730411E-1;1.341460049E-1;-3.122498989E-1
2.932374100E1;1.301142871E-1;1.426981241E-1;-2.462764233E-1
2.934339700E1;1.203404516E-1;1.469741762E-1;-8.195368201E-2
2.936343600E1;5.619959906E-2;8.038987219E-2;4.571715370E-2
2.937344500E1;1.160643995E-2;1.869247667E-2;9.092118591E-2
2.938445200E1;-3.176499158E-2;-4.544837400E-2;1.184101254E-1
2.940359200E1;-4.276056588E-2;-1.419650763E-1;1.116906032E-1
2.942338400E1;1.893682405E-2;-1.444085389E-1;1.135232002E-1
2.944344800E1;1.295034289E-1;-1.382998824E-1;1.648358852E-1
2.946351700E1;1.514945775E-1;-1.468520015E-1;1.984334737E-1
2.948367100E1;1.569923609E-1;-1.999972761E-1;2.063747197E-1
2.950331000E1;1.386664063E-1;-2.500882447E-1;1.959900111E-1
2.951340100E1;1.215621829E-1;-2.830749750E-1;1.880487651E-1
2.953338300E1;9.529496729E-2;-3.319441974E-1;1.446773261E-1
2.955332400E1;8.491027355E-2;-3.319441974E-1;5.854532495E-2
2.956336000E1;9.407325089E-2;-3.007900715E-1;-7.086033002E-4
2.957336200E1;1.136209369E-1;-2.500882447E-1;-6.423858553E-2
2.959342400E1;2.150245756E-1;-5.400048941E-2;-2.407786399E-1
2.960359700E1;3.005457222E-1;8.466592431E-2;-3.366844952E-1
2.962343600E1;4.850270152E-1;3.833790123E-1;-4.478619695E-1
2.964343700E1;6.041457653E-1;6.692639589E-1;-4.680205286E-1
2.966337500E1;6.890559793E-1;9.020035863E-1;-4.808486998E-1
2.967339700E1;7.385361195E-1;1.000352859E0;-5.150571465E-1
2.968346900E1;8.478809595E-1;1.177503824E0;-5.859175324E-1
2.969357400E1;8.845328689E-1;1.237979531E0;-6.024108529E-1
2.971372000E1;7.635815740E-1;1.183612466E0;-5.535416603E-1
2.973344700E1;4.514294267E-1;9.667553306E-1;-4.839030206E-1
2.975340900E1;1.215621829E-1;6.344446540E-1;-4.900116920E-1
2.977337600E1;-1.069014221E-1;5.229006335E-2;-6.378410459E-1
2.978338800E1;-1.844813079E-1;-3.197268844E-1;-7.380229831E-1
2.980363100E1;-3.689625859E-1;-1.187766433E0;-8.632503152E-1
2.982334800E1;-6.133086681E-1;-1.744875550E0;-8.785219789E-1
2.984336000E1;-6.084218025E-1;-1.675847769E0;-9.890885949E-1
2.985338400E1;-4.147774875E-1;-1.364917278E0;-1.094157338E0
2.986346700E1;-1.142317951E-1;-9.220399857E-1;-1.165628552E0
2.988330000E1;7.629706860E-1;8.201476932E-1;-6.952623725E-1
2.989350800E1;8.930850029E-1;1.383365393E0;-3.489018083E-1
2.991338900E1;9.181304574E-1;2.185431480E0;3.303803504E-1
2.993334700E1;7.379252315E-1;2.355252028E0;9.241413474E-1
2.994381100E1;5.723807216E-1;2.215974808E0;1.195976496E0
2.996335200E1;1.337794811E-1;1.619770288E0;1.662066698E0
2.997337900E1;-1.539380401E-1;1.250196815E0;1.829443693E0
2.999350600E1;-7.067710757E-1;7.010289431E-1;2.002929449E0
3.000418400E1;-8.045095205E-1;5.373170376E-1;2.021866083E0
3.002353600E1;-5.980370641E-1;5.806884766E-1;1.987046957E0
3.004350100E1;-7.147122920E-2;1.132910728E0;1.916797400E0
3.006337700E1;4.648684859E-1;1.854342580E0;1.868539095E0
3.007338900E1;6.743952632E-1;2.474981546E0;1.842882752E0
3.008342400E1;7.049385309E-1;2.706499577E0;1.845937133E0
3.009416300E1;7.061602473E-1;2.856161594E0;1.839217544E0
3.011343200E1;5.650503635E-1;3.020484209E0;1.739646554E0
3.013334200E1;3.017674387E-1;2.998493195E0;1.604034424E0
3.014364300E1;2.021963894E-1;2.966117382E0;1.561273932E0
3.016333900E1;1.875356287E-1;2.856161594E0;1.529508829E0
3.017336100E1;2.247983962E-1;2.762088299E0;1.555165172E0
3.019338900E1;2.425134927E-1;2.437108040E0;1.646795034E0
3.021337500E1;1.685988009E-1;1.903822660E0;1.732926965E0
3.023352700E1;3.054324538E-3;1.292957425E0;1.743311763E0
3.025331300E1;-1.172861308E-1;7.541742325E-1;1.628469110E0
3.026345200E1;-6.536258012E-2;5.819101930E-1;1.491635203E0
3.028332500E1;1.288925558E-1;4.243069887E-1;1.318760395E0
3.029336600E1;2.247983962E-1;4.548502564E-1;1.231406689E0
3.031336800E1;3.390302360E-1;5.751907229E-1;1.090907693E0
3.032339500E1;3.457497358E-1;6.320011616E-1;1.039595008E0
3.033342800E1;3.365867734E-1;6.979746222E-1;9.956126213E-1
3.035336000E1;3.200933933E-1;7.749436498E-1;8.850460052E-1
3.037356600E1;3.982841372E-1;8.293106556E-1;6.968994737E-1
3.039370000E1;5.363397002E-1;8.879536986E-1;4.788205922E-1
3.041353900E1;7.275404930E-1;8.519126773E-1;2.943392992E-1
3.043339200E1;9.382890463E-1;5.709146261E-1;1.562837660E-1
3.045333500E1;9.260717034E-1;1.414763927E-1;7.076263428E-2
3.046337400E1;7.134906054E-1;-1.535715163E-1;-5.690820888E-2
3.047337800E1;6.279695034E-1;-1.938886195E-1;-1.497597247E-1
3.049347800E1;5.510004759E-1;1.695761979E-1;-5.052832961E-1
3.051340000E1;7.079928517E-1;1.010126710E0;-6.696060300E-1
3.052352500E1;1.001208186E0;1.544633865E0;-7.074797153E-1
3.054336800E1;1.938275456E0;2.433442831E0;-6.298997998E-1
3.056345900E1;2.714074373E0;2.796907663E0;-4.399207234E-1
3.058331600E1;2.720182896E0;2.539733410E0;-2.181766331E-1
3.059336000E1;2.467895508E0;2.126788378E0;-2.071810514E-1
3.061339000E1;1.663386106E0;1.135964990E0;-3.110281527E-1
3.063336400E1;8.216137886E-1;1.274264902E-1;-4.460293651E-1
3.065332000E1;2.241875380E-1;-4.767192602E-1;-6.292889714E-1
3.066336800E1;5.497787520E-2;-5.793446302E-1;-8.852415085E-1
3.068339700E1;3.610213697E-1;-3.612657189E-1;-1.232823730E0
3.069352000E1;6.224716902E-1;-2.769663036E-1;-1.441128850E0
3.071335800E1;9.615019560E-1;-1.865582466E-1;-1.828417420E0
3.072349700E1;9.828821421E-1;-1.474628597E-1;-1.958531618E0
3.074348200E1;9.517280459E-1;1.075122878E-2;-2.087424278E0
3.076381400E1;9.425650835E-1;1.732413918E-1;-2.059324503E0
3.078334200E1;8.765916228E-1;3.986506462E-1;-1.918825388E0
3.079339400E1;8.032878041E-1;5.128824711E-1;-1.805815339E0
3.081338800E1;5.681046844E-1;6.894224882E-1;-1.538867235E0
3.082351400E1;3.866777122E-1;6.991963387E-1;-1.374544501E0
3.084354300E1;-1.209513247E-1;4.896695614E-1;-9.762604237E-1
3.086333900E1;-7.275404930E-1;-1.541823894E-1;-4.936768413E-1
3.087338400E1;-8.319984674E-1;-3.643200397E-1;-3.617299795E-1
3.088340200E1;-8.704829812E-1;-5.823989511E-1;-2.572720051E-1
3.090330300E1;-8.014551997E-1;-9.770178795E-1;-6.301685423E-2
3.091338900E1;-7.195992470E-1;-1.105299592E0;1.822821796E-2
3.092356900E1;-6.218608022E-1;-1.187766433E0;7.076263428E-2
3.094333100E1;-4.673118889E-1;-1.231137872E0;9.336464852E-2
3.096331800E1;-3.616322279E-1;-1.042380452E0;-2.147802338E-2
3.097332300E1;-3.042108715E-1;-8.872206807E-1;-1.137186736E-1
3.098346500E1;-2.345722616E-1;-7.509977221E-1;-2.041267306E-1
3.100553500E1;-1.117883474E-1;-5.353623033E-1;-3.238563240E-1
3.101868600E1;-6.169738993E-2;-4.113566577E-1;-3.660060465E-1
3.103353100E1;-5.986479670E-2;-3.857003152E-1;-3.360736370E-1
3.105343900E1;-9.590584040E-2;-4.199087918E-1;-1.363206804E-1
3.107342000E1;-1.453859359E-1;-5.378057957E-1;-5.202128366E-2
3.108723400E1;-1.850921661E-1;-6.043900847E-1;-2.880840749E-2
3.110335500E1;-2.510656118E-1;-6.984633207E-1;3.838677332E-2
3.111338400E1;-2.858849168E-1;-7.290065885E-1;9.764070064E-2
3.113334000E1;-3.390302062E-1;-6.801373959E-1;2.020986676E-1
3.114347800E1;-3.298672140E-1;-6.355442405E-1;2.356962562E-1
3.116336600E1;-2.974913716E-1;-5.463578701E-1;2.399723083E-1
3.117352000E1;-2.712241709E-1;-4.699997306E-1;2.008769363E-1
3.119334200E1;-1.337794960E-1;-3.264463842E-1;1.355143487E-1
3.121333600E1;1.527163014E-2;-2.287079394E-1;1.086362749E-1
3.123336200E1;5.070181563E-2;-2.262644768E-1;8.664512634E-2
3.124349900E1;4.398230091E-2;-2.543642819E-1;6.770830601E-2
3.126333000E1;7.208210230E-2;-4.229631126E-1;-7.584502548E-2
3.127335300E1;1.087340117E-1;-5.084842443E-1;-1.393750161E-1
3.128338600E1;1.313360184E-1;-5.714033842E-1;-1.955746114E-1
3.129340900E1;1.472185254E-1;-6.172182560E-1;-2.481090277E-1
3.130366400E1;1.759291887E-1;-6.440963149E-1;-3.055303693E-1
3.132334600E1;3.188716769E-1;-6.111096144E-1;-4.240382314E-1
3.134340100E1;5.393940210E-1;-4.583933055E-1;-4.900116920E-1
3.136333200E1;7.373143435E-1;-2.452013046E-1;-5.468221307E-1
3.137337500E1;8.106181622E-1;-9.370672703E-2;-5.755327940E-1
3.138351300E1;8.912523985E-1;7.916814089E-2;-6.262346506E-1
3.140330000E1;1.066570759E0;4.255287051E-1;-8.168245554E-1
3.141330400E1;1.117883444E0;5.861862898E-1;-9.261694551E-1
3.142359000E1;1.122770309E0;7.211874723E-1;-1.014134049E0
3.144331100E1;9.498954415E-1;9.704205394E-1;-9.298346639E-1
3.146347700E1;6.108652353E-1;1.044335246E0;-7.203078866E-1
3.148333500E1;2.932153344E-1;9.447641969E-1;-6.170716286E-1
3.149374700E1;2.058615834E-1;8.305323720E-1;-6.305106878E-1
3.151374600E1;-6.536258012E-2;4.359134138E-1;-7.368012071E-1
3.153346300E1;-5.479460955E-1;5.290092900E-2;-1.159519911E0
3.154347600E1;-6.982189417E-1;-1.376890242E-1;-1.522373915E0
3.156341900E1;-6.407976151E-1;-3.233920634E-1;-2.022672653E0
3.157343300E1;-4.550946057E-1;-3.246138096E-1;-2.078872204E0
3.159338300E1;4.581489041E-2;-2.464230359E-1;-1.827195644E0
3.160349800E1;3.005457222E-1;-1.688431501E-1;-1.560247540E0
3.162335800E1;6.829473376E-1;-1.429424714E-2;-9.487714767E-1
3.164337500E1;4.984660745E-1;-7.782423496E-2;-1.790812463E-1
3.166329700E1;8.002334833E-2;-2.140471786E-1;1.330708861E-1
3.167351600E1;-1.313360333E-1;-2.097711265E-1;2.729590237E-1
3.168356300E1;-3.005456924E-1;-1.499063224E-1;4.207884073E-1
3.170354300E1;-4.538728595E-1;5.473352596E-2;7.274427414E-1
3.172335100E1;-5.363397002E-1;2.135584950E-1;1.025545001E0
3.174335200E1;-6.835582256E-1;3.100751936E-1;1.283330202E0
3.176340900E1;-7.739662528E-1;4.890587330E-1;1.499576449E0
3.178336100E1;-6.963863969E-1;7.370699644E-1;1.722542286E0
3.179339500E1;-6.475171447E-1;8.965058327E-1;1.893584609E0
3.181338500E1;-4.862487316E-1;1.153069258E0;2.129378319E0
3.183329800E1;-2.547307909E-1;1.250807643E0;2.173360825E0
3.184353000E1;-4.214970395E-2;1.183612466E0;2.156256437E0
3.186360100E1;1.142317951E-1;1.003407240E0;2.146482706E0
3.188329100E1;2.009746581E-1;7.492873073E-1;2.140984774E0
3.189336300E1;2.064724416E-1;5.996252894E-1;2.122048140E0
3.190340800E1;1.991420686E-1;4.542393982E-1;2.080509186E0
3.191352400E1;1.973094642E-1;3.338989317E-1;2.020644426E0
