"Time (s)";"Gyroscope x (rad/s)";"Gyroscope y (rad/s)";"Gyroscope z (rad/s)"
7.838850000E-2;-4.660901725E-1;-2.568077445E-1;-8.626394868E-1
9.819250000E-2;-6.224716902E-1;-3.924198449E-1;-9.603779316E-1
1.181565000E-1;-5.161811113E-1;-7.253413796E-1;-9.958080649E-1
1.283355000E-1;-4.795292020E-1;-9.409768581E-1;-9.958080649E-1
1.482045000E-1;-4.300491214E-1;-1.271454930E0;-9.860342741E-1
1.682665000E-1;-4.282165170E-1;-1.289780855E0;-9.420519471E-1
1.783815000E-1;-4.813618064E-1;-1.258626819E0;-9.096760750E-1
1.982515000E-1;-6.786713004E-1;-1.144394994E0;-8.455352783E-1
2.181505000E-1;-9.413433075E-1;-9.299812317E-1;-8.980696797E-1
2.283865000E-1;-9.040805697E-1;-8.829446435E-1;-9.310563803E-1
2.481595000E-1;-7.360926270E-1;-7.381695509E-1;-9.316672683E-1
2.585955000E-1;-6.872233748E-1;-7.265631557E-1;-8.791328669E-1
2.689485000E-1;-6.579018831E-1;-7.760432363E-1;-8.101050854E-1
2.884445000E-1;-6.560692787E-1;-9.458637834E-1;-6.897646189E-1
2.985325000E-1;-6.823364496E-1;-1.034439206E0;-6.237911582E-1
3.183225000E-1;-7.452555895E-1;-1.099190950E0;-5.425460935E-1
3.286775000E-1;-7.953465581E-1;-1.053986907E0;-5.517090559E-1
3.481465000E-1;-8.484917879E-1;-8.438492417E-1;-6.366193295E-1
3.582755000E-1;-7.843509912E-1;-6.495941281E-1;-6.683843136E-1
3.781645000E-1;-6.346889734E-1;-2.439795732E-1;-6.335650086E-1
3.981145000E-1;-7.275404930E-1;2.296853438E-2;-5.071159005E-1
4.081775000E-1;-8.277223706E-1;9.260717034E-2;-4.319794774E-1
4.182585000E-1;-8.918632269E-1;5.656612292E-2;-3.244671822E-1
4.381245000E-1;-7.061601877E-1;-1.633453667E-1;-3.232454658E-1
4.481545000E-1;-5.931501389E-1;-2.299296707E-1;-3.189693987E-1
4.581835000E-1;-5.180137157E-1;-2.427578419E-1;-3.067521155E-1
4.782635000E-1;-5.626068711E-1;1.060461998E-1;-3.195802867E-1
4.983215000E-1;-9.053022861E-1;5.312083960E-1;-3.104172945E-1
5.181475000E-1;-1.179580808E0;5.684711933E-1;-1.851899028E-1
5.281775000E-1;-1.170417786E0;3.986506462E-1;-1.271577030E-1
5.390325000E-1;-1.065348983E0;1.188743860E-1;-8.989492804E-2
5.584965000E-1;-6.554583907E-1;-4.125784039E-1;-1.222707778E-1
5.831995000E-1;-3.995058537E-1;-4.718323350E-1;-2.035158575E-1
5.982495000E-1;-5.552765131E-1;-1.126435548E-1;-2.322265357E-1
6.082655000E-1;-7.305948138E-1;2.941927016E-1;-2.829283476E-1
6.282245000E-1;-6.395758986E-1;5.305975676E-1;-3.397388160E-1
6.382665000E-1;-5.644394755E-1;6.002361774E-1;-3.281323910E-1
6.582025000E-1;-3.964515328E-1;6.136752367E-1;-2.584937513E-1
6.682025000E-1;-3.054326177E-1;5.593082309E-1;-2.499416322E-1
6.782645000E-1;-2.229658216E-1;4.756196737E-1;-2.682676017E-1
6.887805000E-1;-1.466076523E-1;3.687182367E-1;-3.055303693E-1
7.085275000E-1;-1.404990070E-2;2.691472173E-1;-3.617299795E-1
7.283395000E-1;1.038470864E-2;3.668856621E-1;-3.611191213E-1
7.482405000E-1;-1.081231534E-1;4.976108074E-1;-3.391279578E-1
7.582515000E-1;-1.673770845E-1;5.360953212E-1;-3.183585405E-1
7.783415000E-1;-1.667662114E-1;5.159367919E-1;-3.049195111E-1
7.981935000E-1;-1.954768784E-2;3.913202584E-1;-3.281323910E-1
8.082585000E-1;5.864306167E-2;2.984687388E-1;-2.908695936E-1
8.194955000E-1;7.941247523E-2;2.819753885E-1;-2.572720051E-1
8.381405000E-1;1.117883325E-1;2.868623137E-1;-1.931311488E-1
8.481705000E-1;1.191187203E-1;3.210707605E-1;-1.686965376E-1
8.581735000E-1;1.325577497E-1;3.736051619E-1;-1.601444334E-1
8.688655000E-1;1.343903542E-1;4.279721677E-1;-1.558683664E-1
8.882045000E-1;7.696902752E-2;5.086063743E-1;-1.021122336E-1
8.982135000E-1;3.237586096E-2;5.226563215E-1;-9.172752500E-2
9.082905000E-1;-9.773844853E-3;5.000542998E-1;-1.021122336E-1
9.281805000E-1;-9.101892263E-2;3.876550794E-1;-1.057774201E-1
9.409940000E-1;-7.330384105E-3;9.382890165E-2;6.621779408E-3
9.582945000E-1;-7.330384105E-3;9.382890165E-2;6.621779408E-3
9.797665000E-1;6.475171447E-2;-4.056145251E-2;9.458637983E-2
9.990805000E-1;5.131268129E-2;6.328563392E-2;1.379578114E-1
1.009460500E0;4.153883830E-2;1.231504381E-1;1.226861775E-1
1.028255500E0;6.719518453E-3;1.720196605E-1;3.472157940E-2
1.038938500E0;-3.359758854E-2;1.714087874E-1;7.843509316E-3
1.058245500E0;-1.356120855E-1;8.038987219E-2;2.800206281E-2
1.072420500E0;-1.032362282E-1;-2.712241746E-2;4.999320954E-2
1.088232500E0;1.062905490E-1;-2.225992978E-1;6.648657471E-2
1.099367500E0;1.417207271E-1;-2.274862081E-1;8.359080553E-2
1.123441500E0;-8.002334833E-2;8.222246170E-2;1.196318492E-1
1.138270500E0;-4.019493163E-1;5.428148508E-1;9.580811113E-2
1.148417500E0;-5.100724697E-1;6.332228780E-1;8.359080553E-2
1.168177500E0;-4.153883457E-1;4.389677644E-1;2.555860206E-2
1.178228500E0;-2.144137025E-1;2.245540619E-1;-3.674965352E-2
1.188344500E0;2.015855163E-2;1.158200502E-1;-8.500800282E-2
1.208509500E0;3.665191308E-2;1.145983189E-1;-1.964542642E-2
1.218709500E0;-5.314527452E-2;1.359786093E-1;-4.984661005E-3
1.240072500E0;-2.553416789E-1;2.624276876E-1;1.150870137E-2
1.258188500E0;-3.286454976E-1;2.117258906E-1;6.282138079E-2
1.268257500E0;-2.492330223E-1;5.778785422E-2;4.999320954E-2
1.278396500E0;-1.001819000E-1;-1.083674878E-1;1.639562286E-2
1.298173500E0;1.545488983E-1;-2.580294907E-1;-2.819754183E-2
1.308216500E0;1.685988009E-1;-1.266934574E-1;-2.758667618E-2
1.328193500E0;-2.443461120E-2;1.933999360E-1;6.221051514E-2
1.348120500E0;-1.154535264E-1;4.679227620E-2;2.247006744E-1
1.358605500E0;-4.886921868E-2;-1.480737329E-1;2.778459489E-1
1.378247500E0;-2.748893574E-2;-5.035973191E-1;3.456519842E-1
1.388605500E0;-1.832595766E-1;-5.048190355E-1;2.967827618E-1
1.408225500E0;-3.720169365E-1;2.349387705E-1;1.691119373E-1
1.418251500E0;-4.007275999E-1;3.784920871E-1;1.300165653E-1
1.438135500E0;-4.526511431E-1;3.009122014E-1;2.283658683E-1
1.448354500E0;-4.086688459E-1;1.439198554E-1;3.163304329E-1
1.468166500E0;-2.327396572E-1;-2.048842013E-1;3.823038936E-1
1.478201500E0;-1.301143020E-1;-3.759264946E-1;3.444302380E-1
1.498180500E0;-1.466076635E-2;-4.278500378E-1;2.222572118E-1
1.508219500E0;-7.880161703E-2;-2.977357209E-1;2.027095258E-1
1.528159500E0;-2.816088796E-1;1.588249579E-3;2.393614352E-1
1.538279500E0;-3.616322279E-1;1.622458100E-1;2.509678602E-1
1.558300500E0;-5.381723046E-1;2.709798217E-1;2.479135543E-1
1.578181500E0;-2.645046413E-1;-1.529606581E-1;2.845654488E-1
1.598153500E0;2.577851415E-1;-8.023104072E-1;6.205413342E-1
1.608173500E0;2.571742833E-1;-8.750033975E-1;6.852930784E-1
1.628364500E0;1.832595840E-2;-8.212472200E-1;6.749083400E-1
1.648233500E0;-1.612684280E-1;-8.603426218E-1;8.838242888E-1
1.658238500E0;-1.185078621E-1;-1.045434833E0;1.034708023E0
1.678193500E0;2.437352389E-1;-1.605598211E0;1.181926608E0
1.688200500E0;4.221079051E-1;-1.887207150E0;1.203306794E0
1.708866500E0;4.978551865E-1;-2.535945892E0;1.421385765E0
1.728355500E0;2.706133127E-1;-2.714318752E0;1.428105235E0
1.748599500E0;1.631010175E-1;-1.435166836E0;9.571281075E-1
1.768795500E0;4.056145251E-1;-8.432384133E-1;1.103124976E0
1.788516500E0;8.674286604E-1;-2.046643019E0;1.360910058E0
1.808353500E0;5.338962078E-1;-1.284893990E0;1.065251350E0
1.828160500E0;6.933320761E-1;-1.209757566E0;1.117785692E0
1.838759500E0;7.996225953E-1;-1.513357520E0;1.241791368E0
1.858268500E0;1.125824690E0;-2.473637819E0;1.706659794E0
1.868307500E0;1.204626322E0;-2.745472670E0;1.916797400E0
1.888295500E0;9.272934794E-1;-2.593367338E0;2.039581299E0
1.898821500E0;7.086036801E-1;-2.481579065E0;1.996209979E0
1.918363500E0;5.259549618E-1;-2.179200649E0;2.066459417E0
1.928921500E0;4.996877909E-1;-2.113227129E0;2.141595840E0
1.948223500E0;5.363397002E-1;-2.212187529E0;2.269266605E0
1.958800500E0;6.096435189E-1;-2.374066591E0;2.300420761E0
1.978240500E0;8.283332586E-1;-2.551828384E0;2.100056887E0
1.988832500E0;9.859365225E-1;-2.568321943E0;2.126324177E0
2.008165500E0;1.070235968E0;-2.749748707E0;2.234447241E0
2.019242500E0;1.180191636E0;-2.776015997E0;2.279651403E0
2.038646500E0;1.372614264E0;-2.600697756E0;2.201460600E0
2.058221500E0;1.430646420E0;-2.255558729E0;2.042024612E0
2.068234500E0;1.508226275E0;-2.110172987E0;1.955281973E0
2.078552500E0;1.619403720E0;-1.969673872E0;1.878923774E0
2.099133500E0;1.814880610E0;-1.701504111E0;1.801954746E0
2.118342500E0;1.850921750E0;-1.654467463E0;1.639464617E0
2.140179500E0;1.772120118E0;-1.758925438E0;1.446431160E0
2.160221500E0;1.563814998E0;-1.621480703E0;1.386566401E0
2.178776500E0;1.426370382E0;-1.810238123E0;1.372516513E0
2.198876500E0;1.406211853E0;-1.844446540E0;1.409168482E0
2.218227500E0;1.331686258E0;-1.922026396E0;1.473309278E0
2.228252500E0;1.271210551E0;-2.080851316E0;1.543558836E0
2.252035500E0;1.147204995E0;-2.447370529E0;1.574712873E0
2.268763500E0;1.070235968E0;-2.546330690E0;1.535617590E0
2.288252500E0;9.883799553E-1;-2.221350431E0;1.436657310E0
2.298273500E0;8.393288851E-1;-1.967230439E0;1.429937840E0
2.318360500E0;7.641924620E-1;-1.948904514E0;1.372516513E0
2.338214500E0;8.069530129E-1;-2.055805922E0;1.396951079E0
2.348587500E0;7.959574461E-1;-2.121168375E0;1.303488731E0
2.358674500E0;8.038986921E-1;-2.195693970E0;1.181926608E0
2.378179500E0;1.006095052E0;-2.193250656E0;7.170580626E-1
2.398124500E0;8.497135639E-1;-1.726549506E0;6.687996984E-1
2.408771500E0;6.762278080E-1;-1.528629184E0;7.280536294E-1
2.418870500E0;5.296201706E-1;-1.388130188E0;7.976922393E-1
2.438757500E0;4.428773224E-1;-1.254350662E0;8.887111545E-1
2.450013500E0;4.117231965E-1;-1.219531417E0;9.076480269E-1
2.460700500E0;3.854559660E-1;-1.275120139E0;9.058154225E-1
2.478221500E0;4.899139404E-1;-1.581163645E0;8.538918495E-1
2.498145500E0;7.342600226E-1;-1.760147095E0;6.504737139E-1
2.508667500E0;8.368853927E-1;-1.746708035E0;5.948849916E-1
2.528174500E0;8.436049223E-1;-1.297111273E0;6.376455426E-1
2.548114500E0;5.137376785E-1;-1.066204190E0;1.013327718E0
2.558728500E0;2.950479388E-1;-1.102856159E0;1.224076271E0
2.578337500E0;3.561344445E-1;-9.574701786E-1;1.451928973E0
2.598950500E0;7.428121567E-1;-7.864279151E-1;1.425661802E0
2.618163500E0;7.287622690E-1;-8.536230922E-1;1.347470999E0
2.638121500E0;7.330383062E-1;-7.687128186E-1;1.112898827E0
2.648168500E0;7.122688890E-1;-5.988922715E-1;9.833952785E-1
2.658268500E0;6.603453159E-1;-4.638910890E-1;8.496158123E-1
2.678199500E0;6.743952632E-1;-3.087313175E-1;6.150435805E-1
2.698132500E0;8.662069440E-1;-2.928487957E-1;5.319658518E-1
2.708149500E0;8.167268634E-1;-4.850270227E-2;5.808351040E-1
2.718216500E0;6.866125464E-1;2.728123963E-1;6.229848266E-1
2.738159500E0;6.243042946E-1;5.778785422E-2;3.572584093E-1
2.758477500E0;6.633996964E-1;1.164309233E-1;-6.402845383E-1
2.778133500E0;-1.160643995E-2;1.561738133E0;-1.110650659E0
2.788135500E0;-1.337794960E-1;1.581896663E0;-1.347666383E0
2.798140500E0;-1.484402567E-1;1.500651598E0;-1.475337267E0
2.808157500E0;-1.600466967E-1;1.419406414E0;-1.516876101E0
2.828647000E0;-2.571742535E-1;8.115955591E-1;-1.561469316E0
2.845738500E0;-2.571742535E-1;8.115955591E-1;-1.561469316E0
2.861348500E0;0.000000000E0;5.167919770E-2;-8.314853311E-1
2.878661500E0;3.426954150E-1;-9.525832534E-1;-2.145114392E-1
2.890348500E0;5.283984542E-1;-1.146227598E0;4.789183848E-3
2.904365000E0;5.980370641E-1;-1.003285050E0;2.210354805E-1
2.918591500E0;5.149593949E-1;-7.259522676E-1;1.801075190E-1
2.929058500E0;3.262020648E-1;-3.814242780E-1;1.000841632E-1
2.948130500E0;-5.436700583E-2;1.103222668E-1;-1.015013680E-1
2.958140500E0;-1.777617931E-1;2.618168294E-1;-1.277685761E-1
2.978507500E0;-2.596177161E-1;2.618168294E-1;2.167594284E-1
2.998118500E0;-2.461787015E-1;-9.553933144E-2;5.228028893E-1
3.008196500E0;-2.736676335E-1;-1.718974710E-1;6.303151846E-1
3.028135500E0;-2.095267773E-1;-9.187413752E-2;6.968994737E-1
3.048149500E0;-3.408628106E-1;9.260717034E-2;5.979393125E-1
3.058633500E0;-4.746422768E-1;2.722015381E-1;6.058805585E-1
3.078156500E0;-5.607742667E-1;4.408003390E-1;9.485759735E-1
3.098162500E0;-4.630358517E-1;8.527678251E-2;1.361520886E0
3.108418500E0;-4.166100919E-1;-4.728097096E-2;1.466589808E0
3.128155500E0;-5.112941861E-1;9.260717034E-2;1.589373708E0
3.138254500E0;-6.572909951E-1;4.310265183E-1;1.671840429E0
3.159325500E0;-1.324966669E0;1.806694984E0;1.362742662E0
3.179575500E0;-1.791667700E0;1.873279333E0;4.940922260E-1
3.202306500E0;-1.718974829E0;1.343048334E0;-2.181766331E-1
3.215344500E0;-9.743300676E-1;6.374989748E-1;-4.957782477E-2
3.228163500E0;-6.456845403E-1;1.380555518E-2;2.128254622E-2
3.238190500E0;-3.017674088E-1;-5.634621382E-1;4.449542239E-2
3.248193500E0;3.420845047E-2;-8.615643382E-1;1.416230053E-1
3.258259500E0;2.950479388E-1;-9.177639484E-1;2.955610156E-1
3.278128500E0;5.442809463E-1;-9.531941414E-1;5.295224190E-1
3.288187500E0;5.558874011E-1;-9.654114246E-1;5.716721416E-1
3.298310500E0;5.919284225E-1;-8.780577183E-1;5.667852163E-1
3.318776500E0;6.505715251E-1;-2.616946697E-1;3.963537812E-1
3.333111500E0;4.544837475E-1;3.277902901E-1;1.630032808E-1
3.348752500E0;1.777617782E-1;3.033556640E-1;-3.003013507E-2
3.361853500E0;3.237586096E-2;2.190562785E-1;-6.607118249E-2
3.388494500E0;-2.724458873E-1;5.473352596E-2;3.450411260E-1
3.402957500E0;-3.365867436E-1;-3.017674387E-2;5.405179858E-1
3.419645500E0;-4.654793143E-1;1.390329301E-1;8.587787747E-1
3.438199500E0;-4.880813062E-1;4.872260988E-1;8.105204105E-1
3.448244500E0;-4.477642179E-1;5.483126044E-1;6.028262377E-1
3.460440500E0;-3.995058537E-1;5.898514986E-1;3.670322597E-1
3.478195500E0;-2.272418737E-1;5.874080062E-1;8.786685765E-2
3.498332500E0;-7.024950534E-2;3.534466326E-1;2.678033337E-2
3.522009500E0;1.099557430E-1;-7.082371712E-1;7.564955205E-2
3.538663500E0;1.710422710E-2;-4.180761874E-1;2.943392992E-1
3.558156500E0;-2.431243658E-1;-1.847256422E-1;5.631200075E-1
3.568175500E0;-4.001167119E-1;-3.062878549E-1;7.775337100E-1
3.578417500E0;-5.033529401E-1;-4.657236636E-1;9.723997116E-1
3.598215500E0;-4.489859343E-1;-5.200906992E-1;1.591817141E0
3.609995500E0;-2.626720667E-1;-3.612657189E-1;1.946729898E0
3.620080500E0;-2.321287990E-2;-2.085493952E-1;2.131821871E0
3.638167500E0;3.402519524E-1;4.450764060E-1;1.626636505E0
3.648217500E0;5.974262357E-1;7.480655909E-1;6.162652969E-1
3.668189500E0;8.613200188E-1;-1.517389268E-1;-5.480438471E-1
3.678223500E0;7.281513810E-1;-1.149892807E0;-5.352156758E-1
3.698167500E0;2.382374182E-2;-3.168802500E0;-3.552792221E-2
3.708350500E0;-1.948660165E-1;-3.377718210E0;5.502918363E-1
3.728210500E0;-3.439171314E-1;-3.287310123E0;2.136097908E0
3.748241500E0;-5.198463202E-1;-4.036231041E0;2.786669493E0
3.758721500E0;-7.605271935E-1;-4.206662655E0;2.001096725E0
3.778424500E0;-3.842342198E-1;-2.804115772E0;-6.390628219E-1
3.798129500E0;6.078109145E-1;-2.223549411E-2;-2.215095282E0
3.808154500E0;8.588765264E-1;8.470257521E-1;-1.901110291E0
3.818375500E0;9.321803451E-1;1.283794403E0;-1.266421318E0
3.838207500E0;5.345070958E-1;1.046167850E0;6.343224645E-2
3.858136500E0;-3.152064681E-1;1.958433986E-1;6.938451529E-1
3.878175500E0;-1.224173903E0;7.205766439E-1;4.892053008E-1
3.888606500E0;-1.125824690E0;5.855754018E-1;1.630032808E-1
3.908167500E0;-3.268128932E-1;2.899166346E-1;-4.716857076E-1
3.928208500E0;3.878994286E-1;2.685363591E-1;-5.663698316E-1
3.948147500E0;4.392121136E-1;2.190562785E-1;-5.187223554E-1
3.958220500E0;2.693915963E-1;1.433089972E-1;-4.606901407E-1
3.978180500E0;-1.123992056E-1;1.854586899E-1;-2.725436389E-1
3.998127500E0;-3.036000133E-1;3.595552742E-1;-1.375424117E-1
4.008192500E0;-2.852740586E-1;3.057991266E-1;-7.828848809E-2
4.028689500E0;-1.508837193E-1;1.567480266E-1;-3.152064048E-3
4.048105500E0;2.321287617E-2;-6.805038452E-2;-2.392148226E-2
4.058345500E0;8.674286306E-2;-1.743409336E-1;-3.125186637E-2
4.078163500E0;6.536258757E-2;-1.028697044E-1;-9.871582501E-3
4.088351500E0;9.773842990E-3;-2.284635976E-2;1.089783572E-2
4.108154500E0;-1.185078621E-1;1.555262953E-1;-1.930334605E-3
4.118299500E0;-1.533271819E-1;1.653001457E-1;-1.903456077E-2
4.138277500E0;-2.932153270E-2;-3.567453101E-2;-9.773857892E-5
4.158507500E0;8.796459436E-2;-1.193630695E-1;9.676105343E-3
4.178155500E0;1.429424584E-1;-2.085493952E-1;9.065240622E-3
4.188190500E0;1.154535264E-1;-1.737300754E-1;5.549099669E-2
4.198308500E0;7.880161703E-2;-2.012190074E-1;1.691119373E-1
4.218415500E0;-1.850921661E-1;1.396438032E-1;3.248825669E-1
4.238364500E0;-5.876523256E-1;5.886297226E-1;4.042950273E-1
4.248492500E0;-6.988298297E-1;6.344446540E-1;4.678250253E-1
4.258592500E0;-6.701191664E-1;5.238780379E-1;4.464447498E-1
4.278210500E0;-3.866776824E-1;4.798957109E-1;4.097928405E-1
4.298527500E0;-3.451388478E-1;9.594249129E-1;5.796133876E-1
4.318154500E0;-3.109304011E-1;8.439714313E-1;2.882306576E-1
4.328172500E0;-2.510656118E-1;5.611407757E-1;8.847772330E-2
4.348628500E0;3.604104742E-2;-5.408601165E-1;8.276246786E-1
4.368221500E0;7.208210230E-2;-7.619932890E-1;1.505685091E0
4.392454500E0;1.075122803E-1;-6.306573153E-1;9.528520107E-1
4.408209500E0;-2.247984111E-1;4.719544649E-1;5.014226437E-1
4.421739500E0;-3.097086549E-1;8.005999923E-1;5.258572102E-1
4.438207500E0;-2.901609838E-1;8.164824843E-1;9.400238395E-1
4.448236500E0;-2.064724565E-1;5.257106423E-1;1.134889960E0
4.458320500E0;-9.957103431E-2;1.530828327E-1;1.274778128E0
4.480882500E0;5.314527825E-2;-4.699997306E-1;1.499576449E0
4.498200500E0;2.315179259E-1;-1.127901554E0;1.635799408E0
4.508534500E0;2.755002379E-1;-1.349645734E0;1.560662985E0
4.528214500E0;2.400700301E-1;-1.488922954E0;8.300681114E-1
4.548243500E0;9.773842990E-2;-9.379225373E-1;2.075964510E-1
4.558621500E0;4.459315911E-2;-5.628512502E-1;-2.541199327E-3
4.568679500E0;4.031710699E-2;-2.042733282E-1;-1.137186736E-1
4.588206500E0;9.651669860E-2;3.351206481E-1;-2.450547069E-1
4.608176500E0;4.935791492E-1;-1.609019041E-1;-4.906225204E-1
4.618252500E0;7.000516057E-1;-4.284608960E-1;-5.920261741E-1
4.628252500E0;7.898487449E-1;-5.084842443E-1;-6.720495224E-1
4.640169500E0;7.721337080E-1;-4.858822227E-1;-7.209187150E-1
4.658640500E0;4.795292020E-1;-3.197268844E-1;-6.610539556E-1
4.678709500E0;1.160643995E-2;-8.454374969E-2;-4.063231349E-1
4.698256500E0;-3.237585723E-1;9.810495377E-2;-1.063882858E-1
4.718331500E0;-3.219259679E-1;2.092824429E-1;5.793445930E-2
4.738134500E0;5.070181563E-2;3.100751936E-1;-3.125186637E-2
4.758228500E0;1.325577497E-1;3.760486245E-1;-3.858225048E-2
4.768387500E0;1.136209369E-1;4.004832506E-1;-2.758667618E-2
4.788190500E0;-1.282817125E-2;3.552792072E-1;1.578475721E-2
4.798223500E0;-1.557706445E-1;5.678603053E-1;9.065240622E-3
4.808245500E0;-2.956587672E-1;7.474547029E-1;-2.331062034E-2
4.828154500E0;-2.461787015E-1;5.336518884E-1;2.678033337E-2
4.848212500E0;-3.726277873E-2;1.408655345E-1;1.150870137E-2
4.858288500E0;7.024949789E-2;-1.185078546E-2;-6.206390448E-3
4.879023500E0;1.551597714E-1;-1.963320822E-1;-7.095810771E-2
4.898327500E0;1.209513098E-1;-1.413542181E-1;-5.202128366E-2
4.908438500E0;6.780603528E-2;1.685988158E-2;-3.003013507E-2
4.918592500E0;-4.276055843E-3;2.153910846E-1;5.400048569E-3
4.938209500E0;-2.932153270E-2;1.903456151E-1;4.083023220E-2
4.958347500E0;-6.352998316E-2;2.624276876E-1;5.976705626E-2
4.978333500E0;2.687807009E-2;2.581516504E-1;-1.231504325E-2
4.998134500E0;1.081231385E-1;1.659110039E-1;-2.025629207E-2
5.008296500E0;1.111774743E-1;1.091005355E-1;7.843509316E-3
5.028192500E0;5.864306167E-2;2.129476219E-1;2.800206281E-2
5.038437500E0;2.993239835E-2;2.966361642E-1;2.678033337E-2
5.058265500E0;-4.337143153E-2;4.084244967E-1;2.739119902E-2
5.078204500E0;-1.276708394E-1;3.222925067E-1;5.400048569E-3
5.088497500E0;-1.130100638E-1;2.214997411E-1;2.250427566E-2
5.108291500E0;6.108656526E-4;1.115439981E-1;7.503868639E-2
5.120046500E0;-1.588249765E-2;1.488067806E-1;1.006950289E-1
5.138204500E0;-1.685988158E-1;1.677435935E-1;2.983465791E-2
5.148280500E0;-2.150245756E-1;1.830152273E-1;2.494773641E-2
5.159503500E0;-1.881465018E-1;2.434908897E-1;4.571715370E-2
5.178810500E0;-1.466076635E-2;3.522248864E-1;3.472157940E-2
5.198353500E0;9.224064648E-2;1.329242736E-1;5.131270736E-4
5.218247500E0;1.233947724E-1;-2.287079394E-1;-2.208888903E-2
5.238216500E0;1.044579595E-1;-3.716504276E-1;-2.636494488E-2
5.258544500E0;1.087340117E-1;-3.246138096E-1;-9.783617407E-2
5.278555500E0;1.539380401E-1;-2.574186325E-1;-1.949637532E-1
5.298242500E0;1.527163088E-1;-8.454374969E-2;-9.661444277E-2
5.308288500E0;1.441641897E-1;-7.232644409E-2;-8.989492804E-2
5.318293500E0;1.643227488E-1;-1.123992074E-2;-4.896695912E-2
5.338154500E0;1.178969890E-1;1.817934960E-1;-9.260716848E-3
5.348204500E0;5.009094998E-2;9.260717034E-2;-1.353677455E-2
5.358272500E0;-7.330383360E-2;9.932668507E-2;-9.260716848E-3
5.378369500E0;-1.918116957E-1;2.031737864E-1;3.567453474E-3
5.398198500E0;-8.124507964E-2;4.249178469E-1;-6.118426099E-2
5.408260500E0;-2.199114859E-2;5.275431871E-1;-5.874080583E-2
5.428214500E0;1.178969890E-1;6.533814669E-1;-4.285830632E-2
5.448222500E0;6.658430398E-2;7.315722108E-1;-1.216599196E-1
5.458434500E0;-1.954768784E-2;7.596719861E-1;-1.088317484E-1
5.479367500E0;-1.814269871E-1;9.795835018E-1;1.300165653E-1
5.498143500E0;6.902776659E-2;1.008294106E0;2.283658683E-1
5.508194500E0;2.400700301E-1;8.787907362E-1;2.002660632E-1
5.519591500E0;2.999348342E-1;7.547850609E-1;2.546330690E-1
5.538151500E0;1.918116808E-1;9.356011748E-1;2.128254622E-2
5.559046500E0;-1.087340117E-1;1.307618141E0;1.642250121E-1
5.578144500E0;-3.164281845E-1;9.148317575E-1;2.644068897E-1
5.588166500E0;-2.901609838E-1;5.379279256E-1;1.239079088E-1
5.598188500E0;-2.388483137E-1;2.874731719E-1;-1.210490614E-1
5.608196500E0;-6.658431143E-2;2.086715698E-1;-1.283794343E-1
5.628384500E0;2.321287617E-2;4.127005339E-1;-3.733364046E-1
5.648241500E0;2.645046711E-1;4.206418097E-1;-1.155512631E-1
5.658606500E0;3.738495409E-1;3.082425892E-1;-8.038987406E-3
5.678271500E0;1.386664063E-1;2.086715698E-1;-2.615480721E-1
5.698190500E0;-1.502728462E-1;-7.171557844E-2;-5.260527134E-1
5.708209500E0;3.042109013E-1;-3.466049433E-1;-5.263214931E-2
5.718281500E0;4.954117537E-1;-3.185051382E-1;8.786685765E-2
5.738276500E0;4.532620311E-1;9.077458084E-2;5.732359365E-2
5.748508500E0;3.023782969E-1;3.033556640E-1;-3.247359768E-2
5.770309500E0;1.514945775E-1;3.748269081E-1;4.789183848E-3
5.783441500E0;2.522873580E-1;3.418401778E-1;3.044552356E-2
5.799461500E0;1.484402567E-1;4.426329434E-1;-5.202128366E-2
5.818168500E0;-5.497787148E-2;5.501452088E-1;1.782749146E-1
5.828544500E0;-1.496619880E-1;5.837427974E-1;2.143159658E-1
5.848230500E0;-8.552113175E-2;5.122715831E-1;4.739336669E-1
5.858249500E0;5.009094998E-2;5.422039628E-1;7.042298913E-1
5.878574500E0;-9.773844481E-2;6.313903332E-1;1.196318492E-1
5.898232500E0;-3.298672289E-2;2.948035598E-1;7.152254581E-1
5.918211500E0;-7.452556491E-2;6.267477572E-2;3.572584093E-1
5.928282500E0;-5.253441259E-2;-1.731192023E-1;4.800423384E-1
5.948174500E0;-7.208210230E-2;-6.673092246E-1;3.871908188E-1
5.958233500E0;-1.172861308E-1;-7.674911022E-1;2.955610156E-1
5.978186500E0;-6.780604273E-2;-1.239079118E0;2.283658683E-1
5.998185500E0;1.869247556E-1;-2.064357996E0;2.283658683E-1
6.008243500E0;3.933972418E-1;-2.670947313E0;2.088181823E-1
6.018326500E0;7.489207983E-1;-3.559756041E0;1.813292354E-1
6.038255500E0;1.542434812E0;-5.251852989E0;7.198435813E-2
6.048282500E0;1.891238809E0;-5.697784424E0;-1.353677455E-2
6.068122500E0;2.201558352E0;-6.394781590E0;-1.430402100E-1
6.078189500E0;1.759291887E0;-6.553606510E0;-1.338772178E-1
6.088308500E0;9.462302923E-1;-5.793690205E0;-2.392148226E-2
6.108485500E0;-6.505714655E-1;1.310916841E-1;1.477316469E-1
6.128230500E0;-3.591887653E-1;1.737056375E0;-1.479271203E-1
6.138460500E0;-1.172861308E-1;1.625268102E0;-2.163440287E-1
6.158241500E0;4.233296216E-1;4.365243018E-1;-1.424293369E-1
6.178297500E0;8.161159754E-1;-3.508810103E-1;2.983465791E-2
6.198402500E0;9.529498219E-1;-3.808134198E-1;-5.141041800E-2
6.218207500E0;1.005484223E0;-8.188037872E-1;-1.308228970E-1
6.228599500E0;9.822713137E-1;-1.047878265E0;-1.155512631E-1
6.248222500E0;9.279043078E-1;-9.837374091E-1;-5.507561192E-2
6.258248500E0;9.248499870E-1;-7.613824606E-1;-5.751907453E-2
6.268477500E0;9.272934794E-1;-5.323079824E-1;-5.935167149E-2
6.288146500E0;9.059131742E-1;-2.183232307E-1;-9.871582501E-3
6.298175500E0;8.051204085E-1;-2.329840064E-1;6.587570906E-2
6.308319500E0;7.269296646E-1;-3.576005399E-1;7.076263428E-2
6.318334500E0;6.499606371E-1;-4.449542463E-1;3.716504201E-2
6.338180500E0;5.497787595E-1;6.267477572E-2;-6.790377945E-2
6.348226500E0;4.862487316E-1;6.558248997E-1;-7.951021940E-2
6.368199500E0;2.950479388E-1;1.556240320E0;-8.649851196E-3
6.378219500E0;1.918116808E-1;1.566014171E0;2.250427566E-2
6.398189500E0;-1.759291887E-1;6.326120496E-1;3.960850090E-2
6.408249500E0;-5.094616413E-1;-1.584584415E-1;7.626041770E-2
6.428222500E0;-1.415985584E0;-1.597046137E0;3.077783287E-1
6.438627500E0;-1.901012659E0;-1.882320166E0;4.122363031E-1
6.458302500E0;-2.462397814E0;-2.372844934E0;1.385686696E-1
6.468704500E0;-2.509434462E0;-2.791898489E0;-6.484945118E-2
6.479588500E0;-2.465452194E0;-2.838324308E0;-1.528140455E-1
6.498193500E0;-1.926669002E0;-5.644394830E-2;9.214291722E-2
6.508287500E0;-1.676214218E0;7.908261418E-1;2.918958366E-1
6.528264500E0;-1.772120118E0;7.138571143E-1;3.719191849E-1
6.548217500E0;-2.389704943E0;-1.595213532E0;-2.636494488E-2
6.558240500E0;-2.114815474E0;-2.600697756E0;-1.662530750E-1
6.578216500E0;-1.358564258E0;-3.580525637E0;-5.553742647E-1
6.598185500E0;-1.491732955E0;-2.192639828E0;-1.097211719E0
6.608354500E0;-1.596801758E0;-1.184101224E0;-1.201669574E0
6.628390500E0;-1.503339410E0;-3.991393745E-1;-1.158298254E0
6.648196500E0;-1.404990077E0;-1.272676706E0;-1.021464348E0
6.668159500E0;-1.376890302E0;-2.672779799E0;-9.108978510E-1
6.678412500E0;-1.342681766E0;-3.377107382E0;-9.127304554E-1
6.698289500E0;-1.051909924E0;-3.265319109E0;-7.832269669E-1
6.719257500E0;-7.275404930E-1;-2.383840561E0;-5.840849280E-1
6.738306500E0;-4.349360466E-1;-1.901867867E0;-1.198273301E-1
6.758852500E0;-2.449569702E-1;-1.906754732E0;2.845654488E-1
6.778827500E0;2.840523422E-1;-1.628811121E0;2.485244125E-1
6.798375500E0;1.025642753E0;-8.133059740E-1;-4.408003762E-2
6.808412500E0;1.323134184E0;-2.250427455E-1;-1.803029776E-1
6.828187500E0;1.326799273E0;2.288301289E-1;-3.269106448E-1
6.838270500E0;1.145983219E0;2.541199327E-2;-2.786523104E-1
6.848314500E0;8.423832059E-1;-2.207666934E-1;-1.888550967E-1
6.858821500E0;3.811799288E-1;-2.873510122E-1;-1.369315535E-1
6.878826500E0;-7.654141188E-1;7.834957242E-1;-2.646023929E-1
6.898176500E0;-3.341432810E-1;8.879536986E-1;-7.752857208E-1
6.908256500E0;2.583959997E-1;5.232671499E-1;-1.030627370E0
6.918321500E0;9.346238375E-1;3.729943037E-1;-1.172348142E0
6.928749500E0;1.643227577E0;6.796486378E-1;-1.199226141E0
6.948320500E0;1.854586840E0;1.928257227E0;-6.329541206E-1
6.958487500E0;1.319468975E0;2.599598169E0;-1.198273301E-1
6.978294500E0;-3.748879910E0;-1.369804263E0;2.407932997E0
6.998312500E0;-1.797776461E0;-2.031371355E0;3.635161161E0
7.018144500E0;2.420248032E0;-1.274509311E0;2.535603762E0
7.028277500E0;3.830125093E0;-1.303586364E-1;1.837384939E0
7.048165500E0;4.197865963E0;4.777332783E0;7.469904423E-1
7.058207500E0;3.838066339E0;5.843292713E0;5.313550234E-1
7.068216500E0;3.453221321E0;5.977683067E0;4.855401218E-1
7.078350500E0;2.395202637E0;5.038783073E0;1.794966459E-1
7.098366500E0;1.374446869E0;4.382102966E0;-1.152800441E0
7.118188500E0;3.651752472E0;3.033923388E0;-8.937935829E-1
7.128525500E0;4.525289536E0;1.617937684E0;1.517389249E-2
7.148137500E0;4.990768909E0;-3.313333094E-1;9.540737867E-1
7.158259500E0;4.220468044E0;-9.702983499E-1;5.386853814E-1
7.168358500E0;3.431840897E0;-1.384464979E0;1.074145511E-1
7.178445500E0;2.960863829E0;-1.385075927E0;-1.659110188E-2
7.199106500E0;2.447736979E0;-8.866098523E-1;4.693888500E-2
7.218600500E0;1.939497113E0;-6.563136578E-1;-2.453234792E-2
7.238401500E0;1.338405728E0;-6.805038452E-2;3.777590767E-2
7.258493500E0;-5.076290369E-1;-3.765373528E-1;5.600656867E-1
7.278291500E0;-2.042733431E0;-1.378356338E0;7.268319130E-1
7.298656500E0;-3.005456924E0;-2.083905697E0;5.283007026E-1
7.318575500E0;-2.512488842E0;-2.006936550E0;6.034371257E-1
7.338891500E0;-2.528371334E0;-2.303206444E0;7.030081749E-1
7.358213500E0;-4.027434826E0;-3.883514643E0;1.015160322E0
7.378386500E0;-4.683503628E0;-4.337998390E0;9.760649204E-1
7.398171500E0;-5.446474552E0;-1.036882639E0;-2.132897079E-1
7.408258500E0;-4.714657784E0;1.631987572E0;-1.166850328E0
7.420824500E0;-3.158784151E0;3.409605503E0;-1.652488232E0
7.438270500E0;-1.534493446E0;4.531154156E0;-3.989927471E-1
7.458254500E0;-2.395202637E0;1.439565063E0;3.688648641E-1
7.468315500E0;-3.437949657E0;-1.924469829E0;-4.087665975E-1
7.488216500E0;-3.192381859E0;-2.626964808E0;-8.675264120E-1
7.508946500E0;-1.419650793E0;-2.524339437E0;-7.288599610E-1
7.528268500E0;1.527163014E-2;-2.635517120E0;-2.798740268E-1
7.538315500E0;4.648684859E-1;-2.389949083E0;-1.051665545E-1
7.558322500E0;9.132435322E-1;-1.576887608E0;-5.324301496E-2
7.571932500E0;9.810495377E-1;-1.256794214E0;-1.454836577E-1
7.588598500E0;1.092837930E0;-7.473325729E-1;-3.721146882E-1
7.608221500E0;1.444085479E0;5.947383642E-1;-3.049195111E-1
7.628376500E0;2.181399822E0;1.719952226E0;-2.829283476E-1
7.638851500E0;2.588236094E0;1.631376743E0;-3.085846901E-1
7.658622500E0;3.031724215E0;5.128824711E-1;2.020986676E-1
7.678299500E0;1.895514846E0;1.024787545E0;1.733879894E-1
7.698391500E0;-9.108000994E-1;1.245920777E0;-3.892189264E-1
7.708620500E0;-4.351803780E0;1.515923142E0;-7.380229831E-1
7.728329500E0;-5.696318626E0;3.871419668E0;-1.017188311E0
7.748641500E0;-4.685336351E-1;4.038796425E0;3.059457242E-1
7.758976500E0;7.183775306E-1;2.150612116E0;1.256452084E0
7.778182500E0;1.382388115E0;1.378111988E-1;1.245456576E0
7.788207500E0;1.872301936E0;9.050579071E-1;4.165123403E-1
7.798348500E0;2.351831198E0;2.384573460E0;-2.780414224E-1
7.818602500E0;2.689028740E0;4.465180397E0;-2.086715773E-2
7.838153500E0;3.176499367E0;3.627073526E0;2.069513559E0
7.848317500E0;4.543615818E0;1.258138061E0;3.106152058E0
7.858534500E0;5.597969055E0;-3.137648344E0;2.720085144E0
7.878249500E0;4.067140579E0;-1.411343098E0;-5.370482802E-1
7.898399500E0;4.440379620E0;2.678399801E0;-2.241973162E0
7.908496500E0;3.990782738E0;3.092566490E0;-1.605451584E0
7.918532500E0;3.086091280E0;2.701001644E0;-1.790812463E-1
7.938662500E0;2.220495224E0;1.035783052E0;1.213080645E0
7.958428500E0;1.949881911E0;-1.835039109E-1;3.768061101E-1
7.978528500E0;1.845423937E0;5.776341558E-1;-7.095810771E-2
7.998165500E0;7.281513810E-1;-4.370130002E-1;-3.152064048E-3
8.008190500E0;2.015855312E-1;-1.535348773E0;5.060407519E-2
8.018529500E0;-1.252273768E-1;-2.212798357E0;1.355143487E-1
8.038257500E0;-2.460565090E0;-1.925080776E0;-3.613878787E-2
8.058544500E0;-4.836220264E0;-1.307495952E0;3.303803504E-1
8.078189500E0;-3.456886530E0;-1.329487085E0;4.501099288E-1
8.098164500E0;-2.663372517E0;-1.615372062E0;3.193847835E-1
8.108281500E0;-3.242472649E0;-2.354519129E0;2.967827618E-1
8.128221500E0;-5.165476322E0;-4.730784893E0;-4.863464832E-1
8.138835500E0;-5.697540283E0;-5.089362621E0;-1.066057563E0
8.158390500E0;-4.601037025E0;-2.390560150E0;-1.323231816E0
8.178156500E0;-3.334713459E0;2.812179327E0;3.939103186E-1
8.188761500E0;-3.181386232E0;4.629503250E0;1.215524197E0
8.208216500E0;-3.235142231E0;3.333247185E0;1.108622670E0
8.228318500E0;-3.080593348E0;-1.142562389E0;-2.792631686E-1
8.238373500E0;-2.746450186E0;-2.589702129E0;-9.011240005E-1
8.248711500E0;-1.629177570E0;-3.180408716E0;-1.204113126E0
8.268760500E0;-3.646865487E-1;-3.105883360E0;-2.505525053E-1
8.288197500E0;4.721988440E-1;-3.237830162E0;4.989791512E-1
8.308496500E0;9.749408960E-1;-3.168802500E0;5.111964941E-1
8.319104500E0;1.218676209E0;-2.243341446E0;3.639779389E-1
8.338219500E0;1.974927425E0;7.529525161E-1;3.166725487E-2
8.358617500E0;2.899777412E0;2.250794172E0;-3.904406428E-1
8.378189500E0;3.326772213E0;1.682078481E0;-7.288599610E-1
8.388595500E0;3.294396162E0;1.305785537E0;-7.893356681E-1
8.408202500E0;2.588236094E0;1.031507015E0;-2.413894981E-1
8.418342500E0;2.096489429E0;9.887465239E-1;8.908858895E-2
8.429339500E0;1.164309144E0;4.469090104E-1;1.544511765E-1
8.448179500E0;-3.194825172E0;-1.725083441E-1;-3.598973751E-1
8.458191500E0;-8.588154793E0;-8.010886908E-1;-7.270274162E-1
8.468232500E0;-7.275404930E0;-1.795943826E-2;-7.074797153E-1
8.488210500E0;1.973094642E-1;5.870170593E0;2.466918230E-1
8.508157500E0;1.466687441E0;2.755979538E0;1.938788652E0
8.518327500E0;1.418429136E0;2.291722059E0;1.566771626E0
8.538237500E0;1.630399346E0;4.046737671E0;-6.182934046E-1
8.548344500E0;1.930945039E0;4.580634117E0;-1.042233825E0
8.568242500E0;2.012190104E0;4.454185009E0;7.219449878E-1
8.578246500E0;2.283414364E0;3.601417065E0;2.225284338E0
8.598162500E0;3.527746916E0;5.867971182E-1;3.929598331E0
8.608197500E0;5.375614166E0;-1.848111749E0;3.947924376E0
8.618407500E0;7.418347359E0;-4.077769756E0;3.315067768E0
8.638303500E0;3.824016333E0;-1.242744207E0;-2.045885563E0
8.658196500E0;3.839287996E0;5.293757915E-1;-2.511633635E-1
8.678267500E0;3.535688162E0;-2.702468038E-1;1.761637688E0
8.698787500E0;2.327396631E0;-2.598865032E0;1.236904383E0
8.708950500E0;1.458135366E0;-2.538389444E0;8.019683361E-1
8.728235500E0;1.679879427E-1;3.491705656E-1;-7.428121753E-3
8.738473500E0;2.168571502E-1;1.760880113E0;-3.006434441E-1
8.748610500E0;5.455026627E-1;1.496375442E0;-4.777943790E-1
8.768440500E0;9.816604853E-1;-3.576005399E-1;-2.872044146E-1
8.778976500E0;8.912523985E-1;-5.310862660E-1;-1.577009708E-1
8.798352500E0;-3.695123911E0;8.702386022E-1;2.534113228E-1
8.818140500E0;-4.910134792E0;-2.360383272E-1;6.749083400E-1
8.828350500E0;-4.065308094E0;-7.894822359E-1;7.268319130E-1
8.848323500E0;-3.731775761E0;-3.045407534E0;1.197198153E0
8.868352500E0;-5.080566406E0;-5.749097347E0;1.132446527E0
8.878565500E0;-5.491678715E0;-6.082629681E0;5.906089544E-1
8.898972500E0;-5.975483894E0;-3.462628603E0;-9.328889847E-1
8.918551500E0;-4.468479156E0;1.175671220E0;-1.033070803E0
8.938188500E0;-3.489873171E0;4.679594517E0;6.327586174E-1
8.959038500E0;-3.466660261E0;2.920302391E0;9.412456155E-1
8.978214500E0;-2.687196255E0;-1.432112455E0;-2.029049993E-1
8.988255500E0;-2.318233490E0;-2.352075577E0;-6.714386344E-1
9.008472500E0;-1.609629869E0;-2.215241671E0;-7.398555875E-1
9.018752500E0;-1.166752577E0;-2.088792562E0;-3.818885386E-1
9.029063500E0;-4.703662395E-1;-2.064968824E0;1.923248172E-1
9.048781500E0;9.407325089E-2;-2.109562159E0;1.599489599E-1
9.068239500E0;1.064127326E0;-1.658743501E0;-3.140824735E-1
9.088287500E0;2.098322153E0;1.219287068E-1;-1.041622877E0
9.098291500E0;2.642603159E0;7.639480829E-1;-1.357440233E0
9.108302500E0;3.198490381E0;7.694458365E-1;-1.496717572E0
9.118499500E0;3.718336821E0;2.746450007E-1;-1.488165379E0
9.138193500E0;4.188703060E0;2.819753885E-1;-1.014744878E0
9.148271500E0;3.777590752E0;7.621154785E-1;-5.211657882E-1
9.158272500E0;2.998737574E0;1.093204379E0;-5.507561192E-2
9.178186500E0;1.263880253E0;7.700567245E-1;1.709445268E-1
9.198294500E0;-2.792264938E0;1.348546147E0;-2.688784599E-1
9.218603500E0;-8.121453285E0;3.051027536E0;-1.559636712E0
9.238391500E0;1.024420977E0;6.289834976E0;1.001110435E0
9.258370500E0;1.815491557E0;2.604485035E0;1.097627163E0
9.268489500E0;2.535701752E0;3.264219522E0;3.175521791E-1
9.288311500E0;3.508810043E0;4.942266464E0;-5.126137137E-1
9.308202500E0;3.314554930E0;4.703418255E0;1.752474666E0
9.318278500E0;3.234531403E0;3.036977530E0;3.274139881E0
9.328981500E0;3.871664047E0;-6.037791967E-1;4.511753082E0
9.348644500E0;5.930890560E0;-8.019682884E0;4.181274891E0
9.368804500E0;4.674951553E0;-8.261586189E0;4.745445549E-1
9.388235500E0;3.599218130E0;1.365039468E0;-2.438671827E0
9.398305500E0;3.918089628E0;4.065063953E0;-2.303670645E0
9.418335500E0;2.804482460E0;3.219015598E0;6.529172063E-1
9.429046500E0;1.840536952E0;-1.762590647E0;1.428105235E0
9.448254500E0;9.450085163E-1;-1.275120139E0;5.093638897E-1
9.458266500E0;6.866125464E-1;3.003013432E-1;5.400048569E-3
9.478290500E0;6.200282574E-1;1.286482215E-1;-5.022289753E-1
9.498199500E0;2.809980214E-1;-1.259237647E0;-2.377243191E-1
9.508238500E0;-1.974927306E0;-2.769663036E-1;-3.971601725E-1
9.528228500E0;-4.317595482E0;2.728123963E-1;5.549099669E-2
9.548151500E0;-2.999348402E0;-4.125784039E-1;4.378926158E-1
9.558220500E0;-3.055547953E0;-1.071091175E0;8.184616566E-1
9.568320500E0;-4.120896816E0;-2.584815264E0;1.492246151E0
9.579079500E0;-4.701219082E0;-4.043561459E0;1.956503630E0
9.598252500E0;-4.182594299E0;-5.045380592E0;1.817226410E0
9.608378500E0;-4.249789715E0;-4.868229389E0;1.326701641E0
9.628561500E0;-5.465411186E0;-5.131267942E-3;-1.341557741E0
9.638736500E0;-5.134322166E0;1.917872548E0;-1.525428176E0
9.648996500E0;-4.573548317E0;3.615467072E0;-9.506040812E-1
9.668127500E0;-3.648698092E0;4.802989006E0;9.418564439E-1
9.688111500E0;-3.030502558E0;1.523864388E0;6.187087297E-1
9.698275500E0;-2.773939133E0;-5.787337422E-1;-2.474981695E-1
9.718356500E0;-2.543642759E0;-2.703933954E0;-1.535812974E0
9.729391500E0;-2.331672668E0;-2.415605545E0;-1.439296246E0
9.748576500E0;-1.539380431E0;-2.602530241E0;-3.134716153E-1
9.768175500E0;-7.202101350E-1;-3.654440165E0;3.456519842E-1
9.778216500E0;-2.840523422E-1;-3.998357296E0;3.010588288E-1
9.798433500E0;5.033529997E-1;-3.415591955E0;-4.774522781E-2
9.818296500E0;2.287690401E0;-2.458121777E-1;-1.420359373E0
9.838879500E0;3.247970581E0;5.018868446E-1;-1.669592381E0
9.858593500E0;3.780034065E0;1.058385134E0;-1.420359373E0
9.878190500E0;3.136182070E0;1.332052708E0;-6.500583887E-1
9.888730500E0;2.695137501E0;1.272187948E0;-3.489018083E-1
9.908245500E0;1.143539786E0;1.590448737E0;-2.328373939E-1
9.928554500E0;-7.959574223E0;1.772486567E0;-2.084027827E-1
9.938983500E0;-7.348097801E0;-2.024040937E0;-1.292590890E-2
9.958239500E0;-6.469062567E-1;-7.106806636E-1;4.800423384E-1
9.978360500E0;1.800219893E0;3.688770771E0;1.816615582E0
9.989349500E0;1.525330544E0;5.299011707E0;1.943064690E0
9.999479500E0;1.325577617E0;6.680788994E0;-2.939239442E-1
1.001832250E1;2.992017984E0;6.440107822E0;-8.681372404E-1
1.002837850E1;3.368310928E0;5.644761562E0;2.143159658E-1
1.004849350E1;3.580892086E0;2.586770058E0;2.622957468E0
1.006816650E1;4.400673389E0;-1.078421474E0;2.994974375E0
1.007837150E1;5.323079586E0;-2.854206800E0;2.250940561E0
1.009854750E1;8.820894241E0;-3.330070734E0;2.314201891E-1
1.011825850E1;2.523484230E0;6.034493446E0;-1.552917123E0
1.013884550E1;3.073873997E0;1.631987572E0;6.254282594E-1
1.015823450E1;3.781866789E0;-2.318477869E0;1.831276298E0
1.017839650E1;1.478293896E0;-2.089403391E0;1.367018700E0
1.018884450E1;5.137376785E-1;-5.995031595E-1;1.006608248E0
1.020846350E1;5.736024976E-1;-2.537534237E-1;3.655417636E-2
1.022826150E1;1.404989958E-1;-1.110797405E0;-1.955746114E-1
1.023834850E1;-2.062281132E0;5.012760162E-1;-4.802378416E-1
1.024860250E1;-3.844174862E0;1.614883304E0;-4.423641860E-1
1.026823350E1;-3.268739939E0;8.537452817E-1;-6.206390448E-3
1.028874450E1;-2.331672668E0;-2.116281509E0;4.513316751E-1
1.030821150E1;-4.015828133E0;-5.413732052E0;1.564328194E0
1.031872950E1;-4.018271923E0;-5.675182343E0;1.870982528E0
1.033878850E1;-4.755586147E0;-4.945809364E0;2.158699989E0
1.035825350E1;-6.675535202E0;-7.980343699E-1;9.406347275E-1
1.036835850E1;-6.579018593E0;1.448727965E0;-4.582466781E-1
1.037855250E1;-5.345681667E0;2.636860847E0;-1.518097878E0
1.039894950E1;-2.894279480E0;4.002755642E0;5.429614782E-1
1.041821450E1;-3.409849882E0;2.019276142E0;8.569461703E-1
1.042999550E1;-3.512475252E0;2.052507177E-2;9.641897678E-2
1.044824450E1;-3.214983702E0;-3.041742325E0;-1.126533151E0
1.045855850E1;-2.783102036E0;-2.876197815E0;-1.201058745E0
1.047862250E1;-1.265101910E0;-2.368568897E0;-7.123666406E-1
1.048925250E1;-6.340780854E-1;-2.596421719E0;-3.983818889E-1
1.050844950E1;1.466076449E-2;-3.263486385E0;-7.340156287E-2
1.052818450E1;9.162978530E-1;-2.725924969E0;-4.875681996E-1
1.053838750E1;1.782504797E0;-1.820622802E0;-1.047731638E0
1.055822550E1;3.241250992E0;-7.858170867E-1;-2.044663668E0
1.057830950E1;4.061032295E0;-6.178291440E-1;-2.421567678E0
1.058881250E1;4.262617588E0;-1.981646866E-1;-2.290231705E0
1.060832450E1;3.161227703E0;1.254472852E0;-1.135085344E0
1.062819150E1;1.196685076E0;1.687576294E0;-2.187874913E-1
1.063827050E1;-1.454470158E0;3.964881897E0;-2.212309539E-1
1.065842950E1;-1.003712654E1;2.848831177E0;-2.597154677E-1
1.067813750E1;-1.263269305E0;-5.027054310E0;-4.957782477E-2
1.068816050E1;1.744020343E0;2.306993723E0;3.352672756E-1
1.069876450E1;1.841147900E0;5.690576077E0;8.343441486E-1
1.071812950E1;-3.207042515E-1;6.078475475E0;1.506296039E0
1.072835950E1;-1.814269871E-1;6.515855312E0;7.317188382E-1
1.073883250E1;6.420193911E-1;6.839613914E0;-1.754160672E-1
1.075908450E1;2.965750694E0;6.385740757E0;-4.774522781E-2
1.077825450E1;3.937637329E0;3.368677378E0;2.149537086E0
1.079821450E1;7.254635811E0;-4.309288025E0;3.508101225E0
1.080911250E1;7.663915157E0;-5.381967068E0;2.618070602E0
1.082822250E1;6.093380928E0;8.329758644E-1;-8.620285988E-1
1.083838150E1;2.744006634E0;4.941044807E0;-2.778312922E0
1.084851150E1;2.045176744E0;5.005796432E0;-2.854060173E0
1.086829350E1;4.444655418E0;1.787758231E0;1.726207495E0
1.087839950E1;4.310875893E0;-8.035321832E-1;2.674880981E0
1.089827950E1;2.296242476E0;-2.597032547E0;1.912521362E0
1.090834650E1;1.330464482E0;-1.162110090E0;1.318760395E0
1.092817750E1;7.250970602E-1;1.261803269E0;4.855401218E-1
1.093819350E1;6.524040699E-1;8.629082441E-1;2.448592335E-1
1.094851850E1;5.314527750E-1;-1.857030392E-2;5.671272799E-2
1.095878350E1;-2.021964043E-1;-2.922379375E-1;-1.247142404E-1
1.097829550E1;-3.797749281E0;9.313251376E-1;-4.961203337E-1
1.098830950E1;-4.129448891E0;7.608937621E-1;-2.969782650E-1
1.099839750E1;-3.721390963E0;-3.783699572E-1;2.760133445E-1
1.100939950E1;-3.205820799E0;-1.404623508E0;5.038660765E-1
1.102847950E1;-3.487429619E0;-3.886569023E0;1.212469816E0
1.104827550E1;-4.870428562E0;-5.459547043E0;1.962001443E0
1.106849750E1;-5.588195324E0;-4.769880295E0;2.159921646E0
1.108841850E1;-6.801984310E0;-2.745228410E-1;4.110145569E-1
1.109872750E1;-5.783061028E0;1.555018544E0;-7.710096836E-1
1.111832950E1;-3.119077921E0;4.155471802E0;-8.229332566E-1
1.113969950E1;-2.745228291E0;4.366220474E0;8.477832079E-1
1.115823550E1;-3.127019167E0;1.026009202E0;-3.165259361E-1
1.116854450E1;-3.120299578E0;-9.214291573E-1;-1.139972210E0
1.118816050E1;-2.089159012E0;-2.499294043E0;-1.428911448E0
1.120868350E1;-1.095281363E0;-3.145589590E0;-6.445605755E-1
1.122818450E1;-7.293730974E-1;-3.750346184E0;-4.984661005E-3
1.124818950E1;-4.331034422E-1;-3.381383419E0;4.178318195E-3
1.125824150E1;3.139847517E-1;-2.842600346E0;-4.362555444E-1
1.126846450E1;1.389107585E0;-2.433931589E0;-1.156465650E0
1.128825950E1;3.593720198E0;-2.648956060E0;-2.306114197E0
1.129883250E1;4.225965977E0;-2.796174526E0;-2.556568861E0
1.131813850E1;4.423275471E0;-1.525574923E0;-2.508310556E0
1.132818350E1;3.911370277E0;-4.638910890E-1;-2.160728216E0
1.134820350E1;1.940108061E0;1.252640247E0;-1.096600771E0
1.135840250E1;4.465425014E-1;2.767585993E0;-8.473678231E-1
1.136844050E1;-2.979189873E0;6.090692997E0;-8.125485182E-1
1.138821050E1;-6.017022610E0;-2.014878035E0;-2.206200957E-1
1.139835550E1;-2.963307381E0;-5.940298080E0;-2.880840749E-2
1.141839250E1;1.486845970E0;-4.718323350E-1;1.093351126E0
1.142918450E1;1.343903542E0;1.675969839E0;1.784239650E0
1.144831850E1;1.474628687E0;5.914763927E0;4.763771296E-1
1.146008350E1;2.201558352E0;6.667960644E0;-8.009420633E-1
1.147853350E1;3.552792311E0;7.691771030E0;-1.539478064E0
1.149520650E1;3.930917978E0;7.553715229E0;-6.244020462E-1
1.150824950E1;4.623028278E0;5.062606812E0;1.828832865E0
1.152818050E1;5.139820099E0;1.016235352E0;2.696872234E0
1.153825650E1;5.655390263E0;-1.778473139E0;2.313248873E0
1.154886050E1;6.571688175E0;-4.330667973E0;1.357855797E0
1.156819850E1;3.131906033E0;-1.228083491E0;-1.354385972E0
1.158815550E1;4.686558247E0;1.444451928E0;1.107401013E0
1.159821450E1;5.076900959E0;2.324708700E0;1.852656603E0
1.160828950E1;4.052480221E0;1.705902219E0;2.075011492E0
1.161853650E1;2.468506575E0;5.409822464E-1;1.830054641E0
1.163835450E1;6.133087277E-1;4.462981224E-1;7.848640680E-1
1.164891050E1;5.552765131E-1;3.003013432E-1;3.847473562E-1
1.166820850E1;6.517932415E-1;-1.159055710E0;2.861292660E-2
1.167902050E1;2.785545588E-1;-1.329487085E0;-6.484945118E-2
1.169856750E1;-4.494746685E0;4.346916974E-1;-5.694241524E-1
1.170874350E1;-5.590027809E0;3.088534474E-1;-3.354627788E-1
1.172827050E1;-2.751337051E0;-3.199345589E0;-6.182934046E-1
1.173834150E1;-1.926058054E0;-3.805934906E0;-6.219585538E-1
1.174842250E1;-1.656666517E0;-3.817541361E0;-4.423641860E-1
1.176850350E1;-3.546683550E0;-4.965968132E0;6.162652969E-1
1.177884550E1;-4.444655418E0;-5.588439465E0;1.414055347E0
1.179815550E1;-5.763513565E0;-3.476678371E0;1.027377605E0
1.180889350E1;-6.199060440E0;-7.424456477E-1;2.167594284E-1
1.182848250E1;-4.098294735E0;4.316740513E0;-5.419352055E-1
1.184846050E1;-2.634661674E0;5.714399815E0;9.235305190E-1
1.186822250E1;-2.911994696E0;1.604498625E0;8.545027375E-1
1.187874250E1;-2.814867020E0;-6.923546791E-1;1.660576165E-1
1.189860450E1;-2.739119768E0;-3.206676006E0;-1.179678440E0
1.191821950E1;-2.123978376E0;-2.322143078E0;-1.020853519E0
1.193834350E1;-8.649851680E-1;-2.617191076E0;2.983465791E-2
1.195835650E1;1.191187203E-1;-3.220114946E0;5.686178207E-1
1.196877250E1;6.957755089E-1;-3.337401152E0;4.623272419E-1
1.198814550E1;1.567480206E0;-1.525574923E0;-3.281323910E-1
1.199885050E1;2.289522886E0;-6.135530472E-1;-8.400374651E-1
1.201830150E1;3.379917383E0;-1.368338149E-2;-1.343390346E0
1.203849250E1;3.524692535E0;6.118426323E-1;-1.055672884E0
1.205826550E1;2.553416729E0;1.682689428E0;-3.073629737E-1
1.206876450E1;1.772730947E0;2.051651955E0;-1.143295318E-1
1.208818950E1;-1.691485882E0;3.542773962E0;-7.034724206E-2
1.209871550E1;-6.675535202E0;4.346061707E0;-5.996252969E-2
1.211848850E1;-6.385374546E0;-3.977587938E0;-2.084027827E-1
1.212882650E1;-1.711644411E0;-3.570140839E0;-1.650313586E-1
1.214843750E1;2.365270138E0;1.129245520E0;7.323296666E-1
1.216831750E1;1.491122127E0;7.125498772E0;2.473026961E-1
1.218813550E1;2.786156416E0;7.644123554E0;-1.113705039E0
1.219853150E1;3.317609072E0;7.306314945E0;-5.309396386E-1
1.220876950E1;3.630372047E0;6.388795376E0;6.077131629E-1
1.222881550E1;3.973678589E0;3.344242811E0;2.908842564E0
1.224819850E1;4.899139404E0;-1.620869875E0;3.131808281E0
1.225852250E1;6.103154659E0;-4.666033268E0;2.385330915E0
1.227831650E1;8.949787140E0;-7.919501305E0;-1.015013680E-1
1.229841050E1;2.091602564E0;3.640756756E-2;-1.261534452E0
1.231820250E1;3.458108187E0;5.027787685E0;7.964705229E-1
1.233839950E1;2.114204645E0;1.474995255E0;1.403059721E0
1.234850450E1;1.309695125E0;-7.110472023E-2;1.286995411E0
1.236831950E1;3.475823402E-1;-1.471818686E0;6.956777573E-1
1.238819050E1;-7.293730974E-1;-2.435153246E0;3.841364980E-1
1.239866550E1;-2.226603746E0;-2.355129957E0;1.703336686E-1
1.241829750E1;-2.900388241E0;-1.796799064E0;2.558547854E-1
1.242832650E1;-2.576018810E0;-1.502972841E0;3.322129548E-1
1.244832350E1;-1.983479381E0;-1.130345106E0;4.458338916E-1
1.246838350E1;-3.377473831E0;-1.960510969E0;1.067694783E0
1.247939950E1;-4.196033478E0;-2.576263189E0;1.530730605E0
1.249823950E1;-4.445266247E0;-3.652607679E0;1.810506940E0
1.250824750E1;-5.153259277E0;-4.383813381E0;1.972386241E0
1.252820050E1;-7.678575993E0;-4.169399738E0;2.047522545E0
1.253831950E1;-7.875274658E0;-3.075950861E0;1.252176046E0
1.254848050E1;-6.291912079E0;-1.796188235E0;3.047240078E-1
1.256816550E1;-1.630399346E0;6.684453964E0;1.061586142E0
1.257822450E1;-1.911397338E0;6.277007103E0;1.138555169E0
1.258854650E1;-2.309070587E0;3.767572403E0;5.118073225E-1
1.260821750E1;-2.430632830E0;-2.013656139E0;-9.341107011E-1
1.261824250E1;-2.408641577E0;-3.256156206E0;-1.271919131E0
1.262827050E1;-2.303572893E0;-2.689883947E0;-1.265199661E0
1.264824250E1;-1.576032281E0;-1.554285526E0;-9.170064926E-1
1.265827450E1;-1.191187263E0;-1.796188235E0;-7.624575496E-1
1.267823650E1;-3.371976018E-1;-2.682553530E0;-6.873211265E-1
1.269828150E1;7.183775306E-1;-2.372844934E0;-9.866451025E-1
1.271955150E1;2.260201454E0;-9.513615370E-1;-1.886449575E0
1.273830850E1;3.705508471E0;-9.953438640E-1;-2.290842533E0
1.274884350E1;4.056756020E0;-9.000488520E-1;-2.067876577E0
1.276813150E1;2.645046473E0;1.607553005E0;-1.143637419E0
1.277869450E1;1.712255239E0;2.223916054E0;-7.013710737E-1
1.279818650E1;-5.797110796E-1;3.115168333E0;-4.496945739E-1
1.280827850E1;-5.459913731E0;3.875695705E0;-3.916623592E-1
1.281835350E1;-9.076235771E0;9.801943898E-1;-1.570900977E-1
1.283850750E1;-4.335921288E0;-9.107023239E0;5.008117557E-1
1.285846550E1;2.229047298E0;3.467026711E0;1.266836882E0
1.287839150E1;1.950492740E0;8.173743248E0;9.705671072E-1
1.289836250E1;2.964529037E0;8.327681541E0;-1.529093385E0
1.290944250E1;3.739717007E0;8.088832855E0;-1.954255581E0
1.292831350E1;4.563774109E0;7.539054394E0;-3.562321961E-1
1.293964150E1;4.751920700E0;6.294722080E0;8.777155876E-1
1.295870850E1;4.771468639E0;7.193549275E-1;3.484277487E0
1.297827050E1;6.456845760E0;-4.438791275E0;2.522775650E0
1.299847050E1;5.439144135E0;-2.774794340E0;-8.290418983E-1
1.300913550E1;2.311514139E0;-1.462411433E-1;-1.587736487E0
1.302819650E1;3.051882744E0;3.837211132E0;6.400890350E-1
1.303902450E1;3.026837349E0;4.312464237E0;1.471476674E0
1.305833050E1;1.450194120E0;2.785912037E0;1.677338243E0
1.307831550E1;1.058629513E0;-1.883908361E-1;9.968343377E-1
1.309817150E1;8.081747293E-1;-2.772961617E0;4.293405116E-1
1.310932050E1;-8.332201838E-1;-3.380161762E0;8.420167118E-2
1.312824550E1;-3.763540745E0;-3.685594320E0;-4.224744067E-2
1.314818750E1;-4.128838062E0;-2.544498205E0;1.009662509E0
1.315838450E1;-3.469714642E0;-2.268387079E0;1.146496415E0
1.317840150E1;-2.326174736E0;-1.771142721E0;1.240569592E0
1.319819650E1;-3.750712633E0;-1.624535084E0;1.455594182E0
1.320860450E1;-4.420220852E0;-1.839559555E0;1.471476674E0
1.321904550E1;-4.683503628E0;-1.878044128E0;1.401838064E0
1.323816450E1;-5.507561207E0;-1.334374070E0;4.745445549E-1
1.324885950E1;-4.922963142E0;-1.090638876E0;-3.647843003E-1
1.326817150E1;-2.608394623E0;2.781636000E0;-3.831102550E-1
1.327845050E1;-2.125811100E0;5.591616154E0;4.623272419E-1
1.329841150E1;-2.487443209E0;4.615453243E0;4.861509800E-1
1.330850150E1;-2.431854486E0;2.306382895E0;-3.244671822E-1
1.332824250E1;-2.075109243E0;-1.548787713E0;-1.595066905E0
1.334827950E1;-1.357953429E0;-2.561602354E0;-7.685662508E-1
1.335837850E1;-1.145983219E0;-2.796174526E0;-2.297830731E-1
1.337854450E1;-8.436049223E-1;-3.076561689E0;4.574403167E-1
1.339820950E1;6.719518453E-3;-2.511511326E0;1.770531833E-1
1.340830250E1;9.712758064E-1;-1.858496428E0;-4.234273732E-1
1.341959550E1;1.979814291E0;-1.166386127E0;-1.124089718E0
1.343950050E1;3.376863003E0;-1.017334938E0;-1.932264447E0
1.345826050E1;3.230866194E0;-4.638910890E-1;-1.815589190E0
1.346968650E1;2.684752703E0;1.115439981E-1;-1.446626544E0
1.348906650E1;1.367727280E0;9.331577420E-1;-5.816414356E-1
1.350825650E1;-3.555235565E-1;2.212309599E0;-4.240382314E-1
1.352817350E1;-7.701788902E0;4.222667217E0;-3.024760485E-1
1.353827350E1;-4.158770561E0;-4.064331055E0;-4.869573414E-1
1.354846950E1;4.581489041E-2;-1.816957593E0;-1.662530750E-1
1.356826750E1;1.816102386E0;1.500040650E0;8.392310739E-1
1.358820150E1;1.011592865E0;5.336885452E0;1.000499606E0
1.360817750E1;1.920560360E0;8.061955452E0;4.317839742E-1
1.361819150E1;2.700635195E0;7.993537903E0;5.173051357E-1
1.364027450E1;3.981009007E0;5.080932617E0;1.380457759E0
1.365820050E1;5.417763710E0;3.290120065E-1;1.658401489E0
1.366822650E1;6.119647980E0;-1.548787713E0;1.387788177E0
1.367824750E1;6.676146507E0;-3.082670450E0;8.887111545E-1
1.369875650E1;7.624820232E0;-2.413773060E0;-6.146281958E-1
1.370968750E1;5.058575153E0;4.197621822E0;-7.215296030E-1
1.372819550E1;1.568091154E0;4.038185596E0;1.350525379E0
1.373867750E1;4.196033478E0;1.402546614E-1;1.945508122E0
1.374877850E1;3.658472061E0;-9.067683816E-1;1.789126635E0
1.376831350E1;1.050688267E0;-1.312382936E0;1.497743845E0
1.377883050E1;2.443460971E-1;-1.857885599E0;1.387177229E0
1.379820950E1;1.569923609E-1;-3.107715845E0;1.153826714E0
1.380829650E1;-3.200933635E-1;-3.121154785E0;1.079912066E0
1.382819550E1;-2.918714046E0;-1.056430340E0;9.094805717E-1
1.383852850E1;-3.127629995E0;-4.809952974E-1;9.143674970E-1
1.385824350E1;-2.780047655E0;-1.034805775E-1;9.595715404E-1
1.386856950E1;-2.552805901E0;-2.452013046E-1;9.876713753E-1
1.388824650E1;-3.109304190E0;-9.684657454E-1;1.291882277E0
1.389876450E1;-4.105625153E0;-1.341704488E0;1.567993402E0
1.391815250E1;-4.401895046E0;-2.064357996E0;1.544169664E0
1.392838350E1;-4.138611794E0;-2.345966816E0;1.389620781E0
1.394852250E1;-5.907677650E0;-1.187521964E-1;-6.546031684E-2
1.396819350E1;-3.634648085E0;-3.826459944E-1;-1.898056030E0
1.397822150E1;-2.473393440E0;1.109086871E0;-1.241986752E0
1.398839050E1;-2.207056046E0;3.897075891E0;1.495642513E-1
1.400886450E1;-2.568688393E0;5.817636013E0;8.899329305E-1
1.402858050E1;-1.974927306E0;1.797532082E0;-3.183585405E-1
1.404832550E1;-1.139263630E0;-1.736323357E0;-1.177235007E0
1.406876750E1;-7.354817390E-1;-7.442782521E-1;-1.027572989E0
1.408889650E1;-4.398229718E-1;-1.364306450E0;-3.195802867E-1
1.410919350E1;-3.481931686E-1;-8.969945312E-1;-4.041484371E-2
1.412817650E1;2.172236919E0;-9.495289326E-1;-1.057505488E0
1.413874350E1;3.329215527E0;-1.858496428E0;-1.424024582E0
1.415837350E1;4.416555882E0;-3.096720219E0;-1.782602429E0
1.417841450E1;3.856392384E0;-2.585426092E0;-1.670203328E0
1.419827450E1;1.985311985E0;-2.342301607E0;-1.019020915E0
1.420847850E1;1.032362282E-1;-9.464746118E-1;-8.375939727E-1
1.422823050E1;-8.637023926E0;7.389392376E0;-1.471061230E0
1.423826450E1;-9.732915878E0;7.991094589E0;-1.817421794E0
1.425847650E1;-8.197811246E-1;5.184168816E0;-1.262145281E0
1.427870150E1;1.590693116E0;-1.645670980E-1;6.596367359E-1
1.429844250E1;1.287703991E0;-2.823663473E0;1.290660620E0
1.431837950E1;1.784948230E0;3.460307360E0;1.752474666E0
1.432858150E1;2.391537428E0;6.512189865E0;1.737203121E0
1.433970950E1;2.872288465E0;5.451117039E0;1.283330202E0
1.435862650E1;4.238793850E0;1.314948559E0;7.146145701E-1
1.437881050E1;5.177693844E0;-2.400333881E0;6.040479541E-1
1.439838850E1;7.213707924E0;-4.746056557E0;5.014226437E-1
1.440880750E1;4.656014919E0;-3.551814795E0;-6.668204814E-2
1.442822450E1;1.185689449E0;-3.942524493E-1;-2.453234792E-2
1.444070050E1;2.691472292E0;4.475198686E-1;6.431433558E-1
1.445827150E1;3.924809217E0;1.383976340E0;1.393896818E0
1.446832450E1;2.770273924E0;1.138408422E0;1.593038917E0
1.448857450E1;8.301658630E-1;2.508212626E-1;1.644351602E0
1.450822150E1;5.699372888E-1;-3.628539294E-2;1.269280314E0
1.451835850E1;8.210029006E-1;-6.972416043E-1;9.345260859E-1
1.453814650E1;-1.505782843E0;1.252029419E0;5.435723066E-1
1.454824650E1;-3.222314119E0;2.605095863E0;2.668503523E-1
1.455826250E1;-3.897320271E0;2.906863451E0;2.002660632E-1
1.456841150E1;-3.872885704E0;2.400455952E0;3.065566123E-1
1.457849050E1;-3.513086081E0;1.445673704E0;4.751554132E-1
1.459870650E1;-2.401922226E0;-1.397904038E0;7.036190033E-1
1.461853650E1;-2.557692766E0;-3.718581200E0;8.380093575E-1
1.462920250E1;-2.433076143E0;-4.442456245E0;6.742974520E-1
1.464814650E1;-3.106249809E0;-3.637946844E0;-2.090136558E-1
1.465830150E1;-3.923587561E0;-2.266554356E0;-1.113705039E0
1.467882150E1;-4.389066696E0;2.175657749E0;-1.472282887E0
1.469827250E1;-3.415347576E0;4.837808609E0;2.100399137E-1
1.470845350E1;-2.965139866E0;4.200675964E0;7.103385329E-1
1.471862750E1;-2.486832380E0;3.484131098E0;1.149550676E0
1.473824650E1;-1.397659659E0;1.283794403E0;6.975103617E-1
1.474836650E1;-5.180137157E-1;-5.219233036E-1;1.642250121E-1
1.476826450E1;3.457497358E-1;-2.868867636E0;-1.017188311E0
1.477923450E1;-1.264491081E-1;-2.122390270E0;-1.331783891E0
1.479831650E1;-4.703662395E-1;-8.157494664E-1;-6.665517092E-1
1.480873350E1;-3.506366313E-1;-7.748214602E-1;-2.071810514E-1
1.482873550E1;4.886921495E-3;-9.556375742E-1;9.764070064E-2
1.484832850E1;8.136725426E-1;-2.075353622E0;-2.108462453E-1
1.485859050E1;1.573588848E0;-2.926899672E0;-4.295360148E-1
1.487839950E1;2.895501375E0;-3.838921547E0;-7.306925654E-1
1.488848050E1;3.020117760E0;-3.693535566E0;-8.107159138E-1
1.489865550E1;2.846632004E0;-3.366111755E0;-8.302636147E-1
1.491817350E1;9.120218158E-1;-2.025873423E0;-6.641082764E-1
1.492882850E1;-1.608408213E0;8.405505121E-2;-7.655119300E-1
1.494832950E1;-6.957144260E0;3.911736727E0;-7.954443097E-1
1.495865950E1;-9.543547630E0;4.447465420E0;-8.852415085E-1
1.497822550E1;-1.526552200E0;2.658852100E0;-6.091303825E-1
1.499842050E1;2.032348633E0;-2.403388262E0;7.017863989E-1
1.500860350E1;1.906510472E0;-4.354491711E0;1.181926608E0
1.501863750E1;1.555873752E0;-5.009950161E0;1.260117292E0
1.503849350E1;9.560041428E-1;-7.790975571E-1;9.888930917E-1
1.505934950E1;2.483778000E0;4.069339752E0;3.823038936E-1
1.507874350E1;3.397632599E0;2.414505959E0;-1.410585523E0
1.508899550E1;3.722002029E0;5.666385889E-1;-1.954255581E0
1.510823450E1;4.324925900E0;-2.371012449E0;-1.734954953E0
1.511882650E1;3.034167767E0;-1.254961610E0;-1.307960153E0
1.513822150E1;2.364048481E0;-7.632150650E-1;9.764070064E-2
1.515958250E1;3.026837349E0;-1.609263420E0;6.633018851E-1
1.517890550E1;3.105638981E0;-2.895745516E0;2.699046731E-1
1.519827150E1;2.683531046E0;-3.075950861E0;1.171883941E-1
1.520871350E1;2.139250040E0;-2.991651535E0;3.114435375E-1
1.522822750E1;1.180191636E0;-2.422325134E0;1.005386472E0
1.524869750E1;8.930850029E-1;-1.482814312E0;1.345638394E0
1.526823550E1;-6.841690838E-2;-7.314500809E-1;1.565549970E0
1.527827350E1;-1.459967971E0;-1.298333049E0;1.668175340E0
1.529856950E1;-3.023782969E0;-1.907365680E0;2.042635679E0
1.531880450E1;-2.736065388E0;-1.198151112E0;2.230782032E0
1.533894250E1;-3.128851891E0;-2.020375729E0;2.652889967E0
1.535845650E1;-3.570507288E0;-3.253712654E0;3.015133142E0
1.536875950E1;-3.548516273E0;-3.394211769E0;2.933887959E0
1.538853650E1;-3.806301355E0;-3.382605314E0;2.497119427E0
1.540826050E1;-5.052466393E0;-2.668503761E0;6.474193931E-1
1.542519550E1;-4.828889847E0;-1.388741016E0;-2.004615366E-1
1.543856850E1;-2.276694775E0;3.249558687E0;4.892053008E-1
1.545826850E1;-1.230893493E0;4.943488121E0;3.798604310E-1
1.546943250E1;-1.152702689E0;4.273979664E0;-2.462764233E-1
1.548821950E1;-1.191798091E0;2.076086521E0;-1.293910265E0
1.550834450E1;-9.749408960E-1;-1.381410718E0;-1.822919607E0
1.552835850E1;-4.135557711E-1;-2.110172987E0;-6.641082764E-1
1.554821050E1;2.364048511E-1;-1.404012680E0;1.446773261E-1
1.555829750E1;5.919284225E-1;-9.037140608E-1;7.320608944E-2
1.557824150E1;1.462411404E0;-5.640729666E-1;-1.803029776E-1
1.559860550E1;2.202169180E0;-1.710056186E0;-6.476148963E-1
1.561818750E1;2.447736979E0;-2.105285883E0;-1.037346840E0
1.562827750E1;2.440406561E0;-1.644082785E0;-1.159519911E0
1.564853750E1;1.968818665E0;-2.623055279E-1;-1.227936864E0
1.566816050E1;-1.314581990E0;3.437094450E0;-1.397757411E0
1.567831850E1;-4.543615818E0;6.386962414E0;-1.657375097E0
1.568854250E1;-8.805011749E0;8.079669952E0;-2.083148241E0
1.570845050E1;-4.911356568E-1;1.683544666E-1;4.244535863E-1
1.572827350E1;2.941926956E0;-1.262902856E0;1.635188580E0
1.573873250E1;3.434895277E0;-1.299554706E0;8.038009405E-1
1.575857250E1;2.969415903E0;9.142209291E-1;-1.438685298E0
1.577850150E1;1.594969153E0;4.897673130E0;-1.139361382E0
1.579829050E1;1.356731772E0;5.955691814E0;1.354801416E0
1.581838350E1;4.048203945E0;-1.832840085E0;3.030404568E0
1.582855050E1;7.374976158E0;-9.346482277E0;2.968096495E0
1.584919850E1;7.250970364E0;-1.107828522E1;-1.613661647E-1
1.586862950E1;2.232712507E0;-1.700648814E-1;-2.917590141E0
1.588818850E1;3.616933107E0;5.269079208E0;-2.337268353E0
1.590833150E1;2.868623257E0;-1.611706853E0;5.976705626E-2
1.592887550E1;1.734857321E0;-3.283645153E0;3.254934251E-1
1.594829850E1;1.056185961E0;-1.344758749E0;3.199956417E-1
1.595847650E1;5.387831330E-1;-3.056769669E-1;2.973936200E-1
1.597816350E1;-1.125213742E0;5.690820217E-1;2.204246223E-1
1.598824550E1;-2.142304420E0;6.460510492E-1;1.092471406E-1
1.600820750E1;-3.234531403E0;4.475198686E-1;-9.773857892E-5
1.602907450E1;-2.726291656E0;2.663372457E-2;9.641897678E-2
1.603950650E1;-2.345722437E0;-1.450194120E-1;1.495642513E-1
1.605817350E1;-1.924225569E0;-4.999321401E-1;3.474845886E-1
1.606827650E1;-2.480112791E0;-1.301998138E0;6.107674837E-1
1.607845650E1;-3.591276884E0;-2.719205618E0;9.821735620E-1
1.609837450E1;-4.577213287E0;-3.762563467E0;8.209051490E-1
1.611840350E1;-5.086674690E0;-1.792523026E0;3.401542008E-1
1.613830850E1;-2.835025549E0;2.895256996E0;7.451578379E-1
1.615823950E1;-1.781893969E0;5.967908859E0;9.125349522E-1
1.616875250E1;-1.713477015E0;5.730893135E0;4.751554132E-1
1.618822150E1;-1.298699498E0;2.259957075E0;-5.785871148E-1
1.620832050E1;-9.340129495E-1;-2.062525511E0;-1.688529253E0
1.622827450E1;-9.645562172E-1;-1.922026396E0;-1.863847613E0
1.624874950E1;-5.039638281E-1;-2.283047676E0;-7.441316247E-1
1.626818950E1;-1.032362282E-1;-2.520674467E0;2.216463536E-1
1.627843950E1;1.973094642E-1;-1.890872240E0;4.867618382E-1
1.629847650E1;1.879021525E0;-7.754323483E-1;1.959900111E-1
1.630854350E1;2.420858860E0;-9.623571038E-1;-1.228816509E-1
1.632823750E1;2.708576441E0;-8.499579430E-1;-6.244020462E-1
1.634825750E1;2.583960056E0;-2.842966914E-1;-7.826161385E-1
1.635841950E1;2.518597364E0;-6.927211583E-2;-7.960551381E-1
1.637817050E1;8.851437569E-1;2.111150324E-1;-6.127955914E-1
1.638825350E1;-1.803274155E0;4.096462131E-1;-3.434040248E-1
1.639834350E1;-5.932723045E0;4.438546896E-1;8.542339504E-2
1.640851750E1;-9.069516182E0;-1.941574097E0;5.228028893E-1
1.642918750E1;-4.010941505E0;-5.964732647E0;1.282719374E0
1.644824650E1;2.531425476E0;9.007818699E-1;1.715822816E0
1.646819050E1;4.354247570E0;5.670417786E0;9.895039201E-1
1.647822450E1;4.698164463E0;7.302038670E0;-1.491488516E-1
1.648932850E1;4.546669960E0;6.949569702E0;-6.140173078E-1
1.650826450E1;4.020715237E0;5.105367184E0;-1.024518728E0
1.652820550E1;3.872885704E0;2.288056850E0;-8.143811226E-1
1.654821950E1;4.015217304E0;-8.945510983E-1;-8.742459416E-1
1.655836150E1;4.284608841E0;-2.358184099E0;-1.081940055E0
1.657823350E1;4.792848587E0;-4.504153728E0;-6.146281958E-1
1.659830350E1;1.417207360E0;3.638313413E-1;6.333695054E-1
1.661814650E1;1.948660135E0;4.222667217E0;7.335513830E-1
1.662821350E1;1.244332552E0;4.165245533E0;6.956777573E-1
1.664836750E1;-3.145955801E-1;1.873890162E0;4.788205922E-1
1.666816250E1;-4.135557711E-1;-2.867401540E-1;2.540222108E-1
1.667828250E1;-2.048231125E0;-1.361863017E0;-2.762088478E-1
1.669830950E1;-3.048828363E0;-1.195096731E0;-7.392446995E-1
1.671834050E1;-3.292563677E0;-8.334645629E-1;-9.047891498E-1
1.673864450E1;-3.400686741E0;-7.833735943E-1;-6.970949769E-1
1.675829750E1;-3.544240236E0;-1.531072617E0;-4.955094457E-1
1.676849150E1;-4.283387184E0;-2.510289669E0;-4.411424696E-1
1.678905450E1;-3.826459885E0;-3.464461088E0;3.065566123E-1
1.680839050E1;-1.118494272E0;1.222707868E0;1.489802599E0
1.681854850E1;-6.120869517E-1;4.324070930E0;2.119604588E0
1.683815150E1;-1.137431026E0;6.714386463E0;1.776298404E0
1.684866450E1;-1.624290705E0;5.181725502E0;6.559715271E-1
1.686820850E1;-1.322523236E0;1.226983905E0;-1.100876808E0
1.687826850E1;-1.857030392E-1;-8.230798244E-1;-1.089270473E0
1.688828150E1;4.001167417E-1;-1.289780855E0;-9.725952148E-1
1.689828150E1;8.338310719E-1;-1.525574923E0;-7.905573845E-1
1.691848550E1;1.150870085E0;-1.159055710E0;-2.157331705E-1
1.693829750E1;1.199128509E0;-8.133059740E-1;1.654467434E-1
1.695829350E1;1.968207836E0;-2.268997908E0;7.442782074E-2
1.697836250E1;2.914438009E0;-3.015475273E0;1.944994926E-2
1.699821750E1;3.074484825E0;-2.499294043E0;-8.622973412E-2
1.700903250E1;2.815477848E0;-2.215852499E0;-1.595335603E-1
1.702821950E1;1.067792416E0;-7.784866691E-1;-3.721146882E-1
1.704878450E1;-8.449487686E0;6.617869854E0;-1.558414936E0
1.706817750E1;-1.390940189E0;7.399166584E0;-1.516265273E0
1.707820350E1;6.737843752E-1;5.146906376E0;-6.586104631E-1
1.708821450E1;1.752572417E0;2.551339865E0;2.906741202E-1
1.709852550E1;2.801428080E0;3.180164397E-1;1.368851304E0
1.711841150E1;3.542407513E0;2.459343523E-1;2.790334702E0
1.713857650E1;3.387858629E0;2.606928587E0;2.174582481E0
1.715837550E1;2.467284679E0;2.602652550E0;2.027364016E0
1.717896150E1;2.303572893E0;-6.031683683E-1;2.038970470E0
1.719833450E1;3.419012785E0;-4.810808182E0;1.465368032E0
1.720839750E1;6.580851078E0;-7.631173134E0;1.295547485E0
1.721847050E1;8.294939041E0;-7.409429073E0;9.003176093E-1
1.722869850E1;4.118453503E0;-2.862758875E0;7.626041770E-2
1.724822150E1;1.756848454E0;3.428542376E0;1.593380868E-1
1.725848450E1;2.977967978E0;4.157304287E0;9.461325407E-1
1.727833750E1;2.215608358E0;2.404365689E-1;1.734148741E0
1.728836850E1;1.654833913E0;-6.019466519E-1;1.800122142E0
1.729918550E1;1.378722906E0;-9.324247241E-1;1.665120959E0
1.731820150E1;-6.304129362E-1;-1.479759932E0;7.311079502E-1
1.732823250E1;-1.646892667E0;-1.275120139E0;1.397904009E-1
1.733824350E1;-1.972483873E0;-7.870388031E-1;-2.279504687E-1
1.734826450E1;-2.079996109E0;-3.689625859E-2;-4.051014185E-1
1.735834450E1;-2.393369913E0;1.101145625E0;-5.144462585E-1
1.737818750E1;-2.707354784E0;1.781038642E0;-4.252599478E-1
1.739850450E1;-2.292577267E0;1.903456151E-1;-4.771835208E-1
1.740909650E1;-2.616946697E0;-1.069258571E0;-5.920261741E-1
1.742846350E1;-5.803830624E0;-4.872505665E0;-1.102098584E0
1.744844450E1;-7.211264133E0;-5.947628498E0;-1.163185120E0
1.746819650E1;-3.992004395E0;3.673499346E0;1.006608248E0
1.748813950E1;-4.389677525E0;5.713788986E0;9.412456155E-1
1.749825750E1;-4.057977676E0;3.235508919E0;-2.071810514E-1
1.750870650E1;-3.554624796E0;2.056172490E-1;-1.358662009E0
1.752814450E1;-2.929098845E0;-2.366736412E0;-2.577949047E0
1.753828050E1;-2.715906858E0;-2.194472313E0;-2.474712849E0
1.755893050E1;-2.557692766E0;-3.102828979E0;-1.128365755E0
1.757820450E1;-2.739119768E0;-5.504140377E0;5.203594565E-1
1.758829850E1;-2.486221552E0;-6.069190502E0;9.381912947E-1
1.760821950E1;-9.327912331E-1;-5.188323021E0;2.301984578E-1
1.761835550E1;1.667662114E-1;-4.572570801E0;-6.964841485E-1
1.762843950E1;1.356120825E0;-4.199943066E0;-1.591401696E0
1.764820350E1;3.480710268E0;-3.751567841E0;-2.720891714E0
1.765838550E1;3.618154764E0;-1.940352321E0;-2.813743114E0
1.766846550E1;3.034778595E0;-7.424456477E-1;-2.616433620E0
1.768874150E1;2.014022827E0;1.349767804E0;-2.009844542E0
1.770846750E1;3.915646374E-1;2.999714851E0;-1.471672058E0
1.772817650E1;-4.043928146E0;2.016221762E0;-3.762929700E-3
1.774835850E1;-4.993212700E0;-6.334306240E0;1.018214703E0
1.775849950E1;-3.401908636E0;-1.024689770E1;9.064262509E-1
1.776864150E1;2.687807009E-2;-4.399695873E0;9.320825934E-1
1.778817350E1;1.831984878E0;6.109629631E0;2.000485897E0
1.779819350E1;1.508837223E0;8.641055107E0;2.217343092E0
1.780822750E1;1.406822681E0;9.192667007E0;1.518513322E0
1.781827650E1;1.849089146E0;8.227499962E0;4.250644743E-1
1.783816250E1;4.044538975E0;5.209214687E0;-8.608068824E-1
1.784867450E1;5.763513565E0;2.088303804E0;-2.413894981E-1
1.786844850E1;6.437908649E0;-9.195965528E-1;3.016696870E-1
1.787868550E1;6.472117424E0;-1.982502103E0;1.165775284E-1
1.789831150E1;6.210667133E0;5.712567329E0;3.511497676E-1
1.791837150E1;1.471574426E0;1.310037136E1;1.297990918E0
1.793817050E1;3.574172497E0;-3.281201601E0;1.356023192E0
1.794829350E1;4.953506470E0;-5.132123470E0;1.390231609E0
1.795842150E1;4.708549500E0;-4.429017544E0;1.445820332E0
1.796845650E1;3.249803066E0;-2.499904871E0;1.608310461E0
1.798867950E1;1.004262447E0;-7.161784172E-1;1.661455750E0
1.799984750E1;4.538728893E-1;-1.357586980E0;1.599147558E0
1.801814550E1;-2.808147430E0;-1.495642424E0;1.197809100E0
1.802816250E1;-3.811799049E0;-1.233581305E0;1.024934173E0
1.804819150E1;-3.158784151E0;-1.137064576E0;1.313873410E0
1.805896050E1;-2.638937950E0;-1.149892807E0;1.335864544E0
1.807884150E1;-3.423899651E0;-9.904569387E-1;1.446431160E0
1.808896650E1;-4.826446056E0;-1.106521368E0;1.555776119E0
1.810835250E1;-4.861265659E0;-2.124833584E0;1.359077454E0
1.812819450E1;-4.790405273E0;-2.735698938E0;1.029821157E0
1.813857950E1;-5.574145317E0;-1.789468646E0;8.667200208E-1
1.815877150E1;-5.536882401E0;4.004832506E-1;-1.000084043E0
1.817837250E1;-2.555249214E0;2.379686594E0;-1.606062412E0
1.819826550E1;-2.051896334E0;5.316726685E0;1.929356754E-1
1.821825050E1;-2.468506336E0;1.365650296E0;-1.323231816E0
1.823820250E1;-2.503936529E0;-2.345355988E0;-2.215706110E0
1.825826350E1;-2.001805544E0;-2.824274302E0;-1.067279220E0
1.827832950E1;-7.470881939E-1;-4.805921078E0;-3.324084580E-1
1.829838350E1;1.080009818E0;-3.894510269E0;-2.914804816E-1
1.831831050E1;2.532647371E0;-2.432709694E0;-7.667336464E-1
1.833882550E1;3.409239054E0;-1.891483188E0;-1.537034631E0
1.835862250E1;3.147788525E0;-4.596150219E-1;-1.854684591E0
1.836904850E1;2.526538610E0;8.293106556E-1;-1.708687782E0
1.838823450E1;1.171639562E0;2.896478653E0;-9.438845515E-1
1.839824750E1;7.373143435E-1;3.303925753E0;-6.958732605E-1
1.841863750E1;-9.871582389E-1;3.517117739E0;-3.947167099E-1
1.842996950E1;-8.673065186E0;-2.967827797E0;1.623924226E-1
1.844826350E1;3.488040566E-1;-2.009990931E0;1.015771270E0
1.845841050E1;3.312722206E0;4.154250145E0;7.543208003E-1
1.847825950E1;3.373808861E0;8.771780968E0;6.529172063E-1
1.848982650E1;3.228422880E0;9.841405869E0;4.751554132E-1
1.850863350E1;3.266296387E0;9.194499016E0;9.082588553E-1
1.852834050E1;2.749504566E0;3.338745117E0;1.809895992E0
1.854818250E1;3.402519464E0;-3.695368290E0;1.740257382E0
1.855829150E1;5.372560024E0;-8.043506622E0;1.315706015E0
1.856862150E1;9.202074051E0;-1.228902054E1;5.906089544E-1
1.858835550E1;7.070765018E0;2.202780098E-1;-2.170501947E0
1.860828350E1;2.411085129E0;5.605055332E0;-2.582836151E0
1.861843750E1;3.177721024E0;5.999673843E0;-1.014744878E0
1.863838550E1;2.884505749E0;-1.449827552E0;1.599758387E0
1.864845150E1;2.193617105E0;-2.326419115E0;1.496522188E0
1.866833450E1;5.174028873E-1;-2.414383888E0;1.111677051E0
1.867841250E1;-2.596177161E-1;-2.472415924E0;7.671489716E-1
1.868867950E1;-8.772025108E-1;-2.339247465E0;3.462628424E-1
1.870813950E1;-4.310265064E0;4.408003390E-1;-4.173187017E-1
1.871877550E1;-5.000543118E0;1.345491767E0;-4.435859323E-1
1.873829950E1;-3.871663809E0;9.319360256E-1;-3.122498989E-1
1.875826450E1;-2.984687567E0;-8.976054192E-1;-1.772486567E-1
1.877816550E1;-4.898528576E0;-4.688024044E0;4.281187952E-1
1.878820850E1;-4.813007355E0;-5.234138012E0;6.113783717E-1
1.879843550E1;-4.750088215E0;-5.587217808E0;6.486411691E-1
1.881868450E1;-5.985868454E0;-3.754622221E0;1.868270338E-1
1.882889350E1;-4.477031231E0;2.300884962E0;7.402709126E-1
1.884858750E1;-3.408017159E0;6.529905319E0;1.183759212E0
1.885861450E1;-3.441003799E0;4.776111126E0;5.111964941E-1
1.887881450E1;-3.635259151E0;-2.091602534E-1;-1.241986752E0
1.889841950E1;-2.875953674E0;-1.652024031E0;-1.998237967E0
1.890891050E1;-2.119702339E0;-1.398514867E0;-1.905386448E0
1.892876950E1;-8.436049223E-1;-2.022819281E0;-1.055061936E0
1.894876850E1;-3.659082651E-1;-4.259807587E0;3.288898617E-2
1.896813150E1;1.295034289E-1;-4.244535923E0;6.834604740E-1
1.897877250E1;7.134906054E-1;-3.060068369E0;5.484592319E-1
1.899817350E1;2.128254414E0;-1.274509311E0;-5.498764515E-1
1.900822550E1;2.579684019E0;-1.433334231E0;-1.185176253E0
1.901823350E1;2.754391432E0;-1.636141539E0;-1.759389639E0
1.903818650E1;2.101987362E0;8.122064471E-1;-2.072152615E0
1.905827550E1;1.703092337E0;2.177490234E0;-1.303684115E0
1.907817650E1;1.784337401E0;3.050416708E0;-7.520728707E-1
1.908820350E1;4.025602043E-1;2.887926579E0;-4.069339931E-1
1.909834250E1;-4.710381985E0;6.625444293E-1;3.450411260E-1
1.910836150E1;-6.376822472E0;-2.454700947E0;7.970814109E-1
1.912817850E1;-2.821586609E0;-6.287880421E0;1.197198153E0
1.913852750E1;1.066570759E0;1.659110039E-1;9.565172195E-1
1.915848550E1;3.428786516E0;8.692978859E0;8.581679463E-1
1.916850950E1;3.032335043E0;1.024640942E1;7.683707476E-1
1.918816750E1;2.735454559E0;9.320948601E0;8.459506035E-1
1.919847850E1;2.495384455E0;7.631295204E0;1.346249342E0
1.921825250E1;2.941926956E0;1.678413391E0;2.272931814E0
1.922878050E1;5.949216843E0;-3.810821772E0;2.001096725E0
1.923883850E1;1.033095264E1;-4.412524223E0;1.843493581E0
1.925826450E1;3.959628582E0;4.537262917E0;-9.121195674E-1
1.927819050E1;2.184454203E0;1.350989580E0;-1.654931664E0
1.928821650E1;4.645019531E0;1.227594733E0;2.983465791E-2
1.929824150E1;5.606521130E0;6.032904983E-1;1.583265066E0
1.931820750E1;3.298061371E0;-2.878641367E0;1.968721032E0
1.932890850E1;2.650544405E0;-2.213409185E0;1.396340251E0
1.934818850E1;1.916895151E0;5.397605300E-1;7.671489716E-1
1.935820050E1;1.280984402E0;3.626095951E-1;6.077131629E-1
1.937815250E1;-1.150259256E0;-4.651128054E-1;-9.661444277E-2
1.938848650E1;-3.736051798E0;-1.297477782E-1;-6.341758966E-1
1.939861350E1;-5.252830029E0;2.392148226E-1;-8.290418983E-1
1.940889250E1;-5.550932407E0;4.536285102E-1;-6.628865600E-1
1.942834450E1;-2.050674677E0;-2.351464748E0;-4.087665975E-1
1.944826450E1;-3.035389423E0;-4.182838917E0;-3.308446333E-2
1.945831850E1;-4.863098145E0;-5.333097935E0;3.645887971E-1
1.947821350E1;-4.940678120E0;-5.600046158E0;9.913365245E-1
1.948871950E1;-4.899750233E0;-4.688635349E0;1.062196970E0
1.950819450E1;-5.145318031E0;7.725001574E-1;-4.102570936E-2
1.952821050E1;-3.999945641E0;6.655743122E0;-1.240154147E0
1.953892950E1;-3.629761219E0;6.362527847E0;-1.137528777E0
1.955833050E1;-3.286454916E0;1.294789910E0;-9.047891498E-1
1.957819350E1;-2.857016802E0;-1.140729785E0;-1.902332067E0
1.958820950E1;-2.359161615E0;-2.140105247E0;-2.288398981E0
1.959843950E1;-1.907732129E0;-2.646512508E0;-2.398354769E0
1.960851150E1;-1.578475833E0;-3.003257990E0;-2.211430073E0
1.962817050E1;-1.062905550E0;-4.672752380E0;-3.458474874E-1
1.964824450E1;-1.026253551E-1;-4.677639484E0;7.396600842E-1
1.965839650E1;4.459316432E-1;-3.951320648E0;1.010884285E0
1.966856550E1;1.254106402E0;-3.000814438E0;9.736214280E-1
1.967864650E1;2.124589443E0;-2.288545609E0;6.706323028E-1
1.969845150E1;3.205209970E0;-1.551231265E0;-3.348518908E-1
1.971826150E1;2.826473475E0;4.279721677E-1;-1.564523578E0
1.972852250E1;2.244929790E0;1.007683277E0;-1.884006143E0
1.974874350E1;1.554041147E0;1.271577120E0;-1.570632219E0
1.976823350E1;1.343292713E0;8.360301852E-1;-8.766893744E-1
1.977848450E1;2.156354338E-1;-1.185078546E-2;-4.643553495E-1
1.979852150E1;-6.482501984E0;-5.259183407E0;1.202085137E0
1.981822650E1;1.255328059E0;-3.232943296E0;1.516680717E0
1.983816050E1;4.034764767E0;1.015905571E1;1.334642887E0
1.984818050E1;3.299283266E0;1.363548946E1;1.366407871E0
1.985885350E1;2.494162798E0;1.434042835E1;8.997067809E-1
1.987851950E1;2.314568520E0;9.827966690E0;8.175820857E-2
1.988854650E1;2.620001078E0;6.186598778E0;4.690467715E-1
1.990857350E1;3.619987488E0;-7.222870588E-1;1.159324527E0
1.992822850E1;7.634593964E0;-5.448551655E0;1.004775643E0
1.993852850E1;1.139874554E1;-2.495628834E0;8.117421865E-1
1.995834450E1;2.491108418E0;4.866518974E0;-1.340946913E0
1.996876650E1;1.905899525E0;3.515896082E0;-7.813944221E-1
1.998819250E1;5.919284344E0;1.947194099E0;1.947340727E0
2.000824450E1;1.816102386E0;-3.947044611E0;1.976662278E0
2.001828650E1;6.646214128E-1;-2.806559324E0;1.829443693E0
2.002897650E1;1.380555481E-1;-1.534126997E0;1.630912542E0
2.003950450E1;-2.339613885E-1;-5.408601165E-1;1.367629647E0
2.005844450E1;-1.484402537E0;9.765291810E-1;8.838242888E-1
2.007822750E1;-3.836844683E0;2.603874207E0;5.655634403E-1
2.008854450E1;-4.388455868E0;2.906863451E0;5.637308955E-1
2.011000150E1;-3.805690527E0;1.680245876E0;5.863328576E-1
2.012890150E1;-2.542421103E0;-9.257051945E-1;4.036841691E-1
2.014845350E1;-3.080593348E0;-3.190182686E0;2.521896064E-1
2.016813950E1;-4.524678707E0;-4.639154911E0;3.028914034E-1
2.017819650E1;-4.518570423E0;-4.951307297E0;3.059457242E-1
2.018844750E1;-4.879591465E0;-4.578068733E0;2.405831665E-1
2.020835650E1;-6.441574097E0;1.726671696E0;-9.878668189E-1
2.022823050E1;-2.830138683E0;3.193969965E0;-4.906225204E-1
2.024835450E1;-2.422691584E0;1.620991945E0;-2.407786399E-1
2.025851450E1;-2.856405973E0;4.200309217E-1;-1.001305819E0
2.027944150E1;-3.001180887E0;-2.504791975E0;-2.003735781E0
2.029819350E1;-2.143526077E0;-3.235997677E0;-1.673868418E0
2.030860550E1;-1.557095528E0;-2.994094849E0;-1.172348142E0
2.032817650E1;-7.727445364E-1;-3.243327856E0;-1.021122336E-1
2.033818950E1;-5.870414972E-1;-3.228667259E0;2.998370826E-1
2.034821150E1;-5.186246037E-1;-2.969049454E0;5.148616433E-1
2.035835150E1;-5.265658498E-1;-2.429655552E0;5.386853814E-1
2.037815850E1;-1.857030392E-1;-1.810848951E0;-6.301685423E-2
2.038850150E1;9.828821421E-1;-2.387505770E0;-7.319143414E-1
2.040846950E1;3.094032526E0;-3.152919769E0;-1.641492605E0
2.041960250E1;3.090978146E0;-2.902465105E0;-1.591401696E0
2.042976250E1;3.039054632E0;-2.463863850E0;-1.457011342E0
2.044836550E1;2.747671843E0;-1.329487085E0;-7.899464965E-1
2.046830450E1;2.291966438E0;-2.280970812E-1;1.123991795E-3
2.048821850E1;1.644449234E0;2.905274928E-1;2.222572118E-1
2.049821850E1;7.244861722E-1;5.391496420E-1;2.082073092E-1
2.050836050E1;-2.772717237E0;1.998506784E0;1.819401085E-1
2.052818850E1;-7.172168732E0;1.375424147E0;9.153205156E-2
2.053826550E1;-3.688404322E0;-2.606195450E0;-2.768197060E-1
2.055830750E1;3.790418863E0;1.873890162E0;-1.097211719E0
2.057821050E1;4.277889252E0;1.209879637E0;-7.691770792E-1
2.058845950E1;1.331686258E0;2.069367170E0;-3.220237494E-1
2.060878350E1;6.957755089E-1;4.907446861E0;2.956587821E-3
2.061885050E1;1.410487890E0;3.567208767E0;3.166725487E-2
2.063873250E1;3.938859224E0;-1.727160454E0;-3.146933615E-1
2.065837250E1;1.082514286E1;-7.731965542E0;-3.036977649E-1
2.067815450E1;2.939483643E0;-3.020972967E0;-5.938587785E-1
2.068827950E1;1.798387289E0;-1.051543474E0;-5.205549598E-1
2.069836750E1;3.186273098E0;1.011348486E0;-3.873863220E-1
2.071815250E1;4.681060314E0;1.993619919E0;-2.941926941E-2
2.072823750E1;3.492927551E0;-8.637633920E-2;2.369179726E-1
2.073846850E1;2.163684607E0;-2.414383888E0;4.250644743E-1
2.075837250E1;9.431759715E-1;-3.238440990E0;4.604946375E-1
2.076887750E1;7.086036801E-1;-2.033814669E0;3.603127301E-1
2.079032050E1;1.252273768E-1;-6.377433240E-2;1.544511765E-1
2.080329000E1;-3.163060188E0;-1.480370879E0;-1.137186736E-1
2.081826850E1;-4.063475609E0;-1.774196982E0;-1.720196381E-2
2.083841950E1;-3.884492159E0;-1.548787713E0;3.181630373E-1
2.085827650E1;-2.797152042E0;-1.135842800E0;5.215811729E-1
2.087836950E1;-2.087937355E0;-1.130345106E0;7.665381432E-1
2.089819050E1;-3.061045647E0;-3.389935493E0;1.271723747E0
2.090825350E1;-3.766595125E0;-4.943976879E0;1.583265066E0
2.091833450E1;-3.856392384E0;-5.464434147E0;1.742089987E0
2.093825150E1;-4.294993401E0;-4.502321243E0;1.691999078E0
2.094835850E1;-5.414709568E0;-2.724703312E0;1.012105942E0
2.096855250E1;-5.329188347E0;3.030258179E0;4.049059153E-1
2.098825650E1;-2.455678225E0;4.000312328E0;1.030431986E0
2.100930350E1;-2.408641577E0;3.986506462E-1;-1.039790392E0
2.102828750E1;-2.552195072E0;-1.622702479E0;-2.256023169E0
2.104819050E1;-1.514334917E0;-2.427822828E0;-1.615836263E0
2.105829050E1;-7.073819637E-1;-3.050294638E0;-1.064224958E0
2.107046450E1;6.780603528E-2;-3.509665251E0;-5.694241524E-1
2.108381500E1;1.049466491E0;-2.757079124E0;-1.864116341E-1
2.109818150E1;1.286482215E0;-2.014266968E0;-2.908695936E-1
2.110826850E1;1.533882618E0;-1.377134562E0;-4.771835208E-1
2.112877550E1;2.284025192E0;-1.473040462E0;-9.622105360E-1
2.114819650E1;2.693304777E0;-1.304441690E0;-1.223049879E0
2.115828850E1;2.361605167E0;-5.522221699E-2;-1.266421318E0
2.117836450E1;9.547823668E-1;2.391903877E0;-7.740640044E-1
2.119824750E1;3.799581826E-1;3.784676790E0;-5.620937943E-1
2.120831150E1;1.545488983E-1;4.010086060E0;-4.222056270E-1
2.122815550E1;-4.605313301E0;1.931922436E0;4.877148196E-2
2.123827450E1;-3.669467449E0;-5.023756027E-1;-1.247142404E-1
2.125816950E1;-1.307862520E0;-5.275676727E0;-4.099883437E-1
2.127826450E1;1.971873045E0;1.283183575E0;4.702684879E-1
2.128850450E1;2.034792185E0;4.176852226E0;1.194143891E0
2.130821050E1;1.535104394E0;7.917180061E0;1.700551152E0
2.131858150E1;1.259604096E0;7.611136436E0;1.498354793E0
2.133854350E1;1.591914892E0;3.613023520E0;9.687345028E-1
2.135877350E1;3.477655888E0;-9.086009860E-1;5.936632752E-1
2.137820850E1;1.025276184E1;3.687182367E-1;-3.543995917E-1
2.138823750E1;4.704273224E0;4.790771961E0;-1.616447091E0
2.139891450E1;1.916895151E0;5.543357849E0;-2.334824800E0
2.141823550E1;3.722612858E0;4.300247192E0;1.923248172E-1
2.143409250E1;4.605313301E0;7.022506595E-1;1.203917742E0
2.144886850E1;3.919311523E0;-5.316604614E0;9.424673319E-1
2.145961450E1;3.020728588E0;-5.666630268E0;7.176688910E-1
2.147845950E1;1.519832730E0;-3.191404343E0;7.292753458E-1
2.149828950E1;-5.192354918E-1;-1.154779673E0;6.162652969E-1
2.150918750E1;-2.082439661E0;-7.534412146E-1;5.906089544E-1
2.152828050E1;-3.968791485E0;-1.474628597E-1;9.424673319E-1
2.154098450E1;-3.633426428E0;7.389025688E-1;9.271956682E-1
2.155826650E1;-3.005456924E0;8.177042007E-1;7.274427414E-1
2.156832750E1;-2.219273329E0;5.831319690E-1;4.250644743E-1
2.157876750E1;-1.337794900E0;-3.545461893E-1;-1.589227021E-1
2.159826450E1;-3.327993870E0;-1.619037271E0;-4.643553495E-1
2.160835050E1;-4.705494881E0;-2.439429283E0;-6.677734852E-1
2.161931050E1;-5.192354679E0;-2.912239075E0;-1.080107450E0
2.163818650E1;-7.029226303E0;-2.071077585E0;-1.306738496E0
2.164834050E1;-7.053660870E0;-4.083023369E-1;-6.482257843E-1
2.165839150E1;-5.377446651E0;1.679024220E0;2.485244125E-1
2.167823150E1;-2.703689575E0;4.817649841E0;8.233485818E-1
2.168889950E1;-2.481334686E0;4.525045395E0;4.122363031E-1
2.170832350E1;-2.442239285E0;4.750088155E-1;-1.195560932E0
2.172815550E1;-2.210721254E0;-2.112005472E0;-2.430119753E0
2.173865850E1;-1.824043632E0;-1.957456589E0;-2.474712849E0
2.174877950E1;-1.343292713E0;-1.890261412E0;-2.063600540E0
2.176820650E1;-4.483750761E-1;-3.081448555E0;1.904922277E-1
2.177827950E1;-2.223549485E-1;-3.758287430E0;7.329405546E-1
2.179819650E1;8.161159754E-1;-2.258613110E0;9.241413474E-1
2.180833050E1;1.492954612E0;-1.639195800E0;5.130290389E-1
2.182838250E1;2.895501375E0;-1.584828854E0;-5.034506917E-1
2.184861750E1;2.695748329E0;-1.443718910E0;-1.525428176E0
2.185877650E1;2.185065031E0;-1.001452446E0;-1.887060404E0
2.187827250E1;1.306029916E0;-1.554041207E-1;-1.971970677E0
2.189819350E1;1.074512005E0;6.472728252E-1;-1.580406070E0
2.191820650E1;2.040289938E-1;9.443975985E-2;-1.475948095E0
2.192912050E1;-3.499646902E0;-1.980669498E0;-9.084543586E-1
2.194821150E1;-4.907080650E0;-4.212160110E0;7.622620463E-1
2.195883850E1;-4.377460480E0;-7.407596111E0;1.277221560E0
2.197819250E1;2.823419094E0;6.146892548E0;6.016045213E-1
2.198828850E1;3.017063379E0;9.854233742E0;6.370347142E-1
2.199846650E1;2.845410347E0;1.154510880E1;3.358781338E-1
2.201834150E1;2.312735796E0;9.710069656E0;-5.327722430E-1
2.204016150E1;2.407419920E0;5.857342243E0;3.899763897E-2
2.205960750E1;3.189938307E0;1.757214904E0;7.280536294E-1
2.207818450E1;5.765956879E0;-1.544511676E0;1.036540627E0
2.208825050E1;9.495900154E0;-5.750685334E-1;1.426883578E0
2.209844250E1;7.438506126E0;2.243463755E0;8.966524005E-1
2.211818850E1;1.176526427E0;1.939863682E0;-5.682024360E-1
2.212866850E1;2.213775635E0;1.755993247E0;3.407650590E-1
2.214836050E1;5.057964325E0;3.354627609E0;1.794624448E0
2.215848650E1;2.962696552E0;7.733553648E-2;1.519735098E0
2.217883550E1;1.975538254E0;-1.171272993E0;7.787554264E-1
2.219852450E1;1.568091154E0;-6.893003583E-1;4.702684879E-1
2.221814850E1;-6.236934066E-1;-6.984633207E-1;-8.649851196E-3
2.222827550E1;-3.167947054E0;5.656612292E-2;-3.269106448E-1
2.224837950E1;-5.043914318E0;8.781798482E-1;-2.096245140E-1
2.225847150E1;-4.746422768E0;1.004018068E0;-1.903456077E-2
2.227815750E1;-2.653598547E0;-6.660874486E-1;-1.583118290E-1
2.228885350E1;-2.120313168E0;-1.609263420E0;-3.159150779E-1
2.230906550E1;-4.265672207E0;-4.849903584E0;-1.289903075E-1
2.232822250E1;-5.105611801E0;-6.542000294E0;3.016696870E-1
2.233827750E1;-5.177693844E0;-6.071022987E0;2.815111279E-1
2.234872050E1;-5.352401257E0;-4.192612648E0;-7.838378549E-1
2.236828950E1;-3.998112917E0;5.158512592E0;-1.220606446E0
2.238867650E1;-3.780034065E0;2.799350977E0;-3.128607571E-1
2.240859950E1;-3.532022953E0;-8.383514881E-1;-8.400374651E-1
2.242844450E1;-2.528371334E0;-2.433931589E0;-1.277416945E0
2.244109750E1;-1.800219893E0;-2.542665482E0;-1.378209710E0
2.245846950E1;-6.450737119E-1;-3.328849077E0;-1.047120690E0
2.247825050E1;-1.160643995E-2;-4.155960560E0;1.526185721E-1
2.249818050E1;5.271767378E-1;-3.466904640E0;1.215524197E0
2.250872950E1;9.388998747E-1;-2.011823654E0;1.411000967E0
2.252828050E1;2.018298864E0;9.077458084E-2;8.319007158E-1
2.253837050E1;2.717739582E0;1.561371535E-1;2.185920179E-1
2.255850150E1;2.706133127E0;4.640132189E-1;-1.719072461E0
2.257816150E1;1.879632354E0;7.364591360E-1;-1.792376280E0
2.258833550E1;1.908343077E0;1.106032610E0;-1.543143272E0
2.259834550E1;1.985922813E0;1.432234645E0;-1.293299437E0
2.260843350E1;1.946216702E0;1.466443062E0;-1.127144098E0
2.262816750E1;-1.508226275E0;-3.887179852E0;-4.191513062E-1
2.263827550E1;-3.651752472E0;-6.702046871E0;2.961719036E-1
2.264828050E1;-3.877772570E0;-5.116240978E0;9.583498240E-1
2.266822950E1;-4.041484356E0;-8.376428604E0;1.287606239E0
2.268850050E1;1.984090328E0;5.712567329E0;1.017603755E0
2.269877850E1;2.682920218E0;1.010591030E1;1.427494407E0
2.270927650E1;2.557692766E0;1.261229038E1;1.670007944E0
2.272817350E1;1.533271790E0;1.078702545E1;1.264393330E0
2.273835750E1;1.381166339E0;7.470637798E0;1.117785692E0
2.275895050E1;3.089756489E0;-1.788246989E0;9.730105996E-1
2.277825950E1;9.125104904E0;-2.262889147E0;7.329405546E-1
2.278832450E1;1.024298859E1;4.166467667E0;4.977574348E-1
2.280837950E1;1.375668526E0;7.155431271E0;-1.241375923E0
2.281862750E1;8.063421249E-1;3.082792521E0;-6.647191644E-1
2.283844550E1;4.405560017E0;8.794016242E-1;2.339516163E0
2.285824250E1;3.617543936E0;-2.209743977E0;2.192908525E0
2.287877150E1;2.517375708E0;-2.455311775E0;9.656801820E-1
2.289831550E1;1.605353832E0;-8.572883010E-1;7.402709126E-1
2.290900050E1;8.252789378E-1;-9.403659701E-1;6.736866236E-1
2.292824950E1;-2.116647959E0;4.102571011E-1;1.666684747E-1
2.293890550E1;-3.188105822E0;1.380921960E0;-1.399858743E-1
2.295897850E1;-3.076928139E0;1.614272475E0;-3.513452709E-1
2.297815150E1;-2.563801527E0;-9.067683816E-1;-4.802378416E-1
2.298834050E1;-3.494760036E0;-1.944017529E0;-5.767545700E-1
2.299872550E1;-4.684725761E0;-2.922623634E0;-6.555561423E-1
2.301844550E1;-5.130046368E0;-4.542638302E0;-5.675915480E-1
2.303838050E1;-4.900971889E0;-3.757065535E0;-7.691770792E-1
2.305828250E1;-4.017660618E0;9.673662186E-1;-1.952422976E0
2.306836950E1;-3.582113743E0;2.666182518E0;-2.101474285E0
2.308820650E1;-3.335324287E0;2.100521326E0;-1.149135232E0
2.309835950E1;-3.244916201E0;1.294179082E0;-9.108978510E-1
2.311859450E1;-3.073262930E0;-5.439144373E-1;-1.600564599E0
2.313826150E1;-2.157576084E0;-1.916528583E0;-1.420359373E0
2.314828150E1;-1.302364707E0;-2.647123575E0;-8.766893744E-1
2.315836950E1;-9.425650835E-1;-3.190182686E0;-2.823174894E-1
2.316865550E1;-6.432411075E-1;-4.061276436E0;2.503570020E-1
2.318823750E1;9.040805697E-2;-4.462004185E0;1.062807798E0
2.319842750E1;8.472701311E-1;-3.017307758E0;1.281497598E0
2.320848550E1;1.687820673E0;-1.535348773E0;1.349914551E0
2.322817950E1;2.758667469E0;-7.589389682E-1;6.052697301E-1
2.323837850E1;3.156340837E0;-1.178603411E0;-2.951456606E-1
2.325832550E1;2.655431271E0;-4.913800061E-1;-1.927377582E0
2.327827350E1;1.549765110E0;7.688350081E-1;-2.309779406E0
2.328832850E1;1.381777167E0;1.050443888E0;-1.930431843E0
2.329834750E1;1.364673018E0;1.085874081E0;-1.376377106E0
2.331816450E1;1.204015374E0;4.652349651E-1;-4.038796723E-1
2.332819150E1;-1.243721604E0;-1.693562865E0;1.226861775E-1
2.333822250E1;-5.437311649E0;-5.447329521E0;1.015771270E0
2.334837850E1;-2.808758497E0;-1.871324658E0;1.254008651E0
2.336818750E1;2.851518869E0;7.018597126E0;1.459259391E0
2.338825950E1;2.679865837E0;9.295903206E0;1.847769618E0
2.340864750E1;1.938886285E0;8.500555992E0;1.373738289E0
2.342825250E1;1.487456918E0;3.644177675E0;1.800122142E0
2.343831750E1;1.870469332E0;3.424510360E-1;2.057296276E0
2.344834650E1;2.729346037E0;-2.513344049E0;1.889919400E0
2.346834650E1;8.665123940E0;-5.999551773E0;1.350525379E0
2.349010150E1;6.098267555E0;6.662462711E0;-6.042434573E-1
2.350848750E1;1.751350641E0;3.603249788E0;-8.449243903E-1
2.352836450E1;4.166100979E0;4.072027504E-1;2.334018230E0
2.354821150E1;3.355482817E0;-3.188961029E0;1.466589808E0
2.355831150E1;2.648100853E0;-2.629408360E0;1.035929799E0
2.357829750E1;1.453248382E0;-1.244576812E0;6.278716922E-1
2.358832150E1;8.411614299E-1;-1.210368395E0;4.525533915E-1
2.359835950E1;-2.406809181E-1;-9.568593502E-1;2.521896064E-1
2.360872750E1;-1.776396155E0;-1.883908361E-1;3.567453474E-3
2.362828650E1;-3.896098614E0;1.577009678E0;-2.725436389E-1
2.363844150E1;-4.038430214E0;2.051041126E0;-2.096245140E-1
2.365825850E1;-3.100751877E0;1.206214547E0;-1.234925091E-1
2.367834950E1;-2.381763697E0;-1.342926145E0;-3.293541074E-1
2.369836850E1;-4.728096962E0;-4.230486393E0;-1.424293369E-1
2.370847050E1;-5.126380920E0;-5.077756405E0;7.503868639E-2
2.371847450E1;-5.062240124E0;-5.374025822E0;2.760133445E-1
2.373835850E1;-5.373781681E0;-1.114462614E0;-4.503054321E-1
2.374855750E1;-4.712214470E0;1.581896663E0;-1.166850328E0
2.376818250E1;-3.265074730E0;4.232440948E0;-1.288412452E0
2.377826750E1;-3.032945871E0;3.341188431E0;-7.380229831E-1
2.378830150E1;-3.149621248E0;1.844568729E0;-7.245839238E-1
2.379836650E1;-3.392745495E0;3.632204533E-1;-1.196171880E0
2.381835850E1;-3.023782969E0;-1.794355631E0;-1.778937340E0
2.382837250E1;-2.458121777E0;-2.003271341E0;-1.658596873E0
2.384826250E1;-1.389718413E0;-2.415605545E0;-8.125485182E-1
2.385942050E1;-1.067181587E0;-2.815111399E0;-2.798740268E-1
2.387829650E1;-5.393940210E-1;-3.919555664E0;4.617163837E-1
2.389821950E1;1.209513098E-1;-3.639779568E0;8.300681114E-1
2.390843750E1;7.342600226E-1;-2.418049097E0;7.500447631E-1
2.392817850E1;3.011565685E0;-3.612657189E-1;-6.537235379E-1
2.393827450E1;3.413515091E0;-8.578991890E-1;-1.226715088E0
2.394830050E1;3.496592760E0;-1.132788539E0;-1.706244349E0
2.395849650E1;3.237585783E0;-8.273559213E-1;-1.960364223E0
2.397869450E1;2.193617105E0;-2.201558352E-1;-1.526649952E0
2.399820150E1;1.473407030E0;1.781283021E-1;-6.384519339E-1
2.400820250E1;1.228450060E0;3.821572959E-1;-4.631336033E-1
2.401857450E1;1.010982037E0;6.802595258E-1;-3.721146882E-1
2.403824350E1;-6.714019775E0;8.183150887E-1;1.110797375E-1
2.405821450E1;-2.366492033E0;1.377256751E0;8.202942610E-1
2.407818150E1;3.276681185E0;5.832907677E0;5.600656867E-1
2.408818150E1;3.615711451E0;5.694241524E0;5.130290389E-1
2.409818850E1;3.099530220E0;6.138951302E0;4.433904290E-1
2.410826950E1;2.840523481E0;6.932465076E0;3.535932302E-1
2.412824950E1;2.012800932E0;5.242812157E0;1.581432462E0
2.413872750E1;2.278527260E0;2.388849735E0;2.034694433E0
2.415819050E1;3.769038677E0;-2.991651535E0;2.015146732E0
2.416820350E1;5.412266254E0;-4.710015297E0;1.707270622E0
2.418881150E1;9.167254448E0;2.159775257E0;9.033719301E-1
2.420841550E1;1.848478198E0;4.268482208E0;-6.720495224E-1
2.422818350E1;3.494760036E0;1.929479003E0;1.569215178E0
2.423891650E1;4.616919518E0;2.032104254E0;2.164808512E0
2.425822950E1;2.839912653E0;-6.770830750E-1;2.090283155E0
2.426827550E1;1.843591332E0;-1.548176885E0;1.740868211E0
2.428879650E1;9.089674950E-1;-8.957728148E-1;1.024323344E0
2.430900850E1;-8.979719132E-2;-5.371949077E-1;3.401542008E-1
2.432813950E1;-3.508198977E0;1.806694984E0;-2.994217277E-1
2.433845150E1;-4.219246387E0;2.610593796E0;-3.751690090E-1
2.435815750E1;-3.167336226E0;1.237979531E0;-6.689952016E-1
2.436818850E1;-2.058615923E0;-9.189856648E-1;-1.078274846E0
2.437836950E1;-2.339003086E0;-2.028927803E0;-1.287801623E0
2.439828650E1;-4.781242371E0;-2.827328682E0;-1.277416945E0
2.440864150E1;-4.926017284E0;-3.488895655E0;-1.189452291E0
2.442826050E1;-5.422650814E0;-3.556701899E0;-9.328889847E-1
2.443871550E1;-5.772676468E0;-2.363071203E0;-1.042233825E0
2.445825050E1;-4.452596664E0;-3.017674387E-2;-1.432576656E0
2.447828550E1;-3.743382215E0;2.944126129E0;-3.721146882E-1
2.448829050E1;-3.535687923E0;3.365012169E0;-4.163657501E-2
2.449836950E1;-3.406184673E0;2.411451578E0;-3.177476823E-1
2.451826650E1;-2.964529037E0;-2.565267563E0;-2.350096464E0
2.452826850E1;-2.679865837E0;-2.409496784E0;-2.253579617E0
2.454050950E1;-2.172847748E0;-1.978836894E0;-1.760611296E0
2.455367300E1;-1.097724795E0;-2.338636398E0;-3.250780702E-1
2.456830050E1;-7.238752842E-1;-3.028914213E0;3.645887971E-1
2.457873150E1;-4.196644127E-1;-3.678874969E0;9.278065562E-1
2.458966950E1;-1.637118906E-1;-3.888401747E0;1.318760395E0
2.460833350E1;4.844161272E-1;-2.645901680E0;1.337697148E0
2.462866150E1;1.781893969E0;-1.547566056E0;4.055167735E-1
2.464824850E1;2.995072365E0;-1.323378444E0;-9.377759099E-1
2.465846350E1;3.117856264E0;-1.420506001E0;-1.387983561E0
2.467859250E1;2.484389067E0;-7.723780274E-1;-1.730678916E0
2.469817350E1;1.763567924E0;-2.076941542E-3;-1.280471206E0
2.470822950E1;1.387885809E0;1.854586899E-1;-8.546982408E-1
2.472148450E1;1.154535294E0;1.653001457E-1;-7.551271915E-1
2.474055450E1;-6.543588638E0;-8.524013758E-1;-1.475850400E-2
2.475836950E1;-3.528357744E0;-1.504194617E0;7.573751807E-1
2.477822450E1;3.131295204E0;5.182947159E0;3.838677332E-2
2.478825550E1;3.865555286E0;5.012516022E0;-2.340591252E-1
2.479877450E1;3.587611675E0;5.502429962E0;-1.723617315E-1
2.481818850E1;3.014009237E0;7.071742535E0;4.021936655E-2
2.482904650E1;2.450791359E0;7.361292839E0;3.975755274E-1
2.484928750E1;1.826487064E0;4.520158291E0;1.380457759E0
2.486816850E1;2.548529863E0;-8.637633920E-2;1.870982528E0
2.487861050E1;3.326161385E0;-1.772364378E0;1.851434827E0
2.488870050E1;4.578434944E0;-3.283034086E0;1.636410356E0
2.490825450E1;4.641964912E0;6.699114799E0;3.908559978E-1
2.491859750E1;1.916895151E0;5.335052490E0;1.599489599E-1
2.493898550E1;3.130684376E0;-3.172834218E-1;1.886865020E0
2.495839350E1;4.386012554E0;-1.328020990E-1;2.434200287E0
2.497858950E1;2.656042099E0;-9.126326442E-2;1.661455750E0
2.499854650E1;1.666440368E0;-5.644394830E-2;9.742323160E-1
2.501874050E1;3.891211748E-1;-1.148671031E0;4.757662714E-1
2.503881650E1;-2.947424889E0;9.496511221E-1;9.336464852E-2
2.505842050E1;-2.599842548E0;3.174055815E-1;-4.130426645E-1
2.507835950E1;-2.488665104E0;-1.963320822E-1;-5.083376169E-1
2.509816850E1;-3.084258556E0;-1.604987383E0;-8.455352783E-1
2.511814850E1;-5.290703773E0;-3.540819407E0;-2.755979896E-1
2.512824750E1;-5.398827076E0;-3.728354931E0;1.517389249E-2
2.513826850E1;-5.162422180E0;-3.559145212E0;1.794966459E-1
2.514906450E1;-5.117218018E0;-2.851152420E0;4.754975066E-2
2.516821750E1;-4.941288948E0;-1.199739277E-1;-1.188841462E0
2.517829850E1;-4.491081238E0;1.390695810E0;-1.511989117E0
2.518845350E1;-3.988339186E0;2.605706692E0;-1.190674067E0
2.520827650E1;-3.656639338E0;3.441981316E0;6.648657471E-2
2.521862950E1;-3.635869980E0;2.452990532E0;-9.844703972E-2
2.523844350E1;-3.053715467E0;-9.140987396E-1;-1.513821721E0
2.525816550E1;-2.384207010E0;-2.074742794E0;-1.982355356E0
2.526852450E1;-1.968818665E0;-2.038701773E0;-1.714185596E0
2.527865950E1;-1.550986886E0;-2.174313784E0;-1.215719581E0
2.528873150E1;-1.179580808E0;-2.513954878E0;-5.272744298E-1
2.530842150E1;-4.880813062E-1;-4.237816334E0;1.159324527E0
2.531887550E1;-1.844813079E-1;-3.622064352E0;1.282108426E0
2.533908350E1;1.493565559E0;-1.209757566E0;5.704503655E-1
2.535841850E1;3.136182070E0;-1.885374546E0;-7.258056402E-1
2.537831650E1;3.159394979E0;-2.284269571E0;-1.906608105E0
2.538840050E1;2.585181713E0;-1.758314490E0;-2.128352404E0
2.540821250E1;1.591303945E0;-6.929655671E-1;-1.874843121E0
2.541838450E1;1.453859329E0;-1.401324868E-1;-1.560858369E0
2.543196050E1;1.416596532E0;3.674965203E-1;-1.280471206E0
2.544206450E1;-8.491027355E-2;1.408410907E0;-8.186571598E-1
2.545824150E1;-4.959003925E0;1.671693802E0;-2.193983644E-1
2.546824550E1;-5.933945179E0;8.940623403E-1;2.711264193E-1
2.548884950E1;-1.700037956E0;-1.737545133E0;7.408818007E-1
2.550833350E1;2.336559534E0;4.511606216E0;1.966008693E-1
2.552817950E1;1.645671010E0;7.312423706E0;4.617163837E-1
2.553844050E1;1.465465784E0;8.129150391E0;8.105204105E-1
2.555823050E1;1.538158655E0;5.257472992E0;1.556386948E0
2.557832750E1;3.103806257E0;-2.354274690E-1;1.575323820E0
2.558855850E1;4.080579758E0;-2.167594194E0;1.246067405E0
2.560959750E1;9.146485329E0;-1.457157969E0;9.143674970E-1
2.562815850E1;4.794681549E0;6.628254414E0;-7.706675678E-2
2.563947550E1;1.403157473E0;4.820703983E0;-4.692422450E-1
2.565972950E1;3.319441795E0;1.756848544E-1;1.560052156E0
2.567854550E1;4.570493698E0;-2.238454580E0;2.030418158E0
2.568877550E1;2.541199446E0;-3.505389214E0;1.166044116E0
2.570819950E1;1.172861338E0;-8.505687714E-1;6.547498107E-1
2.571900650E1;5.742133260E-1;5.886297226E-1;7.958596349E-1
2.573895150E1;-5.638285875E-1;1.519588351E0;6.773518324E-1
2.575883650E1;-2.058615923E0;1.304563761E0;5.060407519E-2
2.577872350E1;-3.716504097E0;1.672304630E0;-3.898297846E-1
2.579838150E1;-3.183829546E0;8.122064471E-1;-3.458474874E-1
2.580895350E1;-2.875953674E0;4.923573881E-2;-2.927021980E-1
2.582821550E1;-3.148399353E0;-2.342912674E0;-2.279504687E-1
2.583881650E1;-3.791029692E0;-3.520049810E0;-1.253251135E-1
2.585872650E1;-4.075081825E0;-4.895718575E0;1.239079088E-1
2.587879850E1;-4.843550682E0;-2.482189894E0;-3.360736370E-1
2.588888350E1;-4.665788651E0;2.815233469E0;-9.255586267E-1
2.590839650E1;-3.401908636E0;4.890342712E0;-9.499931931E-1
2.591872750E1;-2.890614271E0;4.181128025E0;-3.861645758E-1
2.593835750E1;-2.878396988E0;1.515923142E0;-3.043086529E-1
2.594836150E1;-2.735454559E0;-5.766567960E-2;-9.542692900E-1
2.596867150E1;-2.381152630E0;-2.567710876E0;-2.033057451E0
2.598839450E1;-1.922392964E0;-1.722273469E0;-1.948757768E0
2.599841450E1;-1.522886992E0;-1.476094842E0;-1.486943722E0
2.600854050E1;-1.104444385E0;-1.841392159E0;-8.638612032E-1
2.602820150E1;-2.700024247E-1;-3.288532019E0;3.480954468E-1
2.603840150E1;1.154535264E-1;-3.656883717E0;7.573751807E-1
2.605850750E1;1.154535294E0;-2.458366156E0;8.819916844E-1
2.607841650E1;3.186273098E0;-1.329487085E0;-2.114571035E-1
2.609825650E1;2.838079929E0;-1.645304441E0;-1.216330409E0
2.611819150E1;1.561982393E0;-9.922895432E-1;-1.703800917E0
2.612826450E1;1.163698316E0;-7.681019902E-1;-1.557193160E0
2.613888750E1;9.334021211E-1;-6.080552936E-1;-1.353164196E0
2.615841050E1;5.784894228E-1;-6.221051812E-1;-1.359272838E0
2.617817150E1;-6.332839966E0;-2.165150881E0;-4.136535227E-1
2.618826750E1;-5.493511200E0;-2.148046494E0;1.944994926E-2
2.619871650E1;-2.632218361E0;-1.492954642E-1;4.244535863E-1
2.621836850E1;2.271197081E0;5.802975655E0;5.270789266E-1
2.623821650E1;1.903456092E0;6.412619114E0;1.269622296E-1
2.625877050E1;2.234544992E0;6.884206772E0;-2.114571035E-1
2.627818550E1;2.070222378E0;2.077919245E0;1.780574441E0
2.628852250E1;2.499049664E0;-6.685309410E-1;2.079287529E0
2.629862750E1;3.077539206E0;-2.875586987E0;1.993766427E0
2.631882350E1;7.852672577E0;-4.488882065E0;1.488580942E0
2.633845850E1;5.392107487E0;4.680816174E0;2.247006744E-1
2.634847050E1;2.194838762E0;3.844541550E0;-4.527488947E-1
2.636828850E1;2.793486834E0;-1.767843962E-1;8.172399402E-1
2.639425750E1;4.536896229E0;5.067737699E-1;1.863041282E0
2.640844650E1;2.891225100E0;-2.505402803E0;1.109233618E0
2.642870650E1;2.354885578E0;-2.223793745E0;3.340455294E-1
2.643920900E1;2.097100496E0;-9.476963282E-1;3.407650590E-1
2.645079650E1;4.172209799E-1;2.868623137E-1;3.939103186E-1
2.646824050E1;-1.185078621E0;5.709146261E-1;1.385686696E-1
2.648867250E1;-3.486818790E0;1.304563761E0;-4.044905305E-1
2.650828950E1;-2.796540976E0;1.332052708E0;-4.613009989E-1
2.652823350E1;-1.953547001E0;-9.959546924E-1;-5.706458688E-1
2.653923550E1;-2.291355610E0;-2.560991526E0;-4.649662077E-1
2.655839650E1;-4.016438961E0;-5.770477295E0;1.733879894E-1
2.657817550E1;-4.321260929E0;-6.146159649E0;3.713083267E-1
2.658882150E1;-4.809952736E0;-4.932370186E0;6.648657471E-2
2.660823950E1;-5.212512970E0;1.160399556E0;-9.628213644E-1
2.661878850E1;-4.741536140E0;3.834156752E0;-1.099655151E0
2.663861150E1;-3.747658253E0;4.379659653E0;-3.953275681E-1
2.665854150E1;-3.332269907E0;1.376035094E0;-3.262997866E-1
2.667857150E1;-2.653598547E0;-2.311147690E0;-1.810702324E0
2.668917550E1;-2.282192469E0;-2.038701773E0;-2.053215981E0
2.670899950E1;-1.355509996E0;-1.684399843E0;-1.537645459E0
2.672839250E1;-6.175847650E-1;-3.035022974E0;-3.165259361E-1
2.673852350E1;-4.111123085E-1;-3.973311901E0;2.686829567E-1
2.675835350E1;1.875356287E-1;-3.464461088E0;9.333043694E-1
2.677852350E1;1.694540143E0;-1.508470654E0;4.421686828E-1
2.679819950E1;3.358537197E0;-2.000828028E0;-6.512801051E-1
2.681819050E1;3.171612263E0;-1.614150286E0;-1.871177912E0
2.682827350E1;2.522262573E0;-1.101634383E0;-2.194325686E0
2.683845350E1;1.991420746E0;-6.153856516E-1;-2.316498756E0
2.685865050E1;1.804495931E0;4.438546896E-1;-1.647601247E0
2.687875650E1;-3.508810043E0;-2.494773567E-1;-1.509814560E-1
2.689817250E1;-5.175250530E0;-2.826717854E0;1.383512139E0
2.690834450E1;-3.785531998E0;-5.648304462E0;1.545391321E0
2.692814350E1;2.277305603E0;2.539733410E0;7.714250684E-1
2.693848350E1;3.318830967E0;6.421171188E0;2.161485553E-1
2.695822550E1;3.139236450E0;1.007842159E1;1.458990574E-1
2.696827050E1;2.827084303E0;1.065202332E1;4.837075174E-1
2.697885850E1;2.604118586E0;1.006192780E1;1.022490740E0
2.699864150E1;2.806925774E0;4.976474762E0;1.899693251E0
2.701839950E1;4.019493103E0;-1.217698812E0;1.496522188E0
2.703874050E1;6.648657322E0;-4.101349413E-1;4.904270470E-1
2.705919650E1;1.040914416E0;6.516466141E0;8.392310739E-1
2.707903150E1;3.503312111E0;-8.859989643E-1;1.994377375E0
2.709845250E1;4.871039391E0;-3.276925564E0;2.094559193E0
2.711819350E1;2.627331495E0;-2.285491228E0;1.536228418E0
2.712828650E1;2.136195660E0;-1.123625517E0;1.110455275E0
2.713855650E1;1.824654460E0;-4.425107837E-1;6.797952652E-1
2.714857350E1;1.316414595E0;-5.182580948E-1;2.888415158E-1
2.715862750E1;7.257079482E-1;-8.035321832E-1;-7.086033002E-4
2.717851350E1;-1.922392964E0;3.335324302E-2;-4.771835208E-1
2.718878950E1;-3.711617231E0;1.087095737E0;-7.190861702E-1
2.720830650E1;-4.660290718E0;1.734612942E0;-6.915972233E-1
2.722824350E1;-1.935221076E0;-1.595213532E0;-9.035674334E-1
2.723848850E1;-1.857641220E0;-2.243952513E0;-6.958732605E-1
2.725871350E1;-4.974886417E0;-5.595159054E0;5.026443601E-1
2.727822650E1;-5.132489681E0;-6.006271362E0;1.200252533E0
2.728843050E1;-5.233893394E0;-4.956804752E0;1.162378907E0
2.730829250E1;-5.310862541E0;6.979746222E-1;-3.971601725E-1
2.731840250E1;-4.651738644E0;3.962438583E0;-1.358051181E0
2.733870750E1;-3.582724571E0;5.413854122E0;-1.394092202E0
2.735818950E1;-3.738495350E0;6.998072267E-1;-6.738821268E-1
2.736822250E1;-3.867387772E0;-7.821518779E-1;-1.031849146E0
2.737867750E1;-3.604715824E0;-2.039312601E0;-1.449680924E0
2.738923450E1;-3.082426071E0;-2.758301020E0;-1.763054848E0
2.740822450E1;-1.959044814E0;-2.289767265E0;-1.397757411E0
2.741823150E1;-1.479515672E0;-2.087570906E0;-8.559199572E-1
2.743883250E1;-6.603453159E-1;-2.868867636E0;3.700865805E-1
2.746056750E1;8.784242272E-1;-2.677055836E0;1.099459767E0
2.747819150E1;1.985311985E0;-8.151385784E-1;9.925583005E-1
2.748829750E1;2.494773626E0;4.434881732E-2;6.022154093E-1
2.750880550E1;3.205209970E0;-1.307251677E-2;-5.932478905E-1
2.752818550E1;3.050661087E0;-9.360899329E-1;-1.559636712E0
2.753835950E1;2.737287283E0;-3.954741657E-1;-1.518708706E0
2.755831050E1;2.160019636E0;5.422039628E-1;-6.268454790E-1
2.757816450E1;1.678046823E0;4.212526679E-1;-2.658241391E-1
2.758892550E1;1.172861338E0;1.402546614E-1;-1.980180740E-1
2.760827050E1;-6.929655552E0;-1.127290726E0;-1.277685761E-1
2.761831850E1;-5.185635090E0;-4.742757976E-1;1.098580062E-1
2.763897550E1;2.049453020E0;6.091914654E0;7.634838223E-1
2.765820450E1;2.053729057E0;5.469442844E0;4.207884073E-1
2.766822850E1;1.668883920E0;5.559240341E0;-2.880840749E-2
2.767847150E1;1.630399346E0;6.248296261E0;7.320608944E-2
2.769834750E1;1.570534587E0;5.804808140E0;1.685279489E0
2.771818850E1;1.959044814E0;9.753074646E-1;2.830040932E0
2.772853650E1;3.390302181E0;-2.276328325E0;2.807438850E0
2.773891350E1;6.709133148E0;-5.957402229E0;2.698093891E0
2.775880850E1;6.889949322E0;-2.209743977E0;6.009936333E-1
2.777847850E1;1.916284323E0;1.880609751E0;-1.265199661E0
2.778908050E1;2.501493216E0;1.250807643E0;-4.032688141E-1
2.780091050E1;3.967569828E0;2.162829399E0;1.160546303E0
2.781822050E1;4.244291782E0;4.072394371E0;2.486123800E0
2.783291050E1;3.015841722E0;2.553783178E0;2.010259867E0
2.784827250E1;1.924225569E0;-1.148671031E0;4.299513698E-1
2.786828250E1;1.007316828E0;-1.496253371E0;4.024624527E-1
2.788834150E1;-1.152091861E0;-1.070480227E0;2.006081492E-2
2.790823250E1;-4.481307507E0;1.529362202E0;-2.859826982E-1
2.791856250E1;-4.577824116E0;1.905655265E0;-1.943528801E-1
2.793822550E1;-2.904664278E0;3.998723924E-1;-3.012543023E-1
2.794823750E1;-1.998751044E0;-1.234192133E0;-6.097412705E-1
2.796829850E1;-3.876550913E0;-2.923234463E0;-7.416881323E-1
2.797832950E1;-4.888754368E0;-3.615955830E0;-6.451714635E-1
2.798895350E1;-4.888143539E0;-4.318450928E0;-5.291070342E-1
2.800863450E1;-4.753142357E0;-3.981863976E0;-3.067521155E-1
2.802821550E1;-5.261993408E0;-3.924198449E-1;-7.997203469E-1
2.803823050E1;-4.821559429E0;1.389474034E0;-9.377759099E-1
2.804895650E1;-3.776979685E0;3.754744291E0;-5.284962058E-1
2.806823750E1;-3.213151217E0;1.112141252E0;-4.197621644E-1
2.807850550E1;-3.335324287E0;-5.066516399E-1;-1.053229332E0
2.809903550E1;-3.242472649E0;-1.857274652E0;-1.791154623E0
2.811883650E1;-1.938275456E0;-1.559783340E0;-1.184565425E0
2.812899950E1;-1.192408919E0;-1.664852142E0;-6.579996347E-1
2.814822950E1;-2.266310155E-1;-2.537778616E0;3.719191849E-1
2.815864550E1;1.117883325E-1;-2.912849903E0;7.940270901E-1
2.816871750E1;3.585779071E-1;-3.019140482E0;1.114120483E0
2.818828050E1;7.250970602E-1;-1.791301250E0;1.422607422E0
2.819867350E1;1.342070937E0;-6.807482243E-1;1.139776826E0
2.821953350E1;3.697567225E0;-5.268101692E-1;-5.211657882E-1
2.823835850E1;3.348152399E0;-9.257051945E-1;-1.201058745E0
2.824840950E1;2.721404791E0;-4.999321401E-1;-1.317123175E0
2.825848650E1;2.003638029E0;-1.236391217E-1;-1.136307001E0
2.827818450E1;9.309586287E-1;-1.551597752E-2;-4.350337982E-1
2.829869150E1;1.221730560E-2;-4.168544412E-1;-4.283142984E-1
2.831830050E1;-7.991950035E0;-1.081475854E0;-3.635625839E-1
2.832833850E1;-4.306600094E0;-6.117204428E-1;-2.603263557E-1
2.833836150E1;4.092797339E-1;3.999701500E0;7.320608944E-2
2.835823350E1;2.898555517E0;8.011864662E0;5.533461571E-1
2.837821850E1;5.155702829E-1;4.862854004E0;4.311731160E-1
2.839097850E1;6.798930168E-1;5.008239746E0;1.654467434E-1
2.840860850E1;1.420261741E0;5.303898335E0;1.140998602E0
2.843327750E1;2.643213987E0;-6.471506357E-1;2.674270153E0
2.844874550E1;7.238753319E0;-7.176689148E0;2.440308809E0
2.846841450E1;7.152010441E0;-5.165720940E0;6.297042966E-1
2.848825350E1;1.846034765E0;6.533814669E-1;-1.512600064E0
2.849851850E1;2.883283854E0;1.122525930E0;-1.076442242E0
2.851817150E1;5.119050980E0;3.657005787E0;1.447652936E0
2.852827450E1;4.136168480E0;4.343618393E0;2.144649982E0
2.853877250E1;2.540588617E0;3.103561878E0;2.092726469E0
2.855824550E1;1.682933807E0;6.145304069E-2;9.876713753E-1
2.857818050E1;1.498452425E0;-9.751852751E-1;6.248173714E-1
2.858898850E1;1.089172721E0;-1.323989391E0;4.788205922E-1
2.860829050E1;-1.500285029E0;-4.852713645E-1;4.816061631E-2
2.862815550E1;-4.188703060E0;1.982624173E0;-5.018868670E-2
2.863832650E1;-3.392134666E0;1.399858832E0;-2.819754183E-2
2.865834950E1;-1.701870561E0;-1.320935011E0;-3.721146882E-1
2.866863050E1;-2.069000483E0;-2.138883591E0;-4.777943790E-1
2.868834550E1;-4.491692066E0;-3.264708281E0;-3.611191213E-1
2.870828850E1;-4.126394749E0;-4.111978531E0;-2.181766331E-1
2.871836350E1;-4.234518051E0;-3.598851442E0;-2.132897079E-1
2.873821350E1;-4.984660625E0;2.801427841E-1;-1.109429002E0
2.874881250E1;-4.558887482E0;2.257513523E0;-1.592012525E0
2.876818750E1;-3.245527029E0;4.130426407E0;-1.212054372E0
2.878818650E1;-2.623666286E0;2.446881771E0;-5.358265638E-1
2.880866050E1;-2.490497589E0;-9.971764088E-1;-1.641492605E0
2.882921950E1;-1.823432803E0;-2.725314140E0;-2.010455370E0
2.884832350E1;-1.328021049E0;-2.666671038E0;-7.484076619E-1
2.885922750E1;-1.050077319E0;-3.166969776E0;-1.088317484E-1
2.887859650E1;-5.375614166E-1;-3.547538757E0;8.587787747E-1
2.889848050E1;5.809328556E-1;-1.619037271E0;8.490049243E-1
2.891890150E1;2.458121777E0;-2.129720688E0;-6.817256100E-3
2.893830250E1;3.162449360E0;-3.107715845E0;-1.167461157E0
2.895831350E1;1.838704348E0;-2.007547379E0;-1.905997276E0
2.897818850E1;1.031751394E0;-4.058588743E-1;-1.739841938E0
2.898859750E1;9.370672703E-1;2.520429790E-1;-1.559025764E0
2.900829950E1;2.437352389E-1;4.188092053E-1;-1.373933673E0
2.902818750E1;-4.645019531E0;-2.918347597E0;8.215159774E-1
2.903821650E1;-2.800817251E0;-3.413148403E0;1.029210210E0
2.905833150E1;2.041511774E0;4.390655041E0;8.080769777E-1
2.907824950E1;2.426967621E0;8.581801414E0;3.823038936E-1
2.909823850E1;2.703689575E0;9.006963730E0;-5.324301496E-2
2.910826050E1;2.565023184E0;7.827383041E0;3.065566123E-1
2.912170150E1;2.408030748E0;5.908655167E0;9.436890483E-1
2.913843850E1;2.889392614E0;5.990144610E-1;1.897249818E0
2.915818850E1;4.414722919E0;-2.765631437E0;1.586319327E0
2.916834050E1;7.808079720E0;-2.237843752E0;1.571658611E0
2.917862250E1;1.014708233E1;2.511633635E0;1.528287172E0
2.919824350E1;1.540602207E0;4.797491074E0;-2.438329607E-1
2.920980150E1;1.075122833E0;1.299676895E0;2.589091063E-1
2.923031050E1;5.021923065E0;1.732413918E-1;2.352955103E0
2.924821950E1;2.863736391E0;-1.386297584E0;1.503241658E0
2.925826350E1;2.214997292E0;-1.121182084E0;8.648874164E-1
2.926836850E1;2.067778826E0;-7.302283049E-1;3.945212066E-1
2.928831250E1;1.605353832E0;-1.039937019E0;-6.484945118E-2
2.930832250E1;-1.944384098E0;-1.474628597E-1;-4.613009989E-1
2.932842450E1;-5.129435539E0;1.352211237E0;-5.260527134E-1
2.934825450E1;-2.703689575E0;2.795319259E-1;-7.569597960E-1
2.936821750E1;-1.488067746E0;-1.625756741E0;-7.563489079E-1
2.937856150E1;-1.684766293E0;-2.617801905E0;-7.032036185E-1
2.939822950E1;-3.804468632E0;-4.702074051E0;-3.415714204E-1
2.940858050E1;-5.336518764E0;-5.937243462E0;-4.289251566E-1
2.942836150E1;-7.188662052E0;-3.270205975E0;-5.895827413E-1
2.943865650E1;-6.060394287E0;3.406184614E-1;-3.861645758E-1
2.945828350E1;-3.480099201E0;5.289237976E0;3.963537812E-1
2.947825450E1;-3.284011602E0;2.974669456E0;1.495642513E-1
2.948849850E1;-3.323107004E0;4.627915025E-1;-5.254418850E-1
2.950824750E1;-3.213762045E0;-2.592756510E0;-1.717850804E0
2.952850350E1;-2.211943150E0;-1.848722577E0;-1.995183587E0
2.954117650E1;-1.365894675E0;-1.374080300E0;-1.669592381E0
2.955832650E1;-3.878994286E-1;-2.693549156E0;-4.093774557E-1
2.957818050E1;-3.671300113E-1;-4.689246178E0;9.351369143E-1
2.958824850E1;-1.301143020E-1;-4.455895424E0;1.159935355E0
2.959856050E1;4.129449129E-1;-3.651386023E0;4.537751377E-1
2.961826150E1;2.850908041E0;-2.970881939E0;-8.937935829E-1
2.962829850E1;3.101362944E0;-2.997149229E0;-1.603008151E0
2.964818550E1;2.105652571E0;-1.576887608E0;-2.508310556E0
2.965823250E1;1.400103211E0;-9.171531200E-1;-2.612157583E0
2.967858750E1;7.593055367E-1;4.102571011E-1;-2.178443193E0
2.969830850E1;9.297369123E-1;1.867781520E0;-1.563912749E0
2.971846050E1;-4.449542522E0;-1.425392985E0;4.213992655E-1
2.973830850E1;-3.345708847E0;-4.788206100E0;1.468422413E0
2.975879850E1;9.651669860E-2;-4.776599884E0;1.194143891E0
2.977816050E1;2.893668652E0;6.177435875E0;3.242717087E-1
2.978832950E1;2.343889952E0;9.903102875E0;3.303803504E-1
2.980839950E1;2.530203819E0;1.170454502E1;7.133928537E-1
2.981860150E1;3.067154408E0;9.135856628E0;1.341973305E0
2.983838950E1;4.296215057E0;2.425501585E0;1.872815132E0
2.985838850E1;4.965723515E0;-2.343523502E0;1.433603048E0
2.986881150E1;6.662096500E0;5.318192840E-1;1.233239293E0
2.988897350E1;2.261423111E0;5.545190334E0;3.352672756E-1
2.990829050E1;3.251635790E0;-1.511280537E-1;1.324258208E0
2.992820750E1;5.443420410E0;7.260743976E-1;2.575920820E0
2.993840750E1;4.017660618E0;4.841717780E-1;2.351122618E0
2.994870950E1;2.787988901E0;-1.847256422E-1;1.772022367E0
2.996829550E1;2.125200272E0;-6.312681437E-1;7.042298913E-1
2.998916950E1;1.758681059E0;-1.205848008E-1;5.881654620E-1
3.000830250E1;-1.549765110E0;-3.740938902E-1;2.027095258E-1
3.002060250E1;-3.506366491E0;1.054353416E-1;4.789183848E-3
3.003407800E1;-4.498411655E0;9.410989881E-1;1.153557971E-1
3.004816750E1;-3.870442152E0;9.948551655E-1;1.092471406E-1
3.005891150E1;-2.989574432E0;2.581516504E-1;-6.057339534E-2
3.007882250E1;-2.059837580E0;-1.986167312E0;-4.942877293E-1
3.009833650E1;-4.379903793E0;-3.173078537E0;-5.755327940E-1
3.011890050E1;-4.594928265E0;-4.238427639E0;-4.716857076E-1
3.013848150E1;-4.756807804E0;-2.615358353E0;-1.158909082E0
3.015840950E1;-4.657847404E0;2.188485861E0;-2.111248016E0
3.016865850E1;-4.412890434E0;3.537276268E0;-1.819865227E0
3.017868250E1;-4.106846809E0;3.594086647E0;-1.166239500E0
3.019820550E1;-3.009122133E0;2.361605018E-1;-5.620937943E-1
3.020828650E1;-2.758056641E0;-1.061928153E0;-1.160130739E0
3.021841350E1;-2.483167171E0;-2.225015640E0;-1.738620162E0
3.024088850E1;-1.769065738E0;-2.249450207E0;-1.740452766E0
3.025839450E1;-9.779952765E-1;-2.403388262E0;-4.985637665E-1
3.027881150E1;-4.624249935E-1;-3.752789497E0;6.816278696E-1
3.029848250E1;-7.024950534E-2;-4.262251377E0;1.144052863E0
3.031838050E1;1.310916781E0;-1.952569723E0;5.838894248E-1
3.033903750E1;3.188105822E0;-1.365528226E0;-4.967312217E-1
3.034970850E1;3.609602690E0;-1.915917754E0;-1.036125183E0
3.036818050E1;2.572353601E0;-1.390573621E0;-1.867512703E0
3.037836350E1;1.827708840E0;-6.996850371E-1;-2.032446384E0
3.039879050E1;1.172861338E0;8.213694096E-1;-1.073387980E0
3.041817050E1;-1.551597714E0;4.679227620E-2;-3.366844952E-1
3.042827450E1;-6.217386246E0;-1.981891155E0;4.012407064E-1
3.044091050E1;-5.855143547E0;-2.671558142E0;9.320825934E-1
3.045838550E1;3.347541690E-1;-8.890532851E-1;9.290282726E-1
3.046856750E1;3.440392971E0;4.562919140E0;4.678250253E-1
3.048828250E1;2.956587791E0;7.183530807E0;3.960850090E-2
3.049835850E1;1.882686734E0;8.380826950E0;-1.815247089E-1
3.051924250E1;1.579086661E0;9.881112099E0;2.039312571E-1
3.053955350E1;2.369546413E0;6.360084534E0;1.899082303E0
3.055822550E1;3.345708847E0;1.101756573E0;2.762234926E0
3.056908750E1;3.962682724E0;-1.193264127E0;2.676713705E0
3.058868250E1;6.282749176E0;-2.538389444E0;5.417397022E-1
3.060827850E1;1.671938181E0;2.324953228E-1;-6.518909931E-1
3.061841550E1;3.139236450E0;9.472076297E-1;7.500447631E-1
3.063830850E1;5.183191776E0;4.602014542E0;2.379833221E0
3.064897050E1;3.875329018E0;4.524434566E0;2.357841969E0
3.066816250E1;1.034194827E0;1.033950448E0;1.241180539E0
3.068830850E1;1.020755887E0;-5.292536616E-1;3.407650590E-1
3.069833250E1;9.303478003E-1;-1.330708861E0;1.129123345E-1
3.071875350E1;-1.893682331E-1;-1.579941869E0;-1.241033822E-1
3.073845450E1;-4.384790897E0;2.534235477E0;-2.560502887E-1
3.075820450E1;-3.323107004E0;1.590448737E0;-4.386990070E-1
3.076879250E1;-2.090380907E0;-3.078760765E-2;-8.986805081E-1
3.077879250E1;-2.851518869E0;-1.278785348E0;-1.119202852E0
3.079839350E1;-4.911967278E0;-3.455909014E0;-9.157847762E-1
3.080894150E1;-5.064683914E0;-3.682539940E0;-7.514619827E-1
3.082844150E1;-4.342030048E0;-3.381994247E0;-5.504873395E-1
3.083947250E1;-4.213748455E0;-2.600086927E0;-6.213477254E-1
3.085931750E1;-4.546059132E0;1.641150594E0;-1.544975877E0
3.087899750E1;-4.330423832E0;4.184793472E0;-2.031835556E0
3.089836050E1;-3.376863003E0;1.375424147E0;-1.295742869E0
3.091885950E1;-2.816088676E0;-1.807794571E0;-1.234656334E0
3.093840750E1;-2.365880966E0;-2.914071560E0;-1.791765451E0
3.095858250E1;-1.600466967E0;-2.648956060E0;-9.176173210E-1
3.096880550E1;-1.111774683E0;-2.419881582E0;5.484592319E-1
3.098868350E1;-6.230825558E-2;-3.295862436E0;1.328534245E0
3.100883850E1;5.448918343E-1;-2.500515699E0;1.130613923E0
3.102834350E1;2.180178165E0;-3.637091815E-1;2.882306576E-1
3.103841350E1;2.936429262E0;-1.795943826E-2;-1.320446283E-1
3.105845850E1;3.578448534E0;-8.310210705E-1;-8.064398766E-1
3.107830050E1;2.689639568E0;-9.959546924E-1;-1.229158521E0
3.108835150E1;2.120313168E0;-6.703635454E-1;-1.238932371E0
3.110884450E1;1.438587666E0;-5.445252657E-1;-9.182282090E-1
3.112836250E1;6.823365092E-1;-1.611096025E0;-8.302636147E-1
3.114816750E1;-5.875301838E0;-1.093082309E0;-5.150571465E-1
3.115817550E1;-5.245499611E0;-8.536230922E-1;9.764070064E-2
3.116823750E1;-3.227200985E0;-1.254717261E-1;3.401542008E-1
3.117845150E1;2.701246023E0;4.972809792E0;5.203594565E-1
3.118863950E1;3.757432222E0;6.031439304E0;5.337984562E-1
3.120822750E1;1.912008286E0;4.574525356E0;7.054516077E-1
3.122842750E1;1.189965487E0;5.902546406E0;3.377107382E-1
3.123918550E1;1.313971162E0;6.176825047E0;5.845003128E-1
3.125825150E1;2.079385281E0;3.539108992E0;1.535617590E0
3.126858850E1;2.780047655E0;1.066326380E0;1.812339544E0
3.128818350E1;6.968750954E0;-5.326989174E0;1.896638870E0
3.129825350E1;7.590000629E0;-6.169372559E0;1.305932164E0
3.131933350E1;3.219870806E0;-8.713381886E-1;-4.906225204E-1
3.133820350E1;3.739717007E0;7.584502697E-1;1.196318492E-1
3.135837650E1;4.555832863E0;2.845165968E0;1.390231609E0
3.137821750E1;3.051882744E0;2.236133337E0;1.067694783E0
3.139862350E1;2.207667112E0;-1.731192023E-1;6.327586174E-1
3.142269950E1;1.423926950E0;-1.382021546E0;5.075312853E-1
3.143843250E1;3.738495409E-1;-2.154766083E0;2.466918230E-1
3.145832850E1;-4.406170845E0;-8.462927341E-1;-6.973637640E-2
3.147862850E1;-5.253441334E0;1.494176388E-1;3.279368877E-1
3.149128150E1;-4.057366848E0;-2.714685202E-1;3.566475511E-1
3.150835150E1;-2.027461767E0;-1.895759225E0;2.344745249E-1
3.152825950E1;-2.491719246E0;-3.614733934E0;3.505389094E-1
3.153877550E1;-4.467868328E0;-4.419243336E0;6.553606391E-1
3.155823050E1;-5.539937019E0;-4.466890812E0;5.732359365E-2
3.157825550E1;-5.264436722E0;1.247142434E0;-1.171737194E0
3.159112750E1;-4.185648441E0;4.285586357E0;-2.994217277E-1
3.160821450E1;-3.604104996E0;5.083376408E0;6.504737139E-1
3.161827950E1;-3.667024136E0;2.885483027E0;1.257404983E-1
3.162834550E1;-3.706119537E0;6.582683921E-1;-5.413243771E-1
3.164820150E1;-3.279124737E0;-2.522506952E0;-1.456400394E0
3.166828950E1;-2.324953079E0;-2.019764900E0;-1.592623353E0
3.167829050E1;-1.768454909E0;-1.954402328E0;-1.297575474E0
3.169833650E1;-8.185594082E-1;-3.174911022E0;-2.010723948E-1
3.170839150E1;-4.337143004E-1;-3.551203966E0;3.028914034E-1
3.172848350E1;4.166101217E-1;-2.453479290E0;5.240246058E-1
3.173849350E1;1.112385631E0;-1.701504111E0;2.027095258E-1
3.174884050E1;1.916284323E0;-1.444940686E0;-2.737653852E-1
3.176830050E1;2.961474657E0;-1.667906523E0;-2.091700315E0
3.177938850E1;2.483778000E0;-9.525832534E-1;-2.429508924E0
3.179867550E1;1.619403720E0;6.695082784E-2;-2.194325686E0
3.181826250E1;1.674381614E0;1.300898671E0;-1.802150130E0
3.183821150E1;2.431243509E-1;1.295400858E0;-1.394092202E0
3.184876350E1;-3.857003212E0;-1.347813129E0;-1.650313586E-1
3.186825250E1;-3.663358927E0;-2.933008432E0;1.540504456E0
3.187830050E1;-3.218648911E0;-7.211508751E0;1.538061023E0
3.189832950E1;1.099557400E0;-9.147096276E-1;1.329755902E0
3.190857150E1;2.408641577E0;5.153625488E0;8.685526252E-1
3.191874750E1;2.227214813E0;9.771766663E0;8.123530149E-1
3.193877750E1;2.071444035E0;1.334960461E1;7.793663144E-1
3.195880850E1;3.090367317E0;4.944098949E0;1.570436835E0
3.197816250E1;5.035362244E0;-1.857274652E0;1.135500789E0
3.198827850E1;5.594304085E0;-3.435750484E0;7.524882555E-1
3.199830950E1;6.797097683E0;-2.939728022E0;4.641598463E-1
3.200852350E1;8.899085045E0;4.798713207E0;6.608584523E-1
3.202819050E1;1.421483397E0;9.438845634E0;-1.803029776E-1
3.203826950E1;6.487389207E-1;3.970990658E0;1.526185721E-1
3.204858650E1;2.419026375E0;8.396953344E-1;1.458037615E0
3.205889350E1;4.625471592E0;-1.024054527E0;2.404267788E0
3.207823150E1;4.155716419E0;-3.703920364E0;2.258881807E0
3.208826350E1;3.090367317E0;-3.317853451E0;1.725596666E0
3.209830750E1;2.417193890E0;-1.929356813E0;1.131224751E0
3.210831150E1;1.923614621E0;-6.434854865E-1;6.663562059E-1
3.211878850E1;1.469130874E0;-2.076941542E-3;4.024624527E-1
3.213825250E1;3.023782969E-1;-4.266282916E-1;5.671272799E-2
3.215848750E1;-5.525276184E0;-1.663996875E-1;-8.073195070E-2
3.216885050E1;-5.073235989E0;-2.134363204E-1;1.648358852E-1
3.218832750E1;-2.756834745E0;-9.702983499E-1;4.012407064E-1
3.219841750E1;-1.927279830E0;-1.513357520E0;3.939103186E-1
3.221850750E1;-2.097711325E0;-3.083281279E0;3.890234232E-1
3.223827150E1;-5.040860176E0;-4.670309067E0;1.011495113E0
3.224849950E1;-4.607145786E0;-4.737504482E0;9.705671072E-1
3.226817850E1;-4.142888069E0;-2.923234463E0;-3.018651903E-1
3.227862750E1;-4.637078285E0;-6.654766202E-1;-1.260312676E0
3.229827850E1;-5.079955578E0;4.237938881E0;-1.721515894E0
3.231825050E1;-4.286441326E0;4.389433384E0;1.471207887E-1
3.233820450E1;-3.230255365E0;1.244699001E0;3.334346712E-1
3.234886150E1;-2.093435287E0;-2.036869049E0;-1.078885674E0
