"Time (s)";"Acceleration x (m/s^2)";"Acceleration y (m/s^2)";"Acceleration z (m/s^2)"
0.000000000E0;-1.119289279E0;3.718195200E0;8.730456352E0
1.006087500E-2;-1.183932781E0;3.677493811E0;8.743624687E0
2.015981200E-2;-1.134851575E0;3.655946016E0;8.854954720E0
3.021328100E-2;-9.911994934E-1;3.582922935E0;9.039308548E0
5.005413200E-2;-7.613561153E-1;3.263296843E0;9.720458984E0
6.996009500E-2;-4.644751251E-1;3.263296843E0;9.882067680E0
9.008258600E-2;-6.021417379E-1;3.359065056E0;9.336189270E0
1.100859590E-1;-5.722141862E-1;3.354276657E0;8.710105896E0
1.298740520E-1;-5.949591398E-1;3.354276657E0;8.953117371E0
1.407194010E-1;-5.698199868E-1;3.302801132E0;8.998606682E0
1.600714120E-1;-3.974374831E-1;3.205836058E0;9.281123161E0
1.799684150E-1;-3.268085420E-1;3.083731890E0;9.829395294E0
1.998794160E-1;-3.699041605E-1;3.148375273E0;9.668983459E0
2.098865830E-1;-5.027823448E-1;3.193865061E0;9.348160744E0
2.199201660E-1;-5.231330991E-1;3.210624456E0;8.833407402E0
2.299314580E-1;-1.452083349E0;3.074155092E0;8.333019257E0
2.499609270E-1;-2.166752517E-1;3.555389643E0;8.825027466E0
2.699017940E-1;-3.220201433E-1;3.069366693E0;9.319430351E0
2.800357720E-1;-7.481880188E-1;2.941276789E0;9.138668060E0
2.901997610E-1;-1.064222693E0;3.141192675E0;9.716867447E0
3.100502520E-1;-6.308721304E-1;3.235763550E0;9.166201591E0
3.203900010E-1;-6.811503768E-1;3.081337690E0;9.176975250E0
3.403318120E-1;-7.984662652E-1;3.104082584E0;8.283937454E0
3.601440150E-1;-7.900865674E-1;3.215412855E0;8.014590263E0
3.800115660E-1;-1.000776291E0;3.228580952E0;8.908824921E0
3.902156580E-1;-1.505952835E0;3.179499865E0;9.485827446E0
4.099402270E-1;-1.499967337E0;3.027467966E0;1.037407589E1
4.299346190E-1;-8.918401599E-1;2.867056608E0;1.184650993E1
4.498682170E-1;-1.113303825E-1;2.764105797E0;1.301009178E1
4.599584830E-1;1.004367590E0;2.631227732E0;1.149695683E1
4.799089330E-1;9.552865028E-1;1.533486247E0;5.887341976E0
4.998660450E-1;-1.107318282E0;3.902548790E0;6.829460144E0
5.199553230E-1;-6.224924326E-1;1.900996208E0;6.058527470E0
5.300020360E-1;-1.327584863E0;1.933317900E0;7.329848289E0
5.499028210E-1;-1.960851192E0;3.038241863E0;1.236605167E1
5.699355170E-1;-1.418564558E0;3.223792553E0;1.308431244E1
5.898561910E-1;-1.047463298E0;3.165134668E0;1.141435623E1
6.000004700E-1;-8.750807047E-1;2.989160776E0;1.054047298E1
6.199136800E-1;-3.495534360E-1;2.904166698E0;9.566033363E0
6.300037150E-1;-7.805097699E-1;3.100491285E0;1.072722054E1
6.400767320E-1;-9.552865028E-1;3.751713991E0;8.192957878E0
6.501207410E-1;-9.002198577E-1;2.798821688E0;8.251616478E0
6.700214970E-1;-2.255337954E0;2.954444885E0;9.841365814E0
6.899594360E-1;-3.155557871E0;4.327519417E0;1.007360363E1
7.099249210E-1;2.153584480E0;1.543063045E0;7.904457092E0
7.298520420E-1;1.063025594E0;2.655169725E0;5.750872612E0
7.499528230E-1;-9.576807022E-1;3.039438963E0;7.779958248E0
7.601917860E-1;-2.194285870E0;5.767632008E0;1.032738876E1
7.800842590E-1;-7.316680431E0;2.182314873E0;7.553706169E0
7.902535040E-1;-1.819593310E0;1.816002011E0;1.037527275E1
8.099631880E-1;2.633621991E-1;1.910573006E0;9.320627213E0
8.299166090E-1;-1.240196466E0;2.907757998E0;8.744821548E0
8.498782140E-1;-1.168370485E0;3.357867956E0;8.633491516E0
8.599469820E-1;-5.063736439E-1;3.120841980E0;8.254010201E0
8.799710580E-1;-8.499415964E-2;1.911770105E0;8.704120636E0
8.900199040E-1;-2.270900249E0;1.534683347E0;1.018852520E1
9.099890380E-1;1.228225470E0;7.338228226E-1;9.239224434E0
9.200313940E-1;2.201468468E0;1.505952835E0;9.215282440E0
9.304590720E-1;3.933673382E0;1.005564690E0;1.472793198E1
9.500485800E-1;5.588066578E0;1.927332401E0;9.852140427E0
9.698919570E-1;4.824316502E-1;3.994725466E0;1.094629002E1
9.804033530E-1;-5.626374111E-2;4.234145641E0;1.002811337E1
1.000100900E0;-3.471592441E-2;3.253720045E0;1.007120991E1
1.020033787E0;2.193088770E0;3.672705412E0;9.871294022E0
1.040013259E0;8.619126081E-1;2.653972626E0;9.228450775E0
1.050195004E0;5.075707436E-1;2.551021814E0;8.628703117E0
1.070032063E0;-2.418143749E-1;1.962048292E0;5.932831764E0
1.080326406E0;6.560112834E-1;2.012326479E0;4.519055843E0
1.100067664E0;3.160346150E-1;1.812410712E0;8.000225067E0
1.119929728E0;2.807201385E0;3.608062029E0;8.283937454E0
1.129930739E0;5.176264286E0;3.052607059E0;8.552088737E0
1.139995244E0;4.736927986E0;2.943670988E0;6.823474884E0
1.151062997E0;3.367444754E0;3.187879562E0;7.264008045E0
1.170310561E0;2.561795712E-1;1.017535686E0;1.022922707E1
1.190006202E0;1.277306557E0;5.805938840E-1;5.656301498E0
1.200286976E0;1.686715126E0;1.517923832E0;5.734113216E0
1.219978056E0;3.139995575E0;1.813607812E0;4.817133904E0
1.230063403E0;4.086902142E0;2.099714994E0;5.003881454E0
1.240063576E0;4.434061527E0;2.142810583E0;4.982333660E0
1.259993706E0;2.183511972E0;5.781996846E-1;3.633201122E0
1.280010739E0;1.783680320E0;-2.466027737E-1;2.663549423E0
1.300191997E0;4.516661644E0;-5.853823423E-1;3.877409697E0
1.320100811E0;8.726864815E0;2.661155224E0;7.316680431E0
1.340010265E0;5.178658485E0;1.352723956E0;3.074155092E0
1.359933128E0;3.178302765E0;-2.992752194E-1;-4.548983276E-1
1.369935939E0;3.766079187E0;-7.972691655E-1;1.101332754E-1
1.379977844E0;4.625597477E0;-1.187524080E0;1.895010591E0
1.390120797E0;6.168660641E0;-7.936778665E-1;4.651933670E0
1.409924761E0;6.020220280E0;-1.013944387E0;7.483077526E0
1.419986755E0;4.619612217E0;-1.800439715E0;6.527791023E0
1.439923001E0;3.536235809E0;-2.370259762E0;2.968810081E0
1.459878062E0;5.821501255E0;-2.689885616E0;3.442862034E0
1.470139406E0;7.351396084E0;-2.523488522E0;4.053383350E0
1.480251078E0;8.977059364E0;-2.313995838E0;4.533421040E0
1.490299914E0;1.002691650E1;-3.818751812E0;5.714959621E0
1.510299041E0;1.109951878E1;-6.581660271E0;6.318298340E0
1.529963072E0;1.502122116E1;-8.744821548E0;6.549338818E0
1.540001911E0;1.828810883E1;-9.126696587E0;7.105990410E0
1.559870290E0;2.743156624E1;-6.597222805E0;9.921571732E0
1.579869885E0;3.268684006E1;-3.348291159E0;1.555512810E1
1.599887283E0;2.745670509E1;-4.574122429E0;1.637514305E1
1.619887383E0;2.063203239E1;-5.930437565E0;1.241034412E1
1.640110908E0;1.526902103E1;-5.742492676E0;8.206126213E0
1.660066789E0;1.258272743E1;-4.730942726E0;6.096834660E0
1.674037769E0;1.054047298E1;-3.610456228E0;4.262876034E0
1.690555750E0;1.054047298E1;-3.610456228E0;4.262876034E0
1.709898750E0;6.829460144E0;-3.488351822E0;1.054645896E0
1.729906750E0;5.774814606E0;-3.070563793E0;3.974374831E-1
1.739933750E0;5.124788761E0;-3.084928989E0;-2.094926536E-1
1.760280750E0;3.971980572E0;-3.483563423E0;-1.054645896E0
1.770467750E0;3.944447279E0;-3.643975019E0;-1.066616893E0
1.790119750E0;3.349488258E0;-3.918111086E0;-1.338358760E0
1.810098750E0;2.384624958E0;-4.596867085E0;-2.328361034E0
1.830090750E0;7.422025204E-1;-6.379350662E0;-3.585317135E0
1.849912750E0;-2.657563984E-1;-8.656236649E0;-3.574543238E0
1.869864750E0;-1.045069098E0;-1.044111347E1;-2.521094322E0
1.879963750E0;-1.282094955E0;-1.113543224E1;-1.945288897E0
1.890177750E0;-1.629254222E0;-1.183932781E1;-1.511938334E0
1.909979750E0;-2.533065319E0;-1.441668510E1;-2.730587006E0
1.920417750E0;-2.387019157E0;-1.508227348E1;-3.300406933E0
1.939908750E0;-1.674744129E0;-1.677736855E1;-4.016273499E0
1.950156750E0;-1.132457376E0;-1.754231644E1;-3.964797974E0
1.969886750E0;3.268085420E-1;-1.936310577E1;-3.345896959E0
1.989975750E0;3.714603901E0;-2.058175468E1;-2.403778553E0
2.009886750E0;8.007407188E0;-1.978089523E1;-1.623268723E0
2.030144750E0;1.319324875E1;-1.748365784E1;6.548141837E-1
2.040217750E0;1.557188797E1;-1.598847866E1;1.460463047E0
2.059969750E0;1.809896851E1;-1.562934875E1;1.349132657E0
2.070155750E0;1.760456467E1;-1.685637665E1;-1.520318091E-1
2.080279750E0;1.688151550E1;-1.849520874E1;-1.731007814E0
2.100000750E0;1.983356667E1;-1.834556961E1;-3.804386616E0
2.119858750E0;2.564549065E1;-1.243907452E1;-3.689464808E0
2.130007750E0;2.800856781E1;-8.628703117E0;-3.117250681E0
2.149976750E0;2.862268066E1;-3.351882458E0;-1.666364431E0
2.160269750E0;2.653733253E1;-2.923320293E0;-1.995567083E0
2.179988750E0;2.077807999E1;-5.038597584E0;-3.113659382E0
2.190195750E0;1.823783112E1;-6.003460884E0;-3.305195332E0
2.209911750E0;1.484764194E1;-6.900089264E0;-2.505532026E0
2.219948750E0;1.381813526E1;-6.609193802E0;-1.788468719E0
2.239805750E0;1.216733265E1;-4.711789131E0;-5.183446407E-1
2.249913750E0;1.094269848E1;-3.681085110E0;-4.740519226E-1
2.259978750E0;9.431957245E0;-2.687491417E0;-9.816226959E-1
2.279871750E0;6.270414352E0;-5.985504389E-1;-9.241618514E-1
2.290237750E0;4.442441463E0;2.121262789E0;6.248866320E-1
2.309868750E0;3.074155092E0;4.214992046E0;1.553836942E0
2.330126750E0;2.333149672E0;5.395333767E0;1.782483220E0
2.349883750E0;2.400187254E0;5.380968094E0;9.026140571E-1
2.359889750E0;2.246958256E0;4.906916618E0;3.938461840E-1
2.369954750E0;2.242169857E0;4.377797604E0;1.616086215E-1
2.384790750E0;2.646790028E0;3.898957491E0;-1.197100850E-3
2.399909750E0;4.477157116E0;3.144783974E0;8.487445116E-1
2.409923750E0;5.950788498E0;2.703053713E0;2.015917778E0
2.419997750E0;8.087613106E0;2.553416014E0;3.264493942E0
2.430709750E0;1.126112747E1;2.513911724E0;3.791218281E0
2.441918750E0;1.565209389E1;1.783680320E0;3.470395327E0
2.459893750E0;2.204820251E1;-5.266046524E0;1.549048543E0
2.479873750E0;2.172378922E1;-1.801038170E1;1.012747288E0
2.489928750E0;2.572090912E1;-2.071223831E1;1.291671872E0
2.509910750E0;3.236840820E1;-2.212960625E1;3.950432688E-2
2.529901750E0;3.132334137E1;-2.306693649E1;-4.848258495E0
2.550155750E0;2.314355087E1;-2.266351318E1;-4.200626850E0
2.569860750E0;1.424909115E1;-2.232234001E1;-1.806425214E0
2.579861750E0;1.031661510E1;-2.198595428E1;-1.916558504E0
2.590100750E0;9.265560150E0;-1.917276764E1;-1.592144132E0
2.609883750E0;9.169792175E0;-1.426345634E1;4.465186298E-1
2.629988750E0;-3.567360640E-1;-1.517325306E1;-1.903390408E0
2.640605750E0;-5.203797340E0;-1.522712326E1;-2.796427488E0
2.660045750E0;-7.248445511E0;-1.202607536E1;1.254561663E0
2.679854750E0;-1.020289040E1;-7.712920666E0;-1.061828494E0
2.690198750E0;-1.019331360E1;-6.454767704E0;-3.655946016E0
2.709861750E0;-9.652224541E0;-5.327098846E0;-6.203376770E0
2.719875750E0;-9.600749016E0;-5.187037945E0;-6.257246017E0
2.741270750E0;-8.306682587E0;-5.603629112E0;-5.258863926E0
2.762173750E0;-5.649118900E0;-6.563704014E0;-3.010708570E0
2.780108750E0;-2.334346771E0;-6.771999359E0;-1.910573006E0
2.790470750E0;-6.021417379E-1;-6.938396454E0;-2.638410330E0
2.810014750E0;5.449203014E0;-7.934384346E0;-5.128379822E0
2.820275750E0;8.573636055E0;-9.998186111E0;-6.388927460E0
2.840111750E0;1.608065605E1;-1.091157436E1;-7.068880558E0
2.860834750E0;2.917334747E1;-7.374141216E0;-2.340332270E0
2.880600750E0;3.922181320E1;-8.559271097E-1;1.006043530E1
2.890915750E0;3.820666885E1;6.129156351E-1;1.301488018E1
2.909930750E0;2.646071625E1;1.023521185E0;5.588066578E0
2.929901750E0;1.707664299E1;2.636016130E0;-1.286883354E0
2.940245750E0;1.348893261E1;3.661931515E0;-2.130839586E0
2.959917750E0;9.441534042E0;5.513846397E0;-7.517793179E-1
2.969974750E0;8.546102524E0;5.990292549E0;1.320402265E0
2.990164750E0;7.140706539E0;6.599617004E0;5.553350925E0
3.009866750E0;6.066906929E0;7.892486095E0;7.698555470E0
3.029890750E0;3.888183594E0;8.607154846E0;6.903680801E0
3.039910750E0;2.562992811E0;8.649053574E0;5.876567841E0
3.049964750E0;1.551442742E0;8.596381187E0;4.885368347E0
3.070310750E0;-7.206547260E-1;6.511031628E0;4.256890774E0
3.089857750E0;-2.123656988E0;4.620809078E0;4.110844135E0
3.109887750E0;-6.500257850E-1;3.870227098E0;4.164713860E0
3.129925750E0;2.485181332E0;3.537432909E0;3.640383720E0
3.139936750E0;5.468356609E0;4.186261654E0;3.606864929E0
3.150129750E0;8.883685112E0;5.246892929E0;3.552995205E0
3.170053750E0;1.341231823E1;5.717353821E0;4.823119164E0
3.190141750E0;1.474708557E1;4.103661537E0;6.676231384E0
3.209847750E0;2.054105377E1;3.813963413E0;7.253233910E0
3.229969750E0;3.015377235E1;2.349909067E0;5.416881561E0
3.249823750E0;3.688746643E1;2.313995838E0;-2.509123325E0
3.269902750E0;2.596751213E1;-2.067393064E0;1.742978811E0
3.290243750E0;1.374630928E1;-4.460397720E0;2.391807556E0
3.309913750E0;1.069849014E1;-3.452438831E0;2.048239470E0
3.330147750E0;8.259995461E0;-3.366247654E0;1.089361787E0
3.349916750E0;4.881777287E0;-3.961206675E0;-1.148019671E0
3.360014750E0;3.307589531E0;-4.278438568E0;-1.271321058E0
3.370122750E0;1.649604917E0;-4.754884720E0;-8.726865053E-1
3.389920750E0;-4.417302012E-1;-5.856217384E0;-4.082113802E-1
3.410329750E0;-1.346738458E0;-6.218938828E0;-1.869871497E0
3.429896750E0;-2.172738075E0;-6.606799603E0;-4.060565948E0
3.449900750E0;-2.020706177E0;-5.821501255E0;-6.295553207E0
3.469931750E0;-3.433285236E0;-6.667851925E0;-7.147889137E0
3.490018750E0;-4.009090900E0;-7.716512203E0;-6.696582317E0
3.509865750E0;-1.267729759E0;-7.539340973E0;-6.380547523E0
3.529924750E0;6.384139061E0;-4.341884613E0;-6.180631638E0
3.540522750E0;1.032379818E1;-2.522291422E0;-6.276399612E0
3.559848750E0;1.506311989E1;-6.476315856E-1;-5.364208698E0
3.569943750E0;1.839704514E1;8.870517015E-1;-2.047042370E0
3.589918750E0;3.274908829E1;8.623914719E0;2.428917646E0
3.609822750E0;3.863403702E1;1.412339592E1;3.671508312E0
3.619881750E0;3.921103668E1;1.552520084E1;4.637568474E0
3.629942750E0;3.723821640E1;1.578736591E1;5.276820660E0
3.640127750E0;3.222954559E1;1.483926201E1;4.926070213E0
3.659843750E0;1.635239792E1;1.019451046E1;7.733271718E-1
3.670019750E0;1.224873543E1;8.859743118E0;-7.481880188E-1
3.680228750E0;8.556877136E0;7.815871239E0;-2.014720678E0
3.699979750E0;3.815160513E0;6.308721542E0;-1.636436820E0
3.719822750E0;1.601720929E0;5.273229122E0;8.391677141E-1
3.730040750E0;8.607155085E-1;4.914099216E0;2.373851061E0
3.740609750E0;3.591302549E-3;4.515464306E0;3.564966440E0
3.760276750E0;-2.416946650E0;2.693476915E0;4.039018154E0
3.779902750E0;-4.966771603E0;1.404199243E0;3.854664803E0
3.789951750E0;-5.723339081E0;1.551442742E0;4.612429619E0
3.800091750E0;-5.816712856E0;1.938106298E0;6.239289761E0
3.810176750E0;-5.579687119E0;2.154781580E0;7.571662903E0
3.829973750E0;-4.760869980E0;2.846705914E0;7.788338184E0
3.849961750E0;-3.400963545E0;2.829946518E0;3.888183594E0
3.860051750E0;-2.535459518E0;2.707842112E0;2.885013103E0
3.880240750E0;1.162384868E0;3.812766314E0;2.305616140E0
3.900238750E0;4.781220913E0;6.264428616E0;4.582501888E0
3.911344750E0;7.502231121E0;8.536525726E0;7.020996571E0
3.930097750E0;1.625543213E1;1.354519653E1;9.479841232E0
3.950074750E0;3.055839348E1;1.520557499E1;1.226908684E1
3.969819750E0;3.922181320E1;1.649006462E1;1.216613579E1
3.980096750E0;3.922181320E1;1.522233486E1;1.092115116E1
4.000268750E0;3.744890594E1;8.747216225E0;4.078522682E0
4.019856750E0;2.374210167E1;3.430891037E0;-2.127248287E0
4.029988750E0;1.858618736E1;1.448492050E0;-3.630806923E0
4.040093750E0;1.535760689E1;1.077390742E-2;-4.066551685E0
4.060033750E0;1.006402683E1;-3.920505285E0;-1.619677424E0
4.079886750E0;3.823540211E0;-7.715314865E0;-1.887827992E0
4.090107750E0;7.757213712E-1;-9.313444138E0;-1.753752708E0
4.109894750E0;-4.753687382E0;-1.172560310E1;-2.662352324E0
4.130218750E0;-1.051174259E1;-1.349611473E1;-5.702988625E0
4.149924750E0;-1.322916126E1;-1.526782417E1;-8.821435928E0
4.160257750E0;-1.231337929E1;-1.473990250E1;-1.029147625E1
4.180110750E0;-8.274360657E0;-1.250611305E1;-1.070687008E1
4.191669750E0;-6.341042995E0;-1.150413895E1;-1.014303589E1
4.210209750E0;-1.939303398E0;-1.067215443E1;-8.711302757E0
4.230210750E0;1.241393566E0;-1.090678596E1;-5.662287235E0
4.240979750E0;5.651513100E0;-9.493009567E0;-3.864241600E0
4.259996750E0;1.722867584E1;-5.279214859E0;-5.768828869E0
4.270160750E0;2.170224190E1;-4.842272758E0;-6.434417248E0
4.290067750E0;2.777393723E1;-5.285200119E0;-1.753752708E0
4.309872750E0;3.922181320E1;3.667917013E0;5.917269707E0
4.319973750E0;3.922181320E1;7.671022415E0;1.401805115E1
4.330553750E0;3.922181320E1;9.987412453E0;2.093130875E1
4.350131750E0;3.863164139E1;1.260307789E1;2.054703903E1
4.369836750E0;2.561317062E1;1.092713642E1;8.769960403E0
4.379857750E0;1.932719231E1;9.654618263E0;4.066551685E0
4.389963750E0;1.429218674E1;8.647856712E0;1.122880578E0
4.409941750E0;8.228871346E0;7.732074261E0;-7.888894677E-1
4.430020750E0;6.177040577E0;7.481880188E0;-3.639186621E-1
4.441073750E0;4.367023945E0;6.652289391E0;1.054645896E0
4.459891750E0;1.642422318E0;5.462371349E0;2.006340981E0
4.479865750E0;-5.506663918E-1;4.662707806E0;2.087743998E0
4.492198750E0;-1.307234168E0;4.396951199E0;2.075772762E0
4.509843750E0;-2.325966835E0;4.219780445E0;2.115277290E0
4.530210750E0;-2.639607430E0;4.298789024E0;2.100912094E0
4.549874750E0;-2.625242233E0;4.158728123E0;2.419340849E0
4.569900750E0;-2.201468468E0;4.050989151E0;3.442862034E0
4.589865750E0;-1.495178938E0;3.193865061E0;3.974374771E0
4.599890750E0;-5.183446407E-1;2.890998602E0;3.584120035E0
4.619857750E0;3.703830004E0;2.853888512E0;1.914164305E0
4.629870750E0;7.179013729E0;4.484339714E0;2.472013235E0
4.650104750E0;7.623138428E0;6.027402878E0;4.964377403E0
4.669877750E0;2.536417198E1;7.710526466E0;1.250371838E1
4.680041750E0;3.818751526E1;1.200572395E1;1.730529022E1
4.690210750E0;3.922181320E1;1.678574753E1;2.210207367E1
4.709905750E0;3.922181320E1;1.239957047E1;1.229183197E1
4.729970750E0;3.055959129E1;2.506729126E0;1.280897856E-1
4.750024750E0;1.791940308E1;-1.442506552E0;-3.307589531E0
4.769825750E0;1.072362900E1;-4.903325081E0;-3.229778051E0
4.779891750E0;7.699752808E0;-6.597222805E0;-2.710236311E0
4.789898750E0;4.985925198E0;-7.851784706E0;-2.177526474E0
4.810045750E0;1.282094955E0;-9.057265282E0;-2.153584480E0
4.829963750E0;-5.470750809E0;-1.180939960E1;-3.259705544E0
4.849837750E0;-7.340622425E0;-1.229183197E1;-4.163516521E0
4.860016750E0;-6.034585476E0;-1.106121159E1;-5.689820290E0
4.870067750E0;-5.307945251E0;-9.904812813E0;-6.837840080E0
4.880284750E0;-4.950012207E0;-9.193734169E0;-7.429207802E0
4.899919750E0;-5.358223438E0;-8.572439194E0;-6.859387875E0
4.919813750E0;-5.471948147E0;-8.408436775E0;-5.045780182E0
4.930203750E0;-4.352658749E0;-7.966706276E0;-4.389768600E0
4.940230750E0;-3.416525841E0;-7.943961143E0;-4.371812344E0
4.960008750E0;3.232172132E-2;-6.696582317E0;-5.978321552E0
4.970183750E0;3.213018656E0;-5.319916248E0;-7.029376030E0
4.990028750E0;8.372523308E0;-4.010287762E0;-6.740874767E0
5.009959750E0;1.211106968E1;-5.380968094E0;-5.714959621E0
5.020072750E0;2.686413956E1;-4.134786129E0;-7.505822182E-1
5.030140750E0;3.813484573E1;8.110358238E0;1.555034041E0
5.049866750E0;3.922181320E1;1.924219894E1;7.080851555E0
5.059870750E0;3.922181320E1;2.015558624E1;1.050695419E1
5.069904750E0;3.922181320E1;1.798404694E1;1.080982113E1
5.080010750E0;3.670790100E1;1.520318127E1;9.069235802E0
5.099821750E0;1.973660088E1;1.001015759E1;2.111685991E0
5.110021750E0;1.424071217E1;8.486248016E0;-1.568202138E0
5.129930750E0;7.594407558E0;6.938396454E0;-3.784035683E0
5.139931750E0;5.300762653E0;6.467936039E0;-3.290830135E0
5.150321750E0;3.762487888E0;6.110002518E0;-2.432508945E0
5.170081750E0;2.146401882E0;5.558139324E0;-4.118026793E-1
5.190110750E0;8.690952063E-1;4.911705017E0;2.164358377E0
5.200163750E0;9.816227108E-2;4.353855610E0;3.554192305E0
5.219895750E0;-8.583213091E-1;3.433285236E0;6.050147533E0
5.229960750E0;-3.280056417E-1;4.232948780E0;6.076483727E0
5.240751750E0;-8.020575345E-2;4.714183331E0;5.655104637E0
5.259983750E0;-1.687912196E-1;5.202600479E0;4.981136799E0
5.270011750E0;7.900865376E-2;5.570110321E0;4.853046894E0
5.290194750E0;1.675941236E-2;5.430049419E0;4.966771603E0
5.300458750E0;-6.189011335E-1;5.024232388E0;4.614823818E0
5.319883750E0;-1.705868721E0;4.244919777E0;3.841496706E0
5.330304750E0;-2.169146776E0;3.573346138E0;2.943670988E0
5.349945750E0;-1.976413488E0;1.857900500E0;1.636436820E0
5.360045750E0;-3.986345828E-1;1.904587507E0;2.353500366E0
5.379866750E0;4.839878559E0;4.604049683E0;2.746149302E0
5.400557750E0;7.759607792E0;9.336189270E0;3.233369350E0
5.419896750E0;2.362239075E1;1.411501598E1;1.116416264E1
5.431099750E0;3.222236252E1;1.379658699E1;1.828691292E1
5.441328750E0;3.789063644E1;1.334288597E1;2.212721252E1
5.459858750E0;3.922181320E1;1.093072796E1;1.017775154E1
5.469931750E0;3.895006943E1;9.114726067E0;2.132036686E0
5.490014750E0;2.801335716E1;5.203797340E0;-4.185064793E0
5.509876750E0;1.870470047E1;-6.212953329E-1;1.145625472E0
5.529864750E0;1.222239971E1;-4.183867455E0;4.327519417E0
5.549914750E0;6.890512466E0;-5.548562527E0;1.007958889E0
5.570116750E0;1.804031014E0;-7.071274757E0;-4.140771866E0
5.589882750E0;-2.570175409E0;-8.432378769E0;-6.326677799E0
5.610213750E0;-5.079298973E0;-9.199720383E0;-5.343858242E0
5.629838750E0;-6.009446144E0;-9.305065155E0;-4.856637955E0
5.640099750E0;-6.451176643E0;-9.006986618E0;-5.368997097E0
5.650247750E0;-6.659471989E0;-8.826224327E0;-6.104017258E0
5.660581750E0;-6.308721542E0;-8.667010307E0;-7.104793549E0
5.679878750E0;-4.308365822E0;-8.848969460E0;-8.458714485E0
5.689939750E0;-2.572569609E0;-8.948328972E0;-7.518990517E0
5.699968750E0;-2.705447972E-1;-9.182960510E0;-6.125565052E0
5.710128750E0;4.059369087E0;-7.983465672E0;-5.260061264E0
5.729944750E0;1.738429832E1;-1.436521053E0;-6.351817131E0
5.740041750E0;2.077209473E1;3.591302633E-1;-6.597222805E0
5.760864750E0;1.643858910E1;-2.888604403E0;-3.427299738E0
5.779850750E0;2.772605324E1;5.572504520E0;-1.574187636E0
5.792250750E0;3.808337021E1;1.142153931E1;-1.304839998E-1
5.810111750E0;3.922181320E1;1.717480659E1;1.617163467E1
5.830377750E0;3.012863350E1;1.330577564E1;1.400129128E1
5.850164750E0;1.380736160E1;8.463502884E0;5.141548157E0
5.869919750E0;6.885724068E0;7.273584843E0;-1.821987510E0
5.890064750E0;2.196680069E0;6.193799973E0;-4.198232651E0
5.910001750E0;-9.050082564E-1;4.963180065E0;-2.456450939E0
5.929981750E0;-2.825158119E0;3.714603901E0;6.284779310E-1
5.940252750E0;-3.627215624E0;3.153163671E0;2.327163935E0
5.959915750E0;-4.158728123E0;2.876633406E0;4.478354454E0
5.970183750E0;-3.585317135E0;3.426102638E0;4.957194805E0
5.990017750E0;-1.503558636E0;5.012261391E0;5.705382824E0
6.000220750E0;1.640028208E-1;6.835445881E0;6.007051945E0
6.019994750E0;-1.197100878E-1;6.757634163E0;5.088875771E0
6.030163750E0;-7.038952708E-1;6.228515625E0;4.738125324E0
6.041787750E0;-1.685518026E0;5.248090267E0;4.335899353E0
6.060441750E0;-2.873042107E0;3.144783974E0;4.353855610E0
6.080126750E0;-4.728548229E-1;2.975992680E0;4.323928356E0
6.100036750E0;5.693411827E0;5.340266705E0;5.051765442E0
6.119878750E0;1.149575901E1;1.095466995E1;5.564124584E0
6.129981750E0;1.174954510E1;1.154244614E1;5.724536419E0
6.141222750E0;1.312860489E1;1.152449036E1;6.691793919E0
6.160001750E0;2.756085205E1;1.418684196E1;1.077151299E1
6.170064750E0;3.592978668E1;1.516247940E1;1.309269238E1
6.190189750E0;3.922181320E1;1.178665543E1;6.940790653E0
6.200191750E0;3.536355591E1;6.192602634E0;1.909375906E0
6.219949750E0;2.367386627E1;2.003946781E0;-1.964442492E0
6.239999750E0;1.474828243E1;-1.873462796E0;-2.123656988E0
6.250092750E0;1.146343803E1;-3.381809950E0;-2.334346771E0
6.260404750E0;8.382100105E0;-4.791994572E0;-2.673126221E0
6.279974750E0;4.361038208E0;-6.423643112E0;-4.635174274E0
6.290464750E0;3.840299606E0;-6.349422932E0;-4.947618008E0
6.310154750E0;2.770091295E0;-5.819107056E0;-5.158307552E0
6.330089750E0;-2.561795712E-1;-6.587646008E0;-5.082890034E0
6.350595750E0;-2.814383984E0;-7.597999096E0;-4.429273129E0
6.370104750E0;-4.660313606E0;-8.346187592E0;-3.234566450E0
6.389962750E0;-5.768828869E0;-9.077615738E0;-4.265270233E0
6.404439750E0;-5.378573895E0;-9.493009567E0;-4.849455357E0
6.420711750E0;-7.374141216E-1;-8.033743858E0;-4.224568844E0
6.439933750E0;6.150704384E0;-5.524620533E0;-3.963600874E0
6.450066750E0;8.925583839E0;-4.019864559E0;-3.846285105E0
6.469938750E0;1.005804157E1;-4.010287762E0;-2.647987127E0
6.480792750E0;1.153047562E1;-3.690661907E0;-2.251746655E0
6.499861750E0;2.063203239E1;2.158372879E0;-6.955155730E-1
6.509949750E0;2.645952034E1;5.600037575E0;-7.206547260E-1
6.529852750E0;3.488950348E1;1.176989555E1;1.635239720E0
6.540041750E0;3.742855453E1;1.396537876E1;4.801571369E0
6.559977750E0;3.541503143E1;1.518881512E1;6.947973251E0
6.570127750E0;3.102047348E1;1.489672279E1;5.382165432E0
6.591869750E0;1.600164795E1;1.046505547E1;5.171475410E-1
6.610082750E0;8.820239067E0;8.510190010E0;-9.277531505E-1
6.629871750E0;4.623203278E0;7.491456985E0;-6.236895323E-1
6.640169750E0;3.882198095E0;7.216124058E0;3.830722570E-1
6.660229750E0;2.528276920E0;6.392518520E0;2.704250813E0
6.679847750E0;-3.435679376E-1;5.149928093E0;3.867832899E0
6.689909750E0;-1.355118155E0;4.490325451E0;4.015076160E0
6.699959750E0;-2.000355482E0;4.017470360E0;3.746925592E0
6.720090750E0;-2.688688517E0;3.642777920E0;3.325546265E0
6.740427750E0;-2.613271236E0;4.012681961E0;3.377021551E0
6.760279750E0;-2.485181332E0;4.487931252E0;4.527435303E0
6.779912750E0;-1.306037068E0;5.602431774E0;5.076904774E0
6.790057750E0;2.501940727E0;7.066486359E0;4.698620796E0
6.809936750E0;5.191826344E0;7.329848289E0;2.911349297E0
6.820006750E0;3.818751812E0;5.263652325E0;2.768894196E0
6.840115750E0;1.739387512E0;2.712630510E0;2.703053713E0
6.850575750E0;1.974019289E0;3.869029999E0;2.900575399E0
6.870752750E0;3.997119665E0;7.783549786E0;4.240131378E0
6.890656750E0;1.532408810E1;1.138682365E1;6.743268967E0
6.909936750E0;3.155079079E1;1.514212894E1;6.704961777E0
6.920013750E0;3.676655960E1;1.640147781E1;6.029797077E0
6.939888750E0;3.712688446E1;1.371039581E1;1.292868972E0
6.950060750E0;3.326743317E1;1.077989292E1;-2.920926213E-1
6.960251750E0;2.883337021E1;8.143877029E0;-1.047463298E0
6.979901750E0;1.631409073E1;1.602918029E0;-5.590460896E-1
6.991042750E0;1.340274143E1;2.669534981E-1;-2.047042400E-1
7.010094750E0;8.352172852E0;-2.112883091E0;1.771709323E-1
7.030304750E0;3.712209702E0;-3.931279182E0;-7.457938194E-1
7.040971750E0;1.696291924E0;-4.692635536E0;-1.759738207E0
7.060053750E0;-1.059434295E0;-5.795165062E0;-3.101688385E0
7.080004750E0;-2.722207308E0;-7.133523941E0;-2.983175278E0
7.090373750E0;-3.151966572E0;-7.577648163E0;-2.819172382E0
7.109975750E0;-3.949235678E0;-7.449558735E0;-3.177105665E0
7.130027750E0;-6.172252178E0;-8.492233276E0;-3.961206675E0
7.149868750E0;-7.285555840E0;-1.000895977E1;-4.341884613E0
7.159872750E0;-6.611588001E0;-1.060511684E1;-4.317942619E0
7.179903750E0;2.956839204E-1;-9.540893555E0;-4.091690540E0
7.190178750E0;4.222174644E0;-7.835024834E0;-4.752490520E0
7.210177750E0;1.170285797E1;-6.291962147E0;-6.927622795E0
7.230140750E0;1.502481270E1;-5.348646641E0;-5.632359505E0
7.240696750E0;2.049197197E1;-2.366668463E0;-2.737769604E0
7.260011750E0;3.919188309E1;8.542511940E0;1.951274395E0
7.280122750E0;3.922181320E1;1.556111431E1;8.020575523E0
7.299947750E0;3.922181320E1;1.633683586E1;9.130288124E0
7.320197750E0;2.802413177E1;1.248695850E1;5.626374111E-2
7.339911750E0;1.279341698E1;7.101202011E0;-6.119579315E0
7.349952750E0;8.000225067E0;5.900510311E0;-5.676652431E0
7.369885750E0;3.318363667E0;5.710171223E0;9.289502501E-1
7.392455750E0;1.726219416E0;5.711368084E0;4.399345398E0
7.409899750E0;1.271321058E0;6.030993938E0;5.258863926E0
7.429903750E0;-4.788403511E-1;5.475539207E0;4.760869980E0
7.439975750E0;-2.140416384E0;4.577713490E0;4.246116638E0
7.459991750E0;-4.458003521E0;3.538630009E0;4.015076160E0
7.470254750E0;-5.543774128E0;2.970007181E0;4.321534157E0
7.490050750E0;-6.011840343E0;2.752134800E0;4.648342609E0
7.509904750E0;-4.116829872E0;2.777273893E0;4.109647274E0
7.529909750E0;-8.283938169E-1;3.877409697E0;3.612850428E0
7.540100750E0;9.576806426E-2;3.609259129E0;3.319560766E0
7.559928750E0;4.058171749E0;4.424484730E0;2.760514498E0
7.579847750E0;1.764885712E1;1.300410652E1;8.080430984E0
7.590957750E0;2.191293144E1;1.489791965E1;9.136273384E0
7.609900750E0;3.001371193E1;1.456991482E1;9.119514465E0
7.630083750E0;3.360381699E1;1.086488724E1;3.388992548E0
7.650048750E0;3.432566833E1;9.106346130E0;-7.252037048E0
7.669870750E0;3.005920219E1;8.440757751E0;-1.106480312E1
7.679924750E0;2.541804314E1;6.460753441E0;-9.093177795E0
7.697850750E0;2.037345886E1;3.598485231E0;-6.938396454E0
7.709998750E0;1.186925507E1;-1.308431268E0;-3.083731890E0
7.730060750E0;7.608773232E0;-3.690661907E0;-7.469909191E-1
7.749956750E0;4.896142483E0;-4.663905144E0;-5.135562420E-1
7.770001750E0;-4.165911078E-1;-6.343437195E0;-1.844732404E0
7.791353750E0;-3.057395458E0;-7.674613476E0;-2.070984364E0
7.810011750E0;-4.017470360E0;-8.634688377E0;-1.385045648E0
7.830077750E0;-4.982333660E0;-9.295488358E0;-6.727706790E-1
7.840087750E0;-5.300762653E0;-9.428366661E0;-1.124077678E0
7.850121750E0;-5.629965305E0;-9.496601105E0;-1.959654093E0
7.860996750E0;-6.080075264E0;-9.634267807E0;-2.719813108E0
7.879848750E0;-5.154716492E0;-9.261969566E0;-4.023456097E0
7.890020750E0;-4.036623955E0;-9.039308548E0;-4.672284603E0
7.900178750E0;-2.553416014E0;-8.870517731E0;-5.090072632E0
7.919864750E0;1.735796213E0;-8.256404877E0;-5.023035049E0
7.930237750E0;5.251681328E0;-7.155071735E0;-4.885368347E0
7.950388750E0;1.682645035E1;-3.722983599E0;-7.961917877E0
7.970073750E0;3.646010208E1;8.295908928E0;-8.962694168E0
7.990689750E0;3.922181320E1;1.562695408E1;-9.030928612E0
8.009909750E0;3.922181320E1;1.377982807E1;-1.320402265E0
8.030040750E0;3.186323357E1;1.327943993E1;-2.187103271E0
8.050117750E0;2.101151466E1;9.783905029E0;-5.798756599E0
8.069970750E0;1.142393303E1;6.564900875E0;-5.278017521E0
8.080378750E0;7.698555470E0;5.511452198E0;-5.176264286E0
8.099885750E0;2.993949175E0;4.264073372E0;-2.553416014E0
8.109904750E0;1.623268723E0;3.900154591E0;-4.297592044E-1
8.119982750E0;7.529764175E-1;3.801992416E0;1.810016513E0
8.139932750E0;-2.681505978E-1;3.788824081E0;5.087678432E0
8.150316750E0;-2.873041928E-1;3.614047527E0;6.959944248E0
8.169883750E0;9.971849918E-1;4.935647011E0;6.661866188E0
8.190077750E0;1.765723705E0;6.236895561E0;6.120776653E0
8.200094750E0;1.487996340E0;6.669048786E0;5.664681435E0
8.219887750E0;-6.655880809E-1;5.814318657E0;4.762067318E0
8.230041750E0;-1.860294700E0;5.018246651E0;4.393360138E0
8.241884750E0;-3.110068083E0;4.133589268E0;3.998316765E0
8.259919750E0;-4.290409565E0;2.562992811E0;3.337517262E0
8.270122750E0;-3.479972124E0;2.452859640E0;2.504334927E0
8.290765750E0;1.318008065E0;4.363432407E0;4.824316502E-1
8.310003750E0;4.831499100E0;6.452373505E0;-9.301473498E-1
8.330022750E0;8.620323181E0;8.640673637E0;1.005564690E0
8.340248750E0;1.232535076E1;1.044231033E1;2.620453835E0
8.359897750E0;3.419279099E1;1.619916916E1;-1.558625340E0
8.370011750E0;3.773860550E1;1.619198608E1;-6.294356346E0
8.380176750E0;3.777571487E1;1.396896935E1;-1.139999104E1
8.392641750E0;3.482366562E1;1.091516590E1;-1.415811157E1
8.409915750E0;2.610637474E1;5.796362400E0;-1.239358521E1
8.430014750E0;1.915241623E1;2.340332270E0;-7.711723804E0
8.450056750E0;1.497094345E1;5.841852427E-1;-3.604470730E0
8.469931750E0;1.091157436E1;-1.188721180E0;-2.560598612E0
8.491587750E0;6.574477673E0;-2.972401381E0;-1.643619418E0
8.510169750E0;1.442506552E0;-5.580883980E0;-5.722141862E-1
8.529919750E0;-1.689109325E0;-6.738480568E0;3.914519846E-1
8.539919750E0;-2.085349798E0;-6.694188118E0;4.548983276E-1
8.549952750E0;-2.218227863E0;-6.829460144E0;-5.434837937E-1
8.569846750E0;-3.284844637E0;-7.733271599E0;-1.467645645E0
8.579989750E0;-4.358644009E0;-8.310274124E0;-1.910573006E0
8.590077750E0;-5.645527840E0;-9.074024200E0;-2.480392933E0
8.600198750E0;-6.568492413E0;-1.015261269E1;-3.251325846E0
8.620356750E0;-6.102819920E0;-1.195544624E1;-3.349488258E0
8.639828750E0;-1.792060018E0;-1.035013390E1;-3.113659382E0
8.650140750E0;1.163581967E0;-8.935160637E0;-4.056974888E0
8.670052750E0;6.272808552E0;-7.299921036E0;-8.310274124E0
8.690002750E0;1.081820011E1;-7.386112213E0;-1.024359226E1
8.710151750E0;2.773323631E1;1.611297727E0;-1.172560310E1
8.729944750E0;3.922181320E1;1.075714779E1;-1.479616642E1
8.740199750E0;3.922181320E1;1.418923664E1;-1.244625759E1
8.759893750E0;3.102765656E1;1.164300251E1;-7.848193169E0
8.770112750E0;2.350268173E1;9.712079048E0;-6.100425720E0
8.790684750E0;1.553836918E1;7.633912086E0;-4.235342979E0
8.810044750E0;1.041956615E1;6.414066315E0;-2.564189911E0
8.830321750E0;7.208941460E0;5.606023312E0;1.881842494E0
8.840523750E0;6.010643482E0;5.430049419E0;3.460818529E0
8.859861750E0;4.454412460E0;5.542576790E0;5.750872612E0
8.869978750E0;4.225766182E0;5.847837448E0;6.484695435E0
8.890609750E0;4.305971622E0;7.586028099E0;7.171831131E0
8.909992750E0;3.081337690E0;8.582015991E0;7.133523941E0
8.930109750E0;-2.454056740E-1;8.344989777E0;6.194996834E0
8.950385750E0;-2.019509077E0;7.423222542E0;5.676652431E0
8.969840750E0;-1.697489023E0;7.064092159E0;5.216965675E0
8.979856750E0;-8.535329103E-1;6.789956093E0;4.866214752E0
8.990206750E0;1.580173075E-1;6.083666325E0;4.618414879E0
9.009856750E0;2.856282711E0;5.221754074E0;4.345476151E0
9.019881750E0;5.507861137E0;6.151901245E0;4.690241337E0
9.040075750E0;1.479257488E1;1.097861195E1;6.282385349E0
9.060055750E0;2.298194122E1;1.470877838E1;3.803189516E0
9.079989750E0;2.749740601E1;1.199614716E1;3.241749048E0
9.090000750E0;2.813187027E1;9.421183586E0;2.140416384E0
9.109902750E0;2.730587006E1;5.651513100E0;-1.838746905E0
9.130062750E0;2.034353256E1;5.506663918E-1;-8.905233383E0
9.150003750E0;1.468483639E1;-2.861071110E0;-6.724115372E0
9.160487750E0;1.268088913E1;-4.388571739E0;-5.407304764E0
9.179833750E0;9.544485092E0;-6.769605160E0;-3.925293684E0
9.189903750E0;7.873332500E0;-7.539340973E0;-3.440467834E0
9.200021750E0;6.206967831E0;-7.881711960E0;-3.155557871E0
9.220234750E0;2.462436438E0;-8.057685852E0;-3.139995575E0
9.240026750E0;-1.182735682E0;-7.681796074E0;-2.744952202E0
9.259881750E0;-3.203441858E0;-7.577648163E0;-2.267308950E0
9.279815750E0;-4.424484730E0;-8.063671112E0;-2.269703150E0
9.290175750E0;-5.310339451E0;-8.520963669E0;-2.487575531E0
9.309881750E0;-5.063736439E0;-9.028534889E0;-3.636792421E0
9.330380750E0;-8.810662031E-1;-9.275136948E0;-6.536170483E0
9.349844750E0;3.566163540E0;-8.111555099E0;-7.315483093E0
9.359852750E0;6.754043102E0;-7.139509678E0;-6.471527100E0
9.370309750E0;1.076433086E1;-5.658695698E0;-5.553350925E0
9.391212750E0;1.887947845E1;-1.206677675E0;-4.746504784E0
9.401852750E0;2.093490028E1;-8.786720037E-1;-5.218162537E0
9.419971750E0;2.441726685E1;-5.961562395E-1;-7.757213593E0
9.430530750E0;2.691082764E1;4.872200489E-1;-9.254786491E0
9.449898750E0;3.242108154E1;4.460397720E0;-8.055291176E0
9.460207750E0;3.353678131E1;6.429628849E0;-5.600037575E0
9.479907750E0;2.866577721E1;8.190564156E0;-1.070208192E0
9.490024750E0;2.437057877E1;7.808688641E0;8.511387110E-1
9.510084750E0;1.754231644E1;7.259219646E0;2.385822058E0
9.529893750E0;1.160709000E1;7.718906403E0;3.974374831E-1
9.540002750E0;9.731232643E0;7.717709064E0;5.374982953E-1
9.559900750E0;6.671442986E0;7.788338184E0;1.011550188E0
9.579823750E0;4.656722069E0;8.154650688E0;1.007958889E0
9.590650750E0;3.299209833E0;7.787140846E0;1.423352957E0
9.609935750E0;9.026140571E-1;7.311892033E0;3.319560766E0
9.630069750E0;2.741360962E-1;7.823053837E0;4.836287498E0
9.650066750E0;2.639607430E0;1.016218948E1;4.311957359E0
9.660287750E0;4.644751072E0;1.170644951E1;3.427299738E0
9.679867750E0;4.802768707E0;1.044590187E1;2.911349297E0
9.689916750E0;2.578555346E0;7.641094685E0;3.278859138E0
9.710762750E0;-3.378218651E0;1.328781992E-1;4.134786129E0
9.729900750E0;-1.464054346E0;3.974374831E-1;2.776076794E0
9.750273750E0;3.450044632E0;3.895366192E0;2.446874142E0
9.760821750E0;3.955221176E0;5.170278549E0;3.055001259E0
9.779812750E0;6.145915985E0;7.860164165E0;8.222886086E0
9.790066750E0;1.125514221E1;9.184157372E0;1.101811600E1
9.809979750E0;2.279160309E1;1.067095661E1;1.353801346E1
9.830002750E0;3.843412018E1;1.575863552E1;1.369483352E0
9.840097750E0;3.922181320E1;1.588074017E1;-3.858256102E0
9.859870750E0;3.121081352E1;1.021845245E1;-1.848323703E0
9.870003750E0;2.449148560E1;6.649895191E0;8.906430602E-1
9.890178750E0;1.533486176E1;1.680729628E0;3.390189648E0
9.909882750E0;1.208473301E1;-4.345476031E-1;2.754528999E0
9.920027750E0;8.261193275E0;-2.661155224E0;6.859387755E-1
9.940002750E0;5.293580055E0;-4.443638325E0;-9.756371975E-1
9.959928750E0;1.484405041E0;-6.725312710E0;-3.153163671E0
9.970140750E0;-4.764461517E-1;-7.539340973E0;-3.971980572E0
9.989861750E0;-3.648763418E0;-8.705317497E0;-4.813542366E0
9.999947750E0;-4.837484360E0;-9.240421295E0;-5.137956619E0
1.001012375E1;-5.955576897E0;-9.652224541E0;-6.131550789E0
1.002983275E1;-7.486668587E0;-1.009395409E1;-7.435193539E0
1.003999175E1;-7.688978672E0;-1.030584145E1;-7.835024834E0
1.005011575E1;-7.153874874E0;-1.040280628E1;-8.282740593E0
1.006988975E1;-3.758896589E0;-9.782708168E0;-8.378508568E0
1.008030475E1;-1.385045648E0;-9.293093681E0;-7.860164165E0
1.009984275E1;4.994304657E0;-7.018602371E0;-6.527791023E0
1.010993575E1;1.283531570E1;-4.071340084E0;-5.553350925E0
1.012984375E1;1.728254509E1;-2.323572636E0;-4.265270233E0
1.014037475E1;2.419340897E1;1.460463047E0;-2.062604666E0
1.016071575E1;3.922181320E1;1.208233929E1;1.869871497E0
1.017997575E1;3.922181320E1;1.538154888E1;1.412339592E1
1.019013875E1;3.921463013E1;1.414853477E1;1.620874596E1
1.020027375E1;3.428855896E1;1.324232960E1;1.525226212E1
1.022021575E1;2.212122726E1;1.091755962E1;7.217320919E0
1.023066675E1;1.715804672E1;9.780313492E0;3.263296843E0
1.024118375E1;1.244266605E1;8.568847656E0;5.063736439E-1
1.026069375E1;5.517437935E0;7.076063156E0;-1.762132406E0
1.027998575E1;2.717418909E0;7.284358501E0;-2.021903276E0
1.029118275E1;1.810016513E0;7.168240070E0;-1.783680320E-1
1.031016575E1;1.194706678E0;6.673837185E0;2.381033659E0
1.033030375E1;-5.734112859E-1;5.657498837E0;4.807557106E0
1.035010475E1;-1.549048543E0;5.218162537E0;6.351817131E0
1.037242975E1;-1.217451572E0;5.532999992E0;6.203376770E0
1.038670175E1;-2.978386879E0;4.401739597E0;4.007893562E0
1.040013575E1;-4.145560265E0;3.514688015E0;2.975992680E0
1.041994075E1;-4.987122059E0;2.165555477E0;2.517503023E0
1.043999375E1;-4.510675907E0;1.203086376E0;2.245761156E0
1.045219175E1;-3.089717388E0;1.416170359E0;8.858546019E-1
1.046992375E1;2.719813108E0;4.520252705E0;1.987187415E-1
1.047992475E1;5.402516365E0;6.807912350E0;3.926490843E-1
1.049986275E1;1.615367889E1;9.964667320E0;9.640253067E0
1.050993175E1;2.653134537E1;1.201410389E1;1.271919632E1
1.052990775E1;3.922181320E1;1.577419758E1;9.844957352E0
1.054004575E1;3.922181320E1;1.519480133E1;4.212597847E0
1.056014375E1;3.619554138E1;8.926780701E0;-2.106897593E0
1.057986375E1;2.216312599E1;2.967612982E0;-2.035071403E-1
1.058988775E1;1.806544876E1;9.277531505E-1;1.329979062E0
1.060993175E1;1.356674385E1;-7.852981687E-1;2.900575399E0
1.063023775E1;1.007480049E1;-1.751358509E0;7.864952683E-1
1.064984175E1;6.894104004E0;-2.614468336E0;-9.337386489E-1
1.065986675E1;4.966771603E0;-3.234566450E0;-1.397016644E0
1.067006875E1;3.007117271E0;-3.977966070E0;-1.795651317E0
1.069008275E1;-2.777273953E-1;-5.730521679E0;-2.298433542E0
1.070985775E1;-3.083731890E0;-7.132327080E0;-2.501940727E0
1.072984675E1;-4.774038315E0;-7.438784599E0;-4.161122322E0
1.074009275E1;-5.601234913E0;-7.708132267E0;-5.179855347E0
1.075987975E1;-6.420052052E0;-8.244433403E0;-6.932411194E0
1.077986475E1;-4.917690277E0;-7.921216488E0;-7.757213593E0
1.078994575E1;-3.442862034E0;-7.744045258E0;-7.273584843E0
1.080989975E1;1.174355984E0;-6.816292286E0;-5.509057999E0
1.083009775E1;7.068880558E0;-4.932055473E0;-4.238934040E0
1.084018775E1;1.050934792E1;-3.749319792E0;-4.675876141E0
1.085990475E1;1.469680691E1;-3.016694069E0;-4.438849926E0
1.087986975E1;2.692160034E1;4.065354347E0;-1.260547161E0
1.089001675E1;3.917272949E1;1.198657036E1;2.214636564E0
1.091089275E1;3.916195679E1;1.341830349E1;7.048529625E0
1.092985975E1;2.979224968E1;1.153406715E1;6.722918510E0
1.094999075E1;2.016157341E1;9.892841339E0;1.972822189E0
1.096991275E1;1.014542961E1;7.317877293E0;-2.030282974E0
1.098010375E1;6.070498466E0;6.574477673E0;-2.432508945E0
1.099991875E1;2.397793055E0;6.177040577E0;-1.618480325E0
1.101999075E1;2.369062662E0;6.236895561E0;1.055842996E0
1.103994975E1;1.458068848E0;5.701791286E0;4.183867455E0
1.105000575E1;8.966285586E-1;5.566518784E0;5.187037945E0
1.106999375E1;3.914519846E-1;5.893327713E0;6.275202751E0
1.108004975E1;4.920084476E-1;6.193799973E0;6.114790916E0
1.109986675E1;-2.214636505E-1;6.285976410E0;3.883395195E0
1.110990975E1;-1.215057373E0;5.670666695E0;3.157952070E0
1.111999275E1;-2.175132275E0;5.001487255E0;2.671929121E0
1.114011075E1;-2.797624588E0;4.152742863E0;2.615665436E0
1.115022375E1;-2.286462545E0;3.685873508E0;2.929305792E0
1.116029175E1;-6.943184882E-2;4.162319660E0;3.063380957E0
1.117990675E1;5.883750439E0;6.254851818E0;1.850717902E0
1.119084675E1;6.651092529E0;5.680243492E0;1.191115379E0
1.121010475E1;4.119224072E0;4.860229492E0;1.272518158E0
1.123022275E1;6.193799973E0;7.111976147E0;3.672705412E0
1.125005375E1;1.866160583E1;1.154124928E1;8.711302757E0
1.126999275E1;3.038241959E1;1.410065079E1;1.344224548E1
1.129007775E1;3.562691879E1;1.272757626E1;-1.575384736E0
1.131005475E1;2.747705650E1;9.716867447E0;-5.968744755E0
1.132007075E1;2.340810966E1;7.629123688E0;-5.245696068E0
1.133995475E1;1.710297966E1;3.642777920E0;-3.485957623E0
1.135996175E1;1.117493629E1;-3.459621370E-1;-2.020706177E0
1.137982875E1;6.017826080E0;-3.277662039E0;-2.588132143E0
1.139146175E1;4.050989151E0;-4.434061527E0;-2.747346401E0
1.140988675E1;3.830722719E-2;-6.317101002E0;-3.881000996E0
1.142000075E1;-1.838746905E0;-7.188590527E0;-4.647145271E0
1.144040975E1;-4.613626480E0;-8.605957985E0;-5.643133640E0
1.146069575E1;-5.992686749E0;-9.437943459E0;-5.367800236E0
1.147986975E1;-8.051700592E0;-1.015620327E1;-4.347870350E0
1.148998075E1;-7.824251175E0;-1.052969933E1;-3.974374771E0
1.150989375E1;-4.745307922E0;-1.075355721E1;-3.596091032E0
1.152990875E1;1.097741485E0;-8.242039680E0;-4.764461517E0
1.153999475E1;4.149151325E0;-6.605602264E0;-5.862202644E0
1.155993675E1;1.008437729E1;-3.932476282E0;-7.240066051E0
1.156997075E1;1.258990955E1;-2.419340849E0;-7.393294811E0
1.158983775E1;1.719635391E1;-7.781155705E-1;-5.877765179E0
1.159998375E1;2.439332390E1;1.772906303E0;-3.872621298E0
1.161983075E1;3.922181320E1;1.252766037E1;1.145625472E0
1.162987775E1;3.922181320E1;1.636915779E1;5.819107056E0
1.163992675E1;3.922181320E1;1.671631622E1;9.664195061E0
1.165986175E1;3.631764603E1;1.312860489E1;9.329007149E0
1.166997775E1;2.625720978E1;1.052850151E1;6.405686855E0
1.169014075E1;9.084798813E0;5.670666695E0;-2.439691544E0
1.170988375E1;5.131971359E0;5.536591530E0;-4.149151325E0
1.171997475E1;3.744531393E0;5.408501625E0;-3.682282209E0
1.173006075E1;2.673126221E0;5.278017521E0;-2.691082716E0
1.174985275E1;1.058237195E0;4.654327869E0;-1.197100878E-1
1.175993075E1;1.448491961E-1;4.355052948E0;1.197100878E0
1.177997875E1;-1.227028370E0;4.108449936E0;3.547009706E0
1.179988875E1;-3.491943121E0;2.999934673E0;5.862202644E0
1.181014775E1;-4.149151325E0;2.831143618E0;6.420052052E0
1.182988575E1;-4.236539841E0;3.336320162E0;6.773196697E0
1.183996175E1;-4.012681961E0;3.824737310E0;6.647500992E0
1.185005975E1;-3.422511339E0;4.399345398E0;6.509834290E0
1.186017475E1;-2.807201385E0;4.896142483E0;6.117185116E0
1.187983775E1;-1.167173386E0;4.814739704E0;3.805583715E0
1.189007775E1;-4.189852998E-2;4.721365929E0;2.852691412E0
1.190994675E1;1.241393566E0;4.119224072E0;9.696516991E-1
1.192996975E1;4.456806660E0;6.082469463E0;5.303156972E-1
1.194991575E1;7.346607685E0;9.991003990E0;2.197877169E0
1.196982275E1;2.016157341E1;1.456991482E1;5.212177277E0
1.197989675E1;3.070084763E1;1.761054993E1;6.572083473E0
1.198992575E1;3.839102554E1;1.957738686E1;6.902483463E0
1.200002275E1;3.922181320E1;1.872146034E1;6.530185223E0
1.202004875E1;3.850833893E1;1.306635571E1;3.855861902E0
1.203052375E1;3.414849854E1;1.022204399E1;2.348711967E0
1.204097075E1;2.844431305E1;7.582436562E0;4.285621047E-1
1.205991275E1;1.836232948E1;2.924517393E0;-2.154781580E0
1.207000875E1;1.265215874E1;4.429273009E-1;-1.953668594E0
1.209013075E1;9.908403397E0;-6.991068721E-1;-6.428431273E-1
1.210999875E1;6.119579315E0;-2.715024710E0;-1.065419763E-1
1.213006775E1;2.440888643E0;-4.794388771E0;-3.088520169E-1
1.215004575E1;7.481880188E-1;-5.748478413E0;-1.868674397E0
1.217008775E1;-1.043871999E0;-6.434417248E0;-3.555389643E0
1.219007875E1;-2.316390038E0;-7.225700855E0;-4.893748283E0
1.220051875E1;-2.924517393E0;-7.603984833E0;-5.292382717E0
1.221987075E1;-5.214571476E0;-8.492233276E0;-6.203376770E0
1.222989075E1;-6.582857609E0;-8.924386978E0;-6.501454830E0
1.223992575E1;-7.447164536E0;-9.521739960E0;-6.672640324E0
1.224997775E1;-7.825448036E0;-1.011430550E1;-6.785167694E0
1.226991775E1;-5.030217648E0;-1.013226128E1;-6.388927460E0
1.229046275E1;3.387795389E-1;-9.052476883E0;-3.900154591E0
1.231001575E1;4.012681961E0;-8.209717751E0;-2.230198860E0
1.233013275E1;1.064102936E1;-6.864176273E0;-4.791994572E0
1.235003675E1;2.239775658E1;-4.211400986E0;-6.851007938E0
1.236994575E1;3.790739441E1;1.978807688E0;-1.650802016E0
1.238931575E1;3.922181320E1;1.278623390E1;1.159511852E1
1.239987975E1;3.922181320E1;1.278623390E1;1.159511852E1
1.241001375E1;3.922181320E1;1.351287460E1;1.260666943E1
1.242997975E1;2.938762856E1;8.975862503E0;6.968324184E0
1.244004475E1;1.958816147E1;6.366182327E0;2.260126352E0
1.245990975E1;8.204929352E0;5.067327976E0;-4.325125217E0
1.247006475E1;6.366182327E0;4.540603638E0;-3.581725836E0
1.249278475E1;3.023876667E0;4.346673012E0;-1.400607973E-1
1.250987375E1;1.472434103E-1;4.434061527E0;2.358288765E0
1.252986975E1;3.591302410E-2;5.975927353E0;2.687491417E0
1.254150575E1;6.332663298E-1;7.017405033E0;2.773682594E0
1.256028075E1;4.967968464E-1;7.425616741E0;3.891774893E0
1.257984675E1;-1.197100850E-3;7.632715225E0;5.337872505E0
1.258992075E1;3.579331636E-1;7.642292023E0;6.648698330E0
1.261079775E1;1.562216640E0;8.255207062E0;9.612719536E0
1.262982375E1;3.555389643E-1;6.703764915E0;8.694543839E0
1.263983575E1;-2.298433632E-1;5.687426090E0;7.289146900E0
1.264997275E1;1.048660398E0;4.661510944E0;5.193023682E0
1.267008375E1;4.939238071E0;5.623979568E0;3.321954966E0
1.269011475E1;1.018493366E1;8.650250435E0;5.671864033E0
1.270988875E1;1.525226212E1;9.654618263E0;9.471462250E0
1.272995075E1;2.629192543E1;7.970297337E0;9.635464668E0
1.274983375E1;3.805224609E1;8.772355080E0;4.613626480E0
1.275992275E1;3.922181320E1;9.759963036E0;3.938461840E-1
1.277983975E1;3.886028671E1;7.121552944E0;-1.248576164E0
1.279042975E1;3.358825684E1;2.849100113E0;1.653196216E0
1.281005675E1;2.178603745E1;-3.224989653E0;4.844666958E0
1.282023975E1;1.901953888E1;-4.538209438E0;4.100070477E0
1.284152775E1;1.250970364E1;-6.344634533E0;2.442085743E-1
1.285990875E1;6.507440090E0;-7.582436562E0;-1.539471745E0
1.286993975E1;3.875015497E0;-8.075642586E0;-2.746149302E0
1.288994875E1;-1.951274425E-1;-8.240841866E0;-4.359841347E0
1.290000275E1;-1.622071624E0;-8.377311707E0;-4.322731018E0
1.291026775E1;-2.488772631E0;-8.346187592E0;-3.821146011E0
1.292986275E1;-3.384204149E0;-8.395268440E0;-3.015496969E0
1.293998575E1;-3.602076530E0;-8.434772491E0;-2.905363798E0
1.294999575E1;-4.012681961E0;-8.371326447E0;-2.946065187E0
1.296985375E1;-4.786009312E0;-8.567650795E0;-3.415328741E0
1.297986775E1;-5.033809185E0;-8.814253807E0;-3.886986494E0
1.299049475E1;-5.080495834E0;-9.291896820E0;-4.541800499E0
1.301000175E1;-4.206612587E0;-9.896432877E0;-5.785588264E0
1.302988975E1;-1.683123827E0;-9.379284859E0;-5.543774128E0
1.303997875E1;-1.807622313E-1;-8.678980827E0;-4.723760128E0
1.305024875E1;3.955221176E0;-7.784746647E0;-4.343081951E0
1.306991675E1;8.461109161E0;-8.036137581E0;-7.825448036E0
1.309010275E1;1.610459709E1;-6.969521046E0;-6.639121532E0
1.311004875E1;3.750516891E1;1.796848416E0;3.842693865E-1
1.312011575E1;3.922181320E1;7.852981567E0;4.663905144E0
1.313988875E1;3.922181320E1;1.400129128E1;9.995792389E0
1.315001775E1;3.922181320E1;1.353322506E1;8.505401611E0
1.316997375E1;2.618897438E1;9.913191795E0;3.475183725E0
1.318007175E1;1.874181175E1;8.254010201E0;8.475474119E-1
1.320061975E1;1.016937160E1;6.357802391E0;-2.182314873E0
1.321987075E1;6.782773495E0;6.127959251E0;-1.318008065E0
1.322995975E1;5.548562527E0;5.986701488E0;-2.765302956E-1
1.324065675E1;3.224989653E0;5.723339081E0;1.928529501E0
1.325992375E1;1.072602391E0;5.416881561E0;3.666719913E0
1.326992675E1;4.046200812E-1;5.391742229E0;4.139574528E0
1.328010775E1;-2.777273953E-1;5.409698963E0;4.550180435E0
1.329027775E1;-9.744400978E-1;5.305551052E0;4.934449673E0
1.331009875E1;-1.405396342E0;5.316324711E0;5.260061264E0
1.332999575E1;-1.413776159E0;6.149507046E0;4.299986362E0
1.334033875E1;-1.714248419E0;6.142324448E0;3.761290789E0
1.336002975E1;-2.234987259E0;5.322310448E0;3.410540342E0
1.337988375E1;-1.212663174E0;5.051765442E0;3.493140221E0
1.339274875E1;4.848258495E-1;4.383783340E0;2.421735048E0
1.341045175E1;1.528697729E0;4.320336819E0;1.576581836E0
1.342992675E1;3.108870983E0;5.486313343E0;2.513911761E-2
1.344988175E1;8.608352661E0;4.976348400E0;-1.860294700E0
1.345988475E1;1.661575890E1;6.506243229E0;2.316390038E0
1.347986275E1;3.875494385E1;1.127788734E1;1.026873112E1
1.348989575E1;3.922181320E1;1.200931549E1;9.902418137E0
1.350990975E1;3.922181320E1;5.487510204E0;-4.592078686E0
1.351999475E1;3.748242569E1;1.947683096E0;-1.024000072E1
1.353992975E1;2.424727821E1;-2.420537949E0;-8.850166321E0
1.355999475E1;1.626620674E1;-5.450400352E0;-3.205836058E0
1.357037175E1;1.291671848E1;-6.385335922E0;-1.364694953E0
1.358996675E1;7.183802128E0;-6.858190536E0;-3.926490843E-1
1.361004575E1;3.462015629E0;-6.131550789E0;-2.419340849E0
1.363033475E1;-1.431732655E0;-5.702988625E0;-3.181894064E0
1.365013875E1;-4.490325451E0;-6.308721542E0;-2.993949175E0
1.366017275E1;-5.865794182E0;-6.924031258E0;-2.949656487E0
1.368001275E1;-8.072051048E0;-7.509413719E0;-3.086126089E0
1.369063975E1;-9.149441719E0;-7.784746647E0;-3.266888142E0
1.371016975E1;-1.047104073E1;-8.567650795E0;-3.790021181E0
1.373008875E1;-9.135076523E0;-9.885659218E0;-3.696647406E0
1.374266375E1;-7.192182064E0;-1.020648193E1;-3.890577793E0
1.375552225E1;-2.282871246E0;-1.011550236E1;-5.110423565E0
1.377013775E1;1.641225219E0;-8.524555206E0;-5.835866451E0
1.378080375E1;6.434417248E0;-6.044162273E0;-6.519411087E0
1.379163675E1;1.171961689E1;-3.646369219E0;-7.952341080E0
1.381001175E1;1.934754372E1;-4.493916512E0;-1.179623222E1
1.383030375E1;2.531987953E1;-7.392097950E0;2.015917778E0
1.384084575E1;3.362416840E1;-2.944868088E0;2.539050817E0
1.386087975E1;3.922181320E1;5.986701488E0;2.807201385E0
1.387985175E1;3.922181320E1;9.908403397E0;-1.434126854E0
1.388991275E1;3.581246948E1;8.641871452E0;-2.258929253E0
1.390995075E1;2.148796082E1;5.621585369E0;-1.444900751E0
1.393000075E1;1.166095924E1;3.673902512E0;-2.916137695E0
1.394026475E1;9.096769333E0;3.776853085E0;-3.270479441E0
1.395989475E1;6.405686855E0;4.474762917E0;-3.396175146E0
1.396990675E1;5.140350819E0;4.656722069E0;-2.962824583E0
1.398018375E1;4.006696701E0;4.862623692E0;-2.013523579E0
1.399057075E1;2.977189779E0;5.278017521E0;-7.242460251E-1
1.400119275E1;1.801636815E0;5.389348030E0;1.865083098E0
1.401997475E1;-1.292868972E0;5.711368084E0;4.108449936E0
1.403013575E1;-2.005143881E0;5.919663906E0;4.910507679E0
1.404179675E1;-2.456450939E0;6.242880821E0;5.537788391E0
1.406013375E1;-2.415749550E0;7.284358501E0;5.896918774E0
1.407013675E1;-1.916558504E0;7.709329605E0;5.631162167E0
1.409026375E1;-7.026981711E-1;7.977479935E0;5.592854977E0
1.411040575E1;2.406172752E-1;7.094019413E0;4.790797710E0
1.412994875E1;1.927332401E0;5.561730385E0;3.460818529E0
1.414032275E1;3.180696964E0;4.782417774E0;2.911349297E0
1.415078775E1;4.566939831E0;4.150348663E0;2.396595955E0
1.416995175E1;5.876567841E0;4.958391666E0;3.155557871E0
1.418018675E1;9.889249802E0;6.300341606E0;5.031414986E0
1.419034275E1;1.542943287E1;6.720524311E0;6.472724438E0
1.420993275E1;3.239953613E1;8.049305916E0;9.247604370E0
1.421996875E1;3.922181320E1;5.919663906E0;6.690596581E0
1.423992575E1;3.427419281E1;8.200140595E-1;-1.334767461E0
1.425007975E1;2.952290154E1;-1.095347285E0;-3.317166567E0
1.426009075E1;2.576759529E1;-2.066195965E0;-3.780444384E0
1.427987775E1;2.175251961E1;-3.817554712E0;3.998316824E-1
1.428996975E1;1.960013199E1;-5.279214859E0;3.151966572E0
1.431002275E1;1.550724411E1;-6.927622795E0;4.413711071E0
1.433012775E1;1.106959152E1;-7.009025574E0;5.363011956E-1
1.435006075E1;6.302735806E0;-6.317101002E0;-4.473566055E0
1.436987475E1;6.572083831E-1;-7.255628109E0;-5.543774128E0
1.439133675E1;-3.824737310E0;-8.402450562E0;-5.117606163E0
1.440997075E1;-6.527791023E0;-9.036913872E0;-5.839457989E0
1.442994275E1;-7.718906403E0;-9.348160744E0;-6.272808552E0
1.444040275E1;-7.826645374E0;-9.579200745E0;-6.418854713E0
1.446026275E1;-6.965929985E0;-1.032738876E1;-6.252457619E0
1.448016175E1;-3.590105534E0;-1.011430550E1;-4.769249916E0
1.449071075E1;-1.665167332E0;-9.704896927E0;-3.971980572E0
1.450986375E1;1.950077295E0;-9.222464561E0;-2.256535053E0
1.452989275E1;1.004247856E1;-6.262034416E0;-1.711854219E0
1.454992475E1;1.692939949E1;-4.880579948E0;-4.793191910E0
1.456984375E1;2.212960625E1;-4.133589268E0;-3.406949043E0
1.457985375E1;2.827672005E1;-1.054645896E0;-2.646790028E0
1.458996375E1;3.521272278E1;2.462436438E0;-8.319851160E-1
1.460991275E1;3.922181320E1;1.102888966E1;7.256825447E0
1.463003575E1;3.215412903E1;8.494627953E0;4.762067318E0
1.464009975E1;2.504933548E1;6.912060261E0;2.512714624E0
1.465984775E1;1.481532001E1;5.020640850E0;-1.304839969E0
1.467021275E1;1.185010147E1;4.656722069E0;-2.352303267E0
1.468996775E1;8.051700592E0;4.563348293E0;-2.572569609E0
1.470986975E1;5.135562420E0;4.538209438E0;-4.141969085E-1
1.471989875E1;3.776853085E0;4.374206543E0;8.822633028E-1
1.472998875E1;2.561795712E0;4.333505154E0;1.968033791E0
1.475007075E1;6.105214357E-1;4.505887508E0;3.028665066E0
1.477003075E1;-7.697358727E-1;4.997896194E0;3.484760523E0
1.478999875E1;-1.874659896E0;5.353435040E0;4.191050053E0
1.480005275E1;-2.158372879E0;5.519832134E0;4.405331135E0
1.481995775E1;-1.738190413E0;5.978321552E0;4.047398090E0
1.483991275E1;-9.277531505E-1;5.801150799E0;4.322731018E0
1.485017375E1;-7.972691655E-1;5.299565315E0;4.550180435E0
1.486991675E1;-1.879448295E-1;4.277241230E0;4.404133797E0
1.487993675E1;7.577648163E-1;3.745728493E0;3.405751944E0
1.489063375E1;2.037465572E0;3.452438831E0;2.473210335E0
1.491011875E1;5.940014362E0;4.072536945E0;3.007117271E0
1.492984775E1;1.397256088E1;3.203441858E0;8.265981674E0
1.494007175E1;2.521932411E1;4.632780075E0;1.142393303E1
1.495991975E1;3.922181320E1;9.084798813E0;1.202009010E1
1.497006275E1;3.922181320E1;9.731232643E0;1.202846909E1
1.498013275E1;3.922181320E1;7.688978672E0;9.944316864E0
1.500000175E1;2.784576225E1;1.074996591E0;-3.253720045E0
1.501003975E1;2.282272720E1;1.675941199E-1;-4.897339344E0
1.502025375E1;1.951394081E1;-6.464344859E-1;-4.430470467E0
1.503991175E1;1.374870300E1;-2.998737574E0;-1.136048675E0
1.504995675E1;1.010472870E1;-4.398148537E0;-5.458779931E-1
1.507019675E1;5.403713226E0;-5.855020046E0;-1.116895080E0
1.509021075E1;2.437297344E0;-6.193799973E0;-2.260126352E0
1.511022975E1;-1.203086376E0;-7.109581947E0;-4.780023575E0
1.513007975E1;-3.900154591E0;-8.459911346E0;-5.704185486E0
1.514024475E1;-4.708197594E0;-8.741230011E0;-5.494692802E0
1.515997375E1;-6.501454830E0;-9.253589630E0;-5.761646271E0
1.517986075E1;-7.928399086E0;-9.736021042E0;-6.805518150E0
1.518997775E1;-8.331821442E0;-9.988609314E0;-7.435193539E0
1.520990675E1;-6.175843239E0;-1.033217716E1;-6.752845764E0
1.522983575E1;-1.748964310E0;-9.159018517E0;-4.558559895E0
1.523995875E1;6.991068721E-1;-8.555679321E0;-2.893392801E0
1.525984375E1;4.508281708E0;-7.593210697E0;-7.697358727E-1
1.527982075E1;1.018493366E1;-7.806294441E0;-2.765302896E0
1.529068675E1;1.148857689E1;-8.542511940E0;-4.159925461E0
1.530992975E1;2.145683479E1;-5.935225964E0;-1.697489023E0
1.533074675E1;3.921463013E1;3.562572241E0;3.071760893E0
1.535002775E1;3.922181320E1;8.297105789E0;9.811438560E0
1.536986975E1;3.843052673E1;8.662221909E0;5.573701382E0
1.539621675E1;1.759498787E1;4.622006416E0;1.832761407E0
1.540999275E1;1.020528507E1;3.493140221E0;1.156399369E0
1.543018675E1;7.556100368E0;4.431667328E0;3.806780577E-1
1.544020775E1;7.017405033E0;4.928464413E0;5.470750928E-1
1.546034375E1;5.602431774E0;5.082890034E0;2.223016262E0
1.547981675E1;3.472789526E0;5.070919037E0;3.677493811E0
1.548990375E1;2.308010340E0;5.274426460E0;3.902548790E0
1.551028675E1;-2.094926536E-1;5.406107426E0;4.264073372E0
1.552993875E1;-1.962048292E0;5.922058105E0;4.279635429E0
1.554004175E1;-2.509123325E0;6.008249283E0;4.347870350E0
1.555989575E1;-3.591302633E0;5.756857872E0;3.756502390E0
1.557990875E1;-3.997119665E0;5.485116005E0;2.110488892E0
1.559063975E1;-3.217807055E0;4.844666958E0;1.365892053E0
1.560991675E1;-1.061828494E0;4.398148537E0;8.643068075E-1
1.562019375E1;9.373299479E-1;4.836287498E0;7.362170219E-1
1.564031275E1;2.687491417E0;5.249287128E0;2.880224705E0
1.565999775E1;4.704606533E0;7.186196327E0;4.436455727E0
1.567001575E1;8.608352661E0;6.980295181E0;5.091269970E0
1.568009275E1;1.917037392E1;8.446743965E0;6.001066685E0
1.569014875E1;3.209786606E1;1.083136845E1;6.088454723E0
1.571004275E1;3.922181320E1;1.227626896E1;1.140238571E1
1.573061175E1;3.922181320E1;8.494627953E0;1.631409073E1
1.574992775E1;3.552875519E1;1.244984865E-1;1.302086639E1
1.576034275E1;2.735734558E1;-3.292027235E0;1.060391903E1
1.577983275E1;1.540429401E1;-6.748057365E0;3.558980942E0
1.579013475E1;8.821435928E0;-7.491456985E0;1.400607944E0
1.580988675E1;3.426102638E0;-7.765593052E0;-3.948038578E0
1.582993675E1;-9.002198577E-1;-8.566453934E0;-7.467514992E0
1.584988575E1;-3.564966440E0;-8.761581421E0;-6.947973251E0
1.585989375E1;-4.412513733E0;-9.048885345E0;-5.147533417E0
1.587003175E1;-5.322310448E0;-9.397241592E0;-3.652354717E0
1.588005275E1;-5.849034786E0;-9.648633003E0;-2.758120298E0
1.589013975E1;-6.252457619E0;-9.707290649E0;-2.476801634E0
1.590989075E1;-6.852205276E0;-1.064222622E1;-3.620033026E0
1.592997675E1;-6.428431511E0;-1.173517990E1;-6.406883717E0
1.594979675E1;-8.463503122E-1;-1.025675964E1;-6.744466305E0
1.595988075E1;2.650381327E0;-9.046490669E0;-5.932831764E0
1.596995675E1;6.035782337E0;-7.794323444E0;-5.207388878E0
1.599024275E1;1.455315495E1;-5.845443249E0;-4.625597477E0
1.601033075E1;2.160407829E1;-4.343081951E0;-1.686715126E0
1.602989375E1;3.435679626E1;1.666364431E0;1.553836942E0
1.604075275E1;3.882317734E1;5.643133640E0;1.495178938E0
1.605989675E1;3.656784058E1;8.285135269E0;1.443703651E0
1.607983875E1;2.484103966E1;6.830657482E0;-2.592920542E0
1.609109775E1;1.906622505E1;6.001066685E0;-4.179079056E0
1.610994775E1;1.312381649E1;5.856217384E0;-4.195838451E0
1.613001875E1;9.992200851E0;6.161478043E0;-1.112106681E0
1.614009775E1;8.016983986E0;6.142324448E0;3.758896589E-1
1.615986275E1;4.736927986E0;6.763619900E0;2.343923569E0
1.617009075E1;3.473986626E0;7.007828236E0;2.551021814E0
1.619006075E1;-1.352723986E-1;6.494272232E0;3.417722940E0
1.621020575E1;-1.321599364E0;6.963535786E0;3.479972124E0
1.623001275E1;-2.734178305E0;7.574057102E0;3.217807055E0
1.625038775E1;-2.736572504E0;8.282740593E0;3.020285368E0
1.627004175E1;-1.929726601E0;7.920019150E0;3.754108191E0
1.628993675E1;-1.747767210E0;6.465541840E0;4.411316395E0
1.631007575E1;8.990227580E-1;5.901707172E0;5.528211594E0
1.632017875E1;3.093308687E0;6.931213856E0;6.428431511E0
1.633995975E1;5.714959621E0;8.610746384E0;8.605957985E0
1.635982275E1;1.599805546E1;7.546523571E0;1.191953278E1
1.636995775E1;3.747164917E1;1.249414158E1;1.113543224E1
1.638994175E1;3.922181320E1;1.368046856E1;6.131550789E0
1.640018775E1;3.922181320E1;1.009754562E1;3.083731890E0
1.641409975E1;3.812406921E1;6.312312603E0;1.231816769E0
1.642990175E1;2.706405640E1;-3.268085420E-1;2.643198729E0
1.644053375E1;2.286582375E1;-2.639607430E0;4.141968727E0
1.646023275E1;1.590707588E1;-5.877765179E0;5.062539577E0
1.647987275E1;1.006402683E1;-7.562086105E0;1.332373261E0
1.649026375E1;7.620744228E0;-7.752425194E0;-1.661576033E0
1.650990075E1;2.348711967E0;-7.902062893E0;-6.619967937E0
1.652986575E1;-2.422932148E0;-8.913613319E0;-8.586804390E0
1.653991375E1;-3.699041605E0;-9.380482674E0;-7.778761387E0
1.655987175E1;-5.280411720E0;-9.495404243E0;-5.635950565E0
1.657001075E1;-7.096413612E0;-9.904812813E0;-4.581305027E0
1.658006175E1;-7.498639584E0;-1.001614285E1;-4.349067211E0
1.659985975E1;-6.408081055E0;-9.483432770E0;-4.459200859E0
1.661991075E1;-3.155557871E0;-8.672995567E0;-5.444414616E0
1.662994175E1;-8.212111592E-1;-7.922413349E0;-5.846640587E0
1.665010975E1;3.319560766E0;-6.557718277E0;-5.979518890E0
1.666991175E1;6.230909824E0;-5.886145115E0;-5.352237701E0
1.668990175E1;1.069370174E1;-5.270834923E0;-5.488707542E0
1.670000875E1;1.274672985E1;-5.608417511E0;-6.007051945E0
1.671992875E1;1.342189503E1;-7.661445618E0;-7.109581947E0
1.673999975E1;2.751177216E1;-2.707842112E0;-5.768828869E0
1.675988775E1;3.922181320E1;8.346187592E0;1.289517021E1
1.677994775E1;3.907696152E1;9.081207275E0;1.283890629E1
1.679000475E1;3.359543991E1;7.984662533E0;1.009874249E1
1.681095775E1;1.615607262E1;4.219780445E0;1.996764183E0
1.683002975E1;6.430825710E0;2.973598480E0;-3.773261786E0
1.685022675E1;3.035847664E0;3.612850428E0;-3.293224335E0
1.687003575E1;1.962048292E0;4.447229862E0;1.346738458E0
1.688031275E1;1.022324085E0;4.752490520E0;3.069366693E0
1.689987475E1;-1.790862918E0;4.624400616E0;4.458003521E0
1.690996775E1;-3.556586742E0;4.462791920E0;4.497508049E0
1.692002075E1;-5.000290394E0;4.484339714E0;4.364629745E0
1.694061675E1;-6.282385349E0;4.775235176E0;4.149151325E0
1.696380175E1;-6.051344872E0;4.958391666E0;2.677914619E0
1.697990475E1;-3.566163540E0;5.717353821E0;2.831143618E0
1.699005375E1;-2.221819162E0;5.756857872E0;3.509899616E0
1.700986675E1;5.901707411E-1;5.461174011E0;4.141968727E0
1.701988975E1;2.006340981E0;5.328295708E0;4.232948780E0
1.704047875E1;8.828619003E0;7.190984726E0;5.421669960E0
1.706007175E1;2.032557487E1;1.225232697E1;7.208941460E0
1.707987875E1;2.711194038E1;1.261624622E1;5.085284233E0
1.708995175E1;2.972880173E1;1.080503273E1;5.080495834E0
1.710024775E1;3.396294785E1;9.528923035E0;6.194996834E0
1.712012675E1;3.922181320E1;7.946355343E0;8.735244751E0
1.714128775E1;3.624581909E1;-2.585737705E-1;4.560954094E0
1.715984275E1;2.479315567E1;-4.769249916E0;5.147533417E-1
1.717996175E1;1.817318726E1;-5.810727596E0;-1.271321058E0
1.719094275E1;1.654632759E1;-6.202179432E0;-8.463503122E-1
1.720998075E1;1.189678860E1;-7.970297337E0;8.116343617E-1
1.722983675E1;5.657498837E0;-9.459490776E0;-4.285621047E-1
1.723986175E1;2.325966835E0;-9.852140427E0;-2.302024841E0
1.725019075E1;-1.006761789E0;-1.032978344E1;-4.266467571E0
1.727053275E1;-6.147112846E0;-1.097023201E1;-6.398504257E0
1.729033875E1;-8.337807655E0;-1.118570995E1;-6.669048786E0
1.731022075E1;-8.597578049E0;-1.070088482E1;-6.337451935E0
1.732048875E1;-8.503006935E0;-1.054286766E1;-6.317101002E0
1.733994675E1;-8.313865662E0;-1.034893703E1;-6.716932774E0
1.735050775E1;-5.682637691E0;-9.695320129E0;-6.945579052E0
1.737000075E1;-1.705868721E0;-9.085995674E0;-7.588422298E0
1.739164675E1;3.707421303E0;-7.734468460E0;-6.685808182E0
1.741055975E1;9.352949142E0;-6.558915615E0;-4.928464413E0
1.742992575E1;1.675342560E1;-6.155492783E0;-2.579752445E0
1.744992975E1;2.157056046E1;-7.043741226E0;-4.070143029E-2
1.746035875E1;2.660437012E1;-5.448006153E0;1.453280449E0
1.747486275E1;3.391386795E1;-1.843535304E0;3.754108191E0
1.749053175E1;3.922181320E1;4.608838081E0;1.399650288E1
1.750985175E1;3.922181320E1;9.163806915E0;1.864125443E1
1.752984975E1;2.763986206E1;7.874529362E0;1.297537613E1
1.753992775E1;2.170343781E1;7.688978672E0;4.808753967E0
1.755992175E1;1.133055973E1;7.884106159E0;1.022324085E0
1.756992975E1;9.003395081E0;7.698555470E0;7.505822182E-1
1.759033175E1;5.396530628E0;7.150283337E0;1.298854470E0
1.761074275E1;2.517503023E0;6.429628849E0;1.674744129E0
1.762998375E1;-5.303156972E-1;5.735310078E0;1.499967337E0
1.764066875E1;-2.118868589E0;5.142745018E0;9.684545994E-1
1.765991275E1;-4.015076160E0;3.855861902E0;3.016694188E-1
1.767980575E1;-4.596867085E0;3.359065056E0;1.101332754E-1
1.769040175E1;-4.260481834E0;3.611653328E0;-4.572925270E-1
1.770989275E1;-3.298012733E0;4.960785866E0;-3.208230257E0
1.772982575E1;-3.039438963E0;5.572504520E0;-5.474342346E0
1.773983275E1;-2.970007181E0;4.559757233E0;-4.175487995E0
1.775002975E1;-2.568978310E0;3.819948912E0;-2.597708941E0
1.776056975E1;-1.410184860E0;3.090914488E0;-6.631938815E-1
1.778012575E1;2.467224836E0;2.067393064E0;3.743334293E0
1.779020375E1;5.710171223E0;3.019088268E0;5.907692909E0
1.781089175E1;1.580891418E1;5.811924458E0;9.403226852E0
1.783001075E1;3.287598038E1;7.145494938E0;1.296220779E1
1.784100175E1;3.897880173E1;8.040925980E0;1.453160763E1
1.785991575E1;3.922181320E1;8.857349396E0;1.239478207E1
1.787003075E1;3.922181320E1;6.994660378E0;9.133879662E0
1.788989175E1;3.032974625E1;1.879448295E0;2.913743496E0
1.791008975E1;2.107376289E1;-5.961562395E-1;-5.243301988E-1
1.792985275E1;1.752675438E1;-1.555034041E0;-2.908954918E-1
1.793985875E1;1.500087070E1;-2.365471363E0;-3.974374831E-1
1.795021475E1;1.338478470E1;-2.770091295E0;-1.046266198E0
1.796979875E1;7.891288757E0;-4.533421040E0;-3.172317266E0
1.797981275E1;4.648342609E0;-5.401319027E0;-4.252102375E0
1.798999775E1;1.596932530E0;-6.101623058E0;-4.929661274E0
1.800994175E1;-3.104082584E0;-7.600393295E0;-5.932831764E0
1.803002875E1;-5.455188751E0;-8.674192429E0;-5.732915878E0
1.804023775E1;-5.863399982E0;-8.647856712E0;-5.322310448E0
1.805981075E1;-6.416460514E0;-8.772355080E0;-4.411316395E0
1.806997975E1;-6.617573261E0;-8.789113998E0;-4.073734283E0
1.809004975E1;-6.251260757E0;-9.160215378E0;-4.288015366E0
1.811006275E1;-4.631583214E0;-9.297882080E0;-5.424064159E0
1.812992475E1;1.915361285E-1;-8.822632790E0;-5.159504890E0
1.813998575E1;2.472013235E0;-8.465897560E0;-4.428076267E0
1.815014675E1;5.189432144E0;-7.770381451E0;-3.903745890E0
1.817010475E1;1.182376480E1;-5.185841084E0;-3.991134167E0
1.818996575E1;1.667681122E1;-4.303577423E0;-5.820304394E0
1.819998775E1;1.868554688E1;-4.147954464E0;-5.123591423E0
1.821021175E1;2.183392334E1;-2.539050817E0;-4.495113850E0
1.823011675E1;3.367923355E1;3.234566450E0;-2.322375536E0
1.824037375E1;3.886148453E1;6.593631268E0;4.393360019E-1
1.825998775E1;3.922181320E1;1.033098030E1;3.618835926E0
1.827994275E1;3.091034126E1;7.556100368E0;3.819948912E0
1.829108475E1;2.406771278E1;6.138733387E0;2.816778183E0
1.831002075E1;1.395460415E1;4.681861401E0;-1.268926859E0
1.832983375E1;5.379771233E0;4.531026840E0;-2.958036184E0
1.833990275E1;4.083311081E0;4.748898983E0;-1.262941360E0
1.835987275E1;1.885433793E0;4.794388771E0;3.175908566E0
1.836997475E1;6.488286853E-1;4.760869980E0;4.890156746E0
1.838015475E1;-5.734112859E-1;4.801571369E0;6.173449039E0
1.839376875E1;-1.814804912E0;4.920084476E0;6.964732647E0
1.841004275E1;-4.006696701E0;4.878185749E0;7.529764175E0
1.842994775E1;-5.397727966E0;5.098452568E0;7.498639584E0
1.844009975E1;-6.022614479E0;5.038597584E0;7.184999466E0
1.845014075E1;-6.378153324E0;4.880579948E0;6.771999359E0
1.846993075E1;-6.630741596E0;3.994725466E0;6.361393929E0
1.848985175E1;-5.507861137E0;3.129221678E0;6.613982201E0
1.851032875E1;-2.712630510E0;2.511517525E0;5.549759388E0
1.853000175E1;1.007360363E1;7.240066051E0;5.738901615E0
1.854079175E1;1.512177753E1;9.573215485E0;6.788758755E0
1.855981375E1;2.361401176E1;1.061229897E1;9.728838921E0
1.856986275E1;2.877112198E1;1.002093124E1;1.051772785E1
1.858993075E1;3.911407471E1;9.747992516E0;1.019451046E1
1.859997875E1;3.922181320E1;9.927556992E0;7.319074631E0
1.860998475E1;3.922181320E1;9.828198433E0;4.028244495E0
1.862073975E1;3.922181320E1;8.147468567E0;1.361103654E0
1.863990675E1;3.484281921E1;1.515529633E0;7.170634270E-1
1.865988675E1;2.123896408E1;-4.027047157E0;-6.105214357E-2
1.867982675E1;1.460463047E1;-4.918887615E0;-1.745373011E0
1.869005875E1;1.258990955E1;-5.009867191E0;-1.811213613E0
1.870017875E1;1.047223854E1;-5.549759388E0;-1.434126854E0
1.871979275E1;3.508702517E0;-6.913257599E0;-1.861491799E0
1.873024375E1;7.912836671E-1;-7.625532627E0;-2.772485495E0
1.875003775E1;-4.850652695E0;-9.794678688E0;-5.159504890E0
1.876006375E1;-6.636727333E0;-1.039801788E1;-5.335478306E0
1.877010975E1;-7.596801758E0;-1.078707600E1;-4.797980309E0
1.879132075E1;-9.548076630E0;-1.114381218E1;-4.131195068E0
1.880987375E1;-1.054885292E1;-1.167293072E1;-6.076483727E0
1.881988375E1;-1.030823517E1;-1.183453941E1;-7.011419773E0
1.884004975E1;-7.631517887E0;-1.192910957E1;-7.821856976E0
1.885990275E1;-1.770512104E0;-1.045308495E1;-7.181407928E0
1.887987175E1;4.127603531E0;-9.081207275E0;-5.001487255E0
1.888988875E1;6.145915985E0;-8.538920403E0;-3.973177671E0
1.890000275E1;8.627506256E0;-7.943961143E0;-3.292027235E0
1.891983675E1;2.012446213E1;-4.712985992E0;-2.032677174E0
1.892983675E1;2.415270615E1;-3.493140221E0;-6.428431273E-1
1.894188975E1;2.978746033E1;-5.698199868E-1;-2.310404629E-1
1.895992575E1;3.904943085E1;6.307524204E0;-1.936909199E0
1.897984075E1;3.922181320E1;9.012971878E0;7.613561153E-1
1.899003675E1;3.920864487E1;1.054286766E1;2.012326479E0
1.900988175E1;3.325426483E1;1.107078838E1;2.871845007E0
1.901996575E1;2.806243896E1;1.029746151E1;2.706645012E0
1.904005175E1;1.756506157E1;7.728483200E0;1.776497602E0
1.905988175E1;9.515754700E0;5.998672485E0;5.147533417E-1
1.906988575E1;6.610390663E0;5.307945251E0;5.434837937E-1
1.908997775E1;2.779668093E0;4.554968834E0;3.034650564E0
1.910991275E1;4.955997467E-1;4.791994572E0;9.034520149E0
1.912001975E1;-1.125274822E-1;4.984727859E0;1.035971069E1
1.913985975E1;-1.905784607E0;5.044582844E0;1.105881786E1
1.915000875E1;-2.638410330E0;5.006275654E0;9.877279282E0
1.916018875E1;-3.203441858E0;5.031414986E0;8.395268440E0
1.918025175E1;-4.094084740E0;5.025429249E0;5.072116375E0
1.919988275E1;-5.245696068E0;4.529829502E0;2.212242365E0
1.920993775E1;-5.284003258E0;4.371812344E0;1.727416515E0
1.921997175E1;-5.085284233E0;3.848679304E0;2.043451071E0
1.923997175E1;-3.482366323E0;3.029862165E0;3.445256233E0
1.924997875E1;-1.250970364E0;3.252522945E0;3.767276287E0
1.926985375E1;6.356605530E0;6.154295444E0;2.560598612E0
1.927985775E1;1.088404083E1;9.311050415E0;1.022324085E0
1.929035375E1;1.390791798E1;1.052371311E1;4.608838260E-1
1.930997075E1;3.138798523E1;1.238281155E1;1.005205631E1
1.933011475E1;3.922181320E1;1.501403904E1;9.698910713E0
1.935001375E1;3.922181320E1;1.043273354E1;-1.004367590E0
1.936979775E1;3.431010818E1;3.320757866E0;-1.072602391E0
1.937980775E1;2.805884743E1;4.429273009E-1;-7.422025502E-2
1.939162575E1;2.331713104E1;-1.729810715E0;2.549824715E-1
1.940186875E1;1.957619095E1;-3.136404276E0;-7.936778665E-1
1.941990875E1;1.317050362E1;-5.292382717E0;-3.290830135E0
1.942996975E1;1.009994030E1;-6.036979675E0;-3.855861902E0
1.944995775E1;3.341108561E0;-7.949946880E0;-5.452794552E0
1.946011875E1;2.370259613E-1;-9.057265282E0;-6.069301128E0
1.948001175E1;-4.560954094E0;-1.111747551E1;-6.096834660E0
1.949987475E1;-9.314641953E0;-1.290833855E1;-5.216965675E0
1.951982775E1;-9.543288231E0;-1.278862858E1;-4.912901878E0
1.952989375E1;-8.724471092E0;-1.211466026E1;-5.644330502E0
1.954993275E1;-6.634333134E0;-1.103726959E1;-7.480683327E0
1.956995275E1;-3.027467966E0;-1.026992798E1;-7.766790390E0
1.959010875E1;2.351106167E0;-8.315062523E0;-6.665457726E0
1.961028675E1;8.291120529E0;-5.980715752E0;-5.821501255E0
1.963000475E1;1.526782417E1;-3.202244759E0;-5.307945251E0
1.964991075E1;2.026691818E1;-1.370680451E0;-2.838326216E0
1.966991875E1;3.408385468E1;7.140706539E0;1.065419793E0
1.968997575E1;3.922181320E1;1.532887650E1;3.456030130E0
1.970002575E1;3.805104828E1;1.521036339E1;8.329427719E0
1.971004575E1;3.362536621E1;1.474588871E1;9.290699959E0
1.972998775E1;2.430114746E1;1.273236465E1;6.300341606E0
1.974014575E1;1.959414673E1;1.139400578E1;3.269282341E0
1.976001375E1;1.098818874E1;8.570044518E0;-6.057330370E-1
1.977002175E1;7.700949669E0;7.583633900E0;-1.345541358E0
1.979026175E1;3.671508312E0;6.451176643E0;-6.991068721E-1
1.981000075E1;3.866635859E-1;4.765658379E0;1.623268723E0
1.982041375E1;-1.297657371E0;3.975571871E0;3.143586874E0
1.984009275E1;-3.004723072E0;3.028665066E0;5.436035156E0
1.985010975E1;-1.661576033E0;3.713406801E0;6.174646378E0
1.986991275E1;2.267308950E0;6.782773495E0;5.814318657E0
1.989033075E1;-3.398569345E0;4.012681961E0;2.643198729E0
1.990992675E1;-5.995080948E0;2.448071241E0;2.609679937E0
1.993026875E1;-5.316324711E0;2.656366825E0;2.705447912E0
1.995117875E1;-8.355764151E-1;4.077325344E0;4.672284603E0
1.996995575E1;3.250128746E0;5.154716492E0;4.829104900E0
1.998994375E1;1.604115129E0;3.708618402E0;4.258087635E0
2.000004475E1;2.000355482E0;4.799177170E0;4.698620796E0
2.001985575E1;6.979097843E0;8.748413086E0;6.199785233E0
2.002985775E1;9.880870819E0;9.325415611E0;6.981492043E0
2.004003275E1;1.607945824E1;1.019091988E1;8.564059258E0
2.005996275E1;3.077387238E1;1.420479870E1;9.690531731E0
2.006996375E1;3.654868698E1;1.596214294E1;5.486313343E0
2.008024875E1;3.846763992E1;1.608544350E1;-1.182735682E0
2.009987575E1;2.676956940E1;9.042900085E0;4.189852998E-2
2.011982775E1;1.965759277E1;4.831499100E0;3.100491166E-1
2.012992275E1;1.663850403E1;3.096899986E0;2.585737705E-1
2.014113075E1;1.373553562E1;1.392228246E0;1.340752989E-1
2.015993075E1;7.837419033E0;-1.649604917E0;-1.867477298E0
2.017998775E1;4.346673012E0;-3.718195200E0;-4.344278812E0
2.019989075E1;6.835445762E-1;-5.975927353E0;-5.548562527E0
2.021005375E1;-1.515529633E0;-7.024587631E0;-5.981913090E0
2.022985475E1;-4.071340084E0;-8.186972618E0;-5.635950565E0
2.023985575E1;-4.862623692E0;-8.505401611E0;-5.346252441E0
2.024996275E1;-5.464765549E0;-8.668207169E0;-5.306747913E0
2.026987975E1;-5.604825974E0;-8.513781548E0;-6.633135796E0
2.029012375E1;-3.468001127E0;-8.354566574E0;-8.252813339E0
2.031006875E1;-4.489128292E-1;-8.313865662E0;-5.509057999E0
2.032990675E1;3.470395327E0;-7.102399349E0;-2.327163935E0
2.034001575E1;6.301538944E0;-5.811924458E0;-1.751358509E0
2.036036475E1;1.341590881E1;-3.491943121E0;-3.817554712E0
2.037988875E1;2.475125694E1;2.408566952E0;-2.998737574E0
2.039004775E1;3.307230377E1;6.927622795E0;-1.565807939E0
2.041014175E1;3.922181320E1;1.328542519E1;1.956062794E0
2.042060875E1;3.922181320E1;1.395221043E1;5.740098476E0
2.043991975E1;3.922181320E1;1.444541550E1;1.220204926E1
2.045015275E1;3.637750244E1;1.330817032E1;1.187045193E1
2.047054875E1;1.371398735E1;5.937620163E0;-1.620874524E0
2.049060775E1;5.374982834E0;4.733336926E0;-5.194220543E0
2.050994475E1;1.393425345E0;4.644751072E0;-4.903325081E0
2.052991575E1;1.807622313E-1;4.619612217E0;-2.181117773E0
2.054041275E1;-1.723825186E-1;4.620809078E0;-4.417302012E-1
2.056007675E1;-1.784877419E0;3.895366192E0;3.417722940E0
2.057986975E1;-3.500322819E0;3.235763550E0;6.165069580E0
2.058993975E1;-4.176684856E0;3.081337690E0;6.433219910E0
2.061003275E1;-5.069722176E0;3.215412855E0;5.681440830E0
2.062984875E1;-5.081693172E0;3.639186621E0;4.720168591E0
2.063985775E1;-5.170278549E0;3.676296711E0;4.345476151E0
2.064995675E1;-5.169081688E0;3.551798105E0;3.964797974E0
2.066020375E1;-4.721365929E0;3.403357744E0;3.682282209E0
2.067988475E1;-3.711012751E-2;3.840299606E0;2.881421804E0
2.069036275E1;2.406172752E0;4.027047157E0;2.473210335E0
2.070999075E1;7.619546890E0;6.074089527E0;2.549824715E0
2.073028275E1;1.618839455E1;1.049139214E1;5.731719017E0
2.075011175E1;2.006819916E1;1.344703388E1;3.246537447E0
2.076990675E1;2.196320915E1;1.039442635E1;2.633621931E0
2.079017075E1;3.208230209E1;1.056321812E1;4.082113743E0
2.080983075E1;3.922181320E1;1.196023464E1;2.118868530E-1
2.082017175E1;3.906738663E1;1.058716011E1;-2.849100113E0
2.083030175E1;3.501998901E1;8.003816605E0;-4.637568474E0
2.085009475E1;2.411439896E1;2.421735048E0;-3.610456228E0
2.086992375E1;1.536359215E1;-2.185906172E0;1.065419793E0
2.087996975E1;1.175912189E1;-3.642777920E0;1.369483352E0
2.089003775E1;8.220491409E0;-5.116408825E0;9.002198577E-1
2.091009675E1;1.950077295E0;-7.654263020E0;-1.806425214E0
2.093020575E1;-4.054580688E0;-9.780313492E0;-4.210203648E0
2.094995775E1;-8.494627953E0;-1.173158836E1;-5.218162537E0
2.096980475E1;-1.033337498E1;-1.279700851E1;-5.171475887E0
2.097986975E1;-1.064821243E1;-1.322556973E1;-5.250484467E0
2.099084375E1;-1.043991661E1;-1.333570385E1;-5.582081318E0
2.100985375E1;-7.781155586E0;-1.267011547E1;-6.090848923E0
2.102998975E1;-2.012326479E0;-1.057638645E1;-5.973533154E0
2.104985775E1;3.246537447E0;-8.222886086E0;-5.904101372E0
2.105986475E1;4.204218388E0;-7.917624950E0;-5.826289654E0
2.106991575E1;7.581239700E0;-6.906075001E0;-5.057751179E0
2.109005375E1;1.401924801E1;-5.698200226E0;-5.169081688E0
2.110985975E1;2.244923210E1;-3.464409828E0;-3.532644510E0
2.111991675E1;2.927390480E1;-1.197100850E-3;-2.647987127E0
2.113003375E1;3.706224060E1;4.156333923E0;-3.025073767E0
2.114018375E1;3.922181320E1;7.756016254E0;-1.710657120E0
2.115990375E1;3.922181320E1;1.151132202E1;3.958812475E0
2.117984375E1;3.883275604E1;1.220444298E1;6.904877663E0
2.119066475E1;3.307469940E1;1.127070427E1;6.001066685E0
2.121079775E1;1.747647476E1;7.026981831E0;-3.711012751E-2
2.122998375E1;8.804677010E0;5.346252441E0;-1.733402014E0
2.124003375E1;6.823474884E0;5.481524944E0;-6.679822803E-1
2.125992975E1;3.587711334E0;5.910087109E0;4.430470467E0
2.126996675E1;3.236960649E0;6.507440090E0;5.390544891E0
2.128031375E1;2.990357876E0;7.117961884E0;5.839457989E0
2.129989475E1;1.083376288E0;7.198167324E0;6.517016888E0
2.130991175E1;-1.544260085E-1;6.798335552E0;6.647500992E0
2.131996275E1;-1.159990668E0;6.500257492E0;6.603208065E0
2.132999175E1;-2.032677174E0;6.033388138E0;6.311115742E0
2.135000175E1;-3.368641853E0;5.054159641E0;5.040991783E0
2.136983475E1;-4.011485100E0;4.095282078E0;4.225766182E0
2.137992575E1;-3.813963413E0;3.879803896E0;3.746925592E0
2.139986075E1;-2.713827610E0;3.610456228E0;2.585737944E0
2.141120625E1;1.671152830E0;3.733757496E0;1.590947032E0
2.143022288E1;4.209006786E0;4.294000626E0;1.252167463E0
2.144998303E1;1.169328117E1;8.396465302E0;4.952406406E0
2.146000839E1;1.354399872E1;8.561665535E0;5.251681328E0
2.148047691E1;2.074815178E1;7.896077156E0;6.339846134E0
2.150018454E1;3.281133652E1;8.170213699E0;6.270414352E0
2.151995470E1;3.922181320E1;1.033936024E1;-7.709329724E-1
2.152995622E1;3.922181320E1;9.488221169E0;-3.302801132E0
2.154989362E1;2.981379700E1;4.234145641E0;-2.657563925E0
2.156984222E1;1.972822189E1;-8.858546615E-2;4.979939461E-1
2.157986398E1;1.590109062E1;-1.353921056E0;1.496376038E0
2.160029456E1;1.082418633E1;-3.084928989E0;1.268926859E0
2.162007245E1;6.296750546E0;-4.630385876E0;-4.932055473E-1
2.163008810E1;3.801992416E0;-5.621585369E0;-1.577778935E0
2.164993184E1;-4.055777550E0;-9.148244858E0;-4.326322556E0
2.167004652E1;-7.606379032E0;-1.097621727E1;-3.116053581E0
2.168995469E1;-1.021366405E1;-1.206557941E1;-2.671929121E0
2.170985848E1;-9.475052834E0;-1.216493893E1;-3.854664803E0
2.171986462E1;-8.111555099E0;-1.159033012E1;-4.842272758E0
2.172988968E1;-6.096834660E0;-1.081341171E1;-5.487510204E0
2.174988573E1;-8.678981066E-1;-9.409213066E0;-6.500257492E0
2.175989074E1;1.764526606E0;-8.572439194E0;-6.487089634E0
2.176999074E1;4.365826607E0;-7.824251175E0;-5.986701488E0
2.178004475E1;5.760449409E0;-7.977479935E0;-5.185841084E0
2.179992850E1;1.089840603E1;-6.657077789E0;-4.407725334E0
2.181997294E1;1.751837349E1;-4.823119164E0;-6.107608318E0
2.183994630E1;3.840060043E1;6.084863663E0;-3.985148668E0
2.185984564E1;3.922181320E1;1.131020927E1;3.124433279E0
2.187984297E1;3.753868866E1;1.109353352E1;3.632004023E0
2.188993986E1;3.203561401E1;1.076193619E1;1.143231273E0
2.189997980E1;2.678034401E1;1.030703831E1;-1.574187636E0
2.191997876E1;1.563772869E1;7.876923561E0;-3.957615376E0
2.193997300E1;7.353790283E0;6.139930248E0;-2.443282843E0
2.195993956E1;4.598064423E0;5.882553577E0;2.653972626E0
2.198007195E1;3.739742994E0;6.659471989E0;7.675810814E0
2.199999005E1;1.053448796E0;6.696582317E0;1.044709873E1
2.201000790E1;-9.253589511E-1;6.402095318E0;1.059793377E1
2.202013582E1;-2.626439333E0;6.268020153E0;1.011550236E1
2.203998377E1;-5.043385983E0;6.489483833E0;7.333439827E0
2.205004476E1;-5.743690014E0;6.081272125E0;6.321889400E0
2.206996800E1;-6.552929878E0;4.428076267E0;5.292382717E0
2.208045088E1;-5.865794182E0;3.889380693E0;5.236119270E0
2.210018378E1;-3.872621298E0;2.862268209E0;4.806359768E0
2.212006126E1;1.644816518E0;4.011485100E0;2.959233284E0
2.213015150E1;4.826710701E0;5.001487255E0;1.966836691E0
2.214027313E1;6.883329868E0;5.289988518E0;1.996764183E0
2.216006809E1;1.279820538E1;7.059303761E0;4.993107796E0
2.218005384E1;1.767040634E1;6.508637428E0;4.705803394E0
2.219997252E1;2.736572456E1;6.773196697E0;4.201824188E0
2.221016764E1;3.661213303E1;9.678560257E0;5.566518903E-1
2.223007722E1;3.922181320E1;9.245209694E0;-1.825578809E0
2.224013948E1;3.721187973E1;3.693056107E0;1.719036818E0
2.225995568E1;2.180638885E1;-2.815581083E0;6.311115742E0
2.228039773E1;1.491946793E1;-3.141192675E0;3.770867586E0
2.230007375E1;1.154723454E1;-2.561795712E0;2.038662672E0
2.231028375E1;8.414422035E0;-3.169923067E0;7.793126702E-1
2.233013975E1;1.289277673E0;-5.410895824E0;-2.680308819E0
2.234999425E1;-4.702212334E0;-7.235277653E0;-4.375403404E0
2.236989137E1;-8.726864815E0;-8.892065048E0;-6.197391033E0
2.237993656E1;-9.662998199E0;-9.497797966E0;-6.402095318E0
2.239992695E1;-1.005445004E1;-1.022802925E1;-5.275623322E0
2.241996805E1;-8.082824707E0;-1.053089619E1;-4.520252705E0
2.243991658E1;-3.606864929E0;-9.160215378E0;-6.013037682E0
2.245990246E1;7.445967197E-1;-7.906851292E0;-6.646304131E0
2.246992460E1;2.480392933E0;-7.439981937E0;-6.209362030E0
2.247999668E1;4.368220806E0;-6.810306549E0;-5.700594425E0
2.249993898E1;9.909601212E0;-5.911283970E0;-5.169081688E0
2.251991406E1;1.709220505E1;-4.781220913E0;-6.411672115E0
2.254038208E1;3.163458633E1;1.537077546E0;-2.918531895E0
2.256010858E1;3.922181320E1;9.502586365E0;3.649960518E0
2.257998871E1;3.922181320E1;1.225591850E1;1.358470058E1
2.260009699E1;3.642298889E1;1.160709000E1;9.391256332E0
2.262000281E1;1.319324875E1;6.461950302E0;-2.837129116E0
2.263995726E1;3.323152065E0;4.387374401E0;-4.325125217E0
2.265992138E1;-6.488286853E-1;3.981557369E0;-2.275688648E0
2.267995641E1;-1.312022567E0;3.482366323E0;1.795651317E0
2.270007841E1;-2.967612982E0;2.894589901E0;5.096058369E0
2.271991767E1;-3.646369219E0;2.914940596E0;6.675034523E0
2.273009621E1;-3.405751944E0;3.139995575E0;6.816292286E0
2.274997711E1;-2.658761024E0;4.249708176E0;5.815515995E0
2.276016193E1;-2.565387011E0;4.647145271E0;4.940435410E0
2.278045454E1;-3.558980942E0;4.299986362E0;3.311181068E0
2.280011070E1;-5.413290024E0;2.752134800E0;2.979583979E0
2.282002424E1;-2.604891539E0;2.299630642E0;3.488351822E0
2.283994087E1;4.064157486E0;4.361038208E0;3.104082584E0
2.285009831E1;7.710526466E0;6.443994045E0;3.290830135E0
2.286999539E1;1.361462784E1;9.385271072E0;4.957194805E0
2.288991016E1;2.767816925E1;9.992200851E0;5.691017628E0
2.289993296E1;3.700119019E1;1.043512821E1;5.621585369E0
2.291989830E1;3.922181320E1;1.034534550E1;-3.708618402E0
2.293993839E1;3.922181320E1;7.773972988E0;-9.697713852E0
2.295995966E1;3.200688553E1;2.621650934E0;-5.210979939E0
2.297002520E1;2.427241707E1;-4.872200489E-1;-2.637213230E0
2.298993036E1;1.253843403E1;-3.931279182E0;-6.177040339E-1
2.299998956E1;9.950302124E0;-4.146757126E0;-1.447294950E0
2.301993945E1;3.667917013E0;-4.826710701E0;-2.709039211E0
2.302994810E1;1.224634171E0;-5.639542103E0;-2.743755102E0
2.303995693E1;-7.721300721E-1;-6.360196590E0;-2.633621931E0
2.305988079E1;-3.614047527E0;-6.773196697E0;-1.379060149E0
2.307986626E1;-5.870582581E0;-7.307103634E0;-3.711012602E-1
2.308989600E1;-6.811503887E0;-7.673416615E0;-4.333505034E-1
2.309989838E1;-7.437587738E0;-7.985859871E0;-8.224082589E-1
2.310992006E1;-7.802703381E0;-8.151060104E0;-1.345541358E0
2.311996241E1;-7.776367188E0;-8.135497093E0;-2.397793055E0
2.313995466E1;-6.560112476E0;-8.252813339E0;-5.251681328E0
2.315989998E1;-3.035847664E0;-7.854178905E0;-6.544550419E0
2.317996506E1;2.470816135E0;-6.719326973E0;-4.944026470E0
2.319993058E1;7.656657219E0;-6.177040577E0;-8.834604025E-1
2.321987971E1;1.363737297E1;-6.212953568E0;-2.596511841E0
2.323001123E1;1.693658257E1;-5.300762653E0;-3.260902643E0
2.324006249E1;2.252464867E1;-2.766499996E0;-2.175132275E0
2.325011212E1;2.902730179E1;2.525882721E-1;-4.022258818E-1
2.326993834E1;3.785113144E1;3.451241732E0;6.961141586E0
2.328003605E1;3.892014313E1;4.528632641E0;1.072243214E1
2.329994407E1;3.553593826E1;5.997475147E0;9.343372345E0
2.331997733E1;2.670372772E1;5.892130375E0;2.705447912E0
2.333012554E1;2.132635117E1;5.218162537E0;-1.209071875E-1
2.334998195E1;1.075595093E1;3.810372114E0;-3.542221308E0
2.336986455E1;3.786429882E0;3.907337189E0;-4.260481834E0
2.338155565E1;2.059013367E0;4.503493309E0;-1.595735431E0
2.340036997E1;1.728613615E0;4.752490520E0;2.777273893E0
2.342008056E1;2.873041928E-1;4.630385876E0;5.902904510E0
2.343995070E1;-1.091755986E0;4.616020679E0;6.836642742E0
2.345993599E1;-1.185129881E0;5.220556736E0;5.242104530E0
2.346993837E1;-1.327584863E0;5.515043736E0;4.108449936E0
2.348992840E1;-1.983596087E0;5.361814499E0;2.194285870E0
2.351030041E1;-3.821146011E0;3.775655985E0;1.413776159E0
2.353010442E1;-3.667917013E0;2.850297213E0;2.244564056E0
2.355002217E1;-9.780313969E-1;2.668337822E0;3.378218651E0
2.356991635E1;3.110068083E0;3.551798105E0;4.733336926E0
2.358992465E1;8.831012726E0;5.596446514E0;7.037755966E0
2.361006798E1;1.728493881E1;7.187393665E0;9.702502251E0
2.362998706E1;2.642839622E1;4.015076160E0;1.168011284E1
2.364000440E1;3.345657349E1;5.147533417E0;9.318233490E0
2.365992916E1;3.922181320E1;7.637503624E0;4.680664241E-1
2.368013560E1;3.187520409E1;2.395398855E0;2.161964178E0
2.369999896E1;2.065836906E1;-2.924517393E0;8.740033150E0
2.371999455E1;1.512177753E1;-4.361038208E0;8.516175270E0
2.373012715E1;1.329260826E1;-4.462791920E0;5.790376663E0
2.374997685E1;8.564059258E0;-4.969165802E0;-2.501940727E-1
2.376992002E1;4.010287762E0;-5.232527733E0;-3.068169594E0
2.378000639E1;1.952471495E0;-5.574898720E0;-4.050989151E0
2.379998216E1;-3.099294186E0;-7.184999466E0;-1.820790410E0
2.381995160E1;-5.240907669E0;-7.692570210E0;-1.853112102E0
2.383988521E1;-7.441178799E0;-7.742848396E0;-4.416105270E0
2.385995737E1;-9.647436142E0;-8.740033150E0;-7.486668587E0
2.387994015E1;-9.430760384E0;-9.726444244E0;-9.315838814E0
2.389987660E1;-5.064933777E0;-9.442731857E0;-9.378087997E0
2.390988418E1;-2.072181463E0;-9.065644264E0;-8.355764389E0
2.391994046E1;1.083376288E0;-8.700529099E0;-6.672640324E0
2.393992193E1;7.338228226E0;-7.669825077E0;-4.101267338E0
2.395990529E1;1.473631191E1;-8.508993149E0;-6.879738808E0
2.397992639E1;2.479195786E1;-7.917624950E0;-4.611232281E0
2.398995207E1;3.922181320E1;1.134851575E0;2.430114746E-1
2.399995891E1;3.922181320E1;5.951985359E0;2.561795712E0
2.402003929E1;3.922181320E1;7.778761387E0;5.711368084E0
2.403999963E1;3.271556854E1;6.496666431E0;3.703830004E0
2.406008972E1;2.076012230E1;5.688623428E0;-7.422025204E-1
2.407992824E1;1.010113716E1;4.138377666E0;-3.817554712E0
2.409001000E1;6.178237438E0;3.854664803E0;-2.962824583E0
2.410991731E1;2.886210203E0;4.153939724E0;1.533486247E0
2.411993703E1;2.738966703E0;4.830301762E0;4.156333923E0
2.413993032E1;1.435323954E0;5.638344765E0;7.450755596E0
2.415987189E1;-1.642422318E0;5.149928093E0;9.194931984E0
2.417989904E1;-2.902969599E0;4.769249916E0;9.216479301E0
2.418993589E1;-3.341108561E0;4.738125324E0;7.649474621E0
2.420010432E1;-3.184288263E0;5.127182961E0;6.285976410E0
2.422003889E1;-2.489969730E0;5.720944881E0;4.468777657E0
2.423030282E1;-2.810792685E0;5.256469727E0;4.404133797E0
2.425001627E1;-3.986345768E0;3.336320162E0;4.288015366E0
2.426991638E1;-2.902969599E0;2.217030764E0;3.762487888E0
2.428048256E1;-1.229422569E0;2.102109194E0;3.721786499E0
2.430073745E1;5.609614372E0;4.078522682E0;4.393360138E0
2.432015668E1;1.582567310E1;8.090007782E0;8.063671112E0
2.434000948E1;2.021304703E1;1.035611916E1;9.670180321E0
2.435005612E1;1.967555046E1;8.514978409E0;9.169792175E0
2.436994734E1;2.683181763E1;4.714183331E0;1.077630138E1
2.437997304E1;3.901591110E1;4.651933670E0;6.625953197E0
2.439000290E1;3.922181320E1;3.500322819E0;2.269703150E0
2.440992154E1;3.282210922E1;1.053448766E-1;-3.462015629E0
2.441992864E1;2.866697311E1;-1.440112352E0;-3.052607059E0
2.443033670E1;2.528875542E1;-2.619256735E0;-6.607996821E-1
2.445001424E1;1.903031158E1;-5.082890034E0;1.520318031E0
2.446993287E1;1.173757362E1;-7.187393665E0;2.035071403E-1
2.448109631E1;8.012195587E0;-7.941566944E0;-1.199495077E0
2.450021114E1;1.310825467E0;-9.204508781E0;-3.420117140E0
2.451994735E1;-4.463989258E0;-1.012148762E1;-4.486733913E0
2.454001915E1;-7.681796074E0;-1.061469364E1;-4.923676014E0
2.456000510E1;-1.006881523E1;-1.162983513E1;-6.685808182E0
2.457999859E1;-9.807847023E0;-1.216374207E1;-8.938752174E0
2.459003117E1;-7.697358608E0;-1.160110474E1;-8.699332237E0
2.460010546E1;-5.262455463E0;-1.138682365E1;-8.212111473E0
2.462002393E1;3.687070608E-1;-1.065659142E1;-5.967547894E0
2.463998804E1;5.652710438E0;-9.664195061E0;-1.650802016E0
2.465008290E1;8.161833763E0;-1.002332497E1;-1.604115069E-1
2.467001904E1;1.659421158E1;-8.218097687E0;1.534683347E0
2.468994707E1;2.777872467E1;-2.091335297E0;4.007893562E0
2.470987183E1;3.851791763E1;4.529829502E0;1.226190376E1
2.473010527E1;3.804386520E1;6.878541470E0;1.922065163E1
2.474998813E1;3.331292343E1;9.606734276E0;1.064462090E1
2.476000144E1;3.066014671E1;1.025436592E1;6.230909824E0
2.477993817E1;1.569399261E1;8.127118111E0;-2.516305923E0
2.478996096E1;1.101332760E1;6.794744492E0;-3.493140221E0
2.480021036E1;8.153453827E0;6.227318764E0;-3.483563423E0
2.481993515E1;7.210138321E0;6.628347397E0;-3.519476354E-1
2.483010445E1;6.995857239E0;6.829460144E0;1.545457244E0
2.484011010E1;6.123170853E0;6.776787758E0;2.894589901E0
2.485995009E1;3.599682331E0;6.511031628E0;4.516661644E0
2.487999258E1;1.584961534E0;5.951985359E0;4.904522419E0
2.490006446E1;-5.027823448E-1;5.671864033E0;4.249708176E0
2.491011660E1;-9.576807022E-1;5.772420406E0;4.077325344E0
2.492023018E1;-9.732429981E-1;6.050147533E0;4.396951199E0
2.494002411E1;-1.853112102E0;5.400122166E0;4.636371613E0
2.496014334E1;-3.673902512E0;3.857059002E0;4.695029736E0
2.497998790E1;-2.876633406E0;1.441309452E0;5.072116375E0
2.499001532E1;-1.036689281E0;1.588552833E0;5.105635166E0
2.500020804E1;2.051830769E0;2.777273893E0;5.309142113E0
2.502016032E1;1.295981407E1;8.667010307E0;8.022970200E0
2.504001089E1;2.717179489E1;1.725620842E1;1.026633644E1
2.505009332E1;3.251924515E1;1.676659393E1;1.158673954E1
2.506022954E1;3.705625534E1;1.307353878E1;1.699643707E1
2.507030064E1;3.900154495E1;8.299500465E0;2.193328094E1
2.509002597E1;3.922181320E1;2.203862667E0;1.991497040E1
2.510989931E1;3.446692657E1;-9.265560508E-1;8.298302650E0
2.512992564E1;2.114319611E1;-5.996278286E0;1.604115129E0
2.514995372E1;1.312022495E1;-8.370129585E0;-1.224634171E0
2.516988024E1;8.188169479E0;-1.048301220E1;-1.552639842E0
2.518006850E1;6.578069210E0;-1.082658005E1;-2.280477047E0
2.520007519E1;2.791639090E0;-1.116057110E1;-4.610035419E0
2.521991136E1;-1.648407817E0;-1.178785229E1;-6.737283707E0
2.523987315E1;-4.869806290E0;-1.174595356E1;-8.180987358E0
2.525005995E1;-6.228515625E0;-1.154603767E1;-8.447940826E0
2.526993855E1;-8.245630264E0;-1.109353352E1;-9.498994827E0
2.527994815E1;-9.028534889E0;-1.130901146E1;-1.010592556E1
2.528994895E1;-9.279925346E0;-1.147421169E1;-1.090080070E1
2.530003535E1;-8.661025047E0;-1.137844372E1;-1.146463490E1
2.531998015E1;-5.528211594E0;-1.145146656E1;-9.490615845E0
2.533999435E1;-9.816226959E-1;-1.139161205E1;-7.557297707E0
2.535012705E1;2.882618904E0;-1.111508179E1;-4.272452831E0
2.536017290E1;5.400122166E0;-1.050455952E1;-4.179079056E0
2.538014854E1;1.450407410E1;-7.284358501E0;-6.384139061E0
2.540089295E1;3.327940369E1;4.106055796E-1;-4.923676014E0
2.542025255E1;3.922181320E1;9.840168953E0;2.415749550E0
2.544001920E1;3.922181320E1;1.268328381E1;1.090319443E1
2.545031147E1;3.922181320E1;1.308431244E1;1.168968964E1
2.546998668E1;3.382408524E1;1.254082870E1;6.381744862E0
2.548030172E1;2.475963593E1;9.945513725E0;3.101688385E0
2.549998899E1;1.114022064E1;5.734113216E0;-1.000776291E0
2.551990006E1;5.741295815E0;5.426458359E0;-3.320757866E0
2.553048341E1;2.305616140E0;5.210979939E0;-3.028665066E0
2.555000266E1;1.467645645E0;5.310339451E0;-1.642422318E0
2.556001071E1;1.453280449E0;6.409277916E0;1.679532528E0
2.557993999E1;1.717839718E0;7.553706169E0;2.584540844E0
2.559997031E1;6.943184882E-2;7.055712223E0;2.913743496E0
2.561992714E1;-8.595184088E-1;6.722918510E0;2.530671120E0
2.562994194E1;-1.170764685E0;6.570886612E0;2.149993181E0
2.564012785E1;-1.540668845E0;6.358999729E0;1.965639591E0
2.566008827E1;-1.835155606E0;5.957971096E0;1.745373011E0
2.567996438E1;-7.972691655E-1;6.335057735E0;2.112883091E0
2.569985841E1;-2.202665508E-1;5.165490150E0;4.367023945E0
2.571015158E1;-3.160346150E-1;4.054580688E0;4.513070107E0
2.572998371E1;1.991975784E0;2.201468468E0;5.577292919E0
2.574023373E1;6.092046261E0;2.243366957E0;8.661025047E0
2.575029374E1;1.009275723E1;4.786009312E0;1.029865837E1
2.576996350E1;2.180758667E1;7.181407928E0;1.625543213E1
2.578987794E1;3.899436188E1;5.084087372E0;1.551562405E1
2.579993684E1;3.922181320E1;4.503493309E0;1.098340034E1
2.581987677E1;3.922181320E1;4.566939831E0;-3.621230125E0
2.582988226E1;3.822343063E1;3.116053581E0;-3.870227098E0
2.584002400E1;3.226546097E1;8.188169599E-1;-4.967968464E-1
2.585989556E1;2.087384796E1;-3.367444754E0;2.749740601E0
2.587992970E1;1.430774975E1;-4.157531261E0;-2.790441990E0
2.589988599E1;1.059075165E1;-3.693056107E0;-6.834248543E0
2.590989937E1;8.638279915E0;-3.719392300E0;-7.058106422E0
2.592995690E1;4.969165802E0;-4.286818027E0;-7.067683220E0
2.593998083E1;2.699462414E0;-4.808753967E0;-6.655880928E0
2.595997002E1;-4.046200752E0;-7.934384346E0;-6.655880928E0
2.597000338E1;-5.201403141E0;-8.513781548E0;-6.381744862E0
2.598002607E1;-6.086060524E0;-9.089587212E0;-6.174646378E0
2.599019591E1;-7.060500622E0;-9.568427086E0;-6.374562263E0
2.601022104E1;-7.872135162E0;-1.029985619E1;-7.262810707E0
2.603002157E1;-6.254851818E0;-1.053927612E1;-9.228450775E0
2.604997096E1;-2.376245260E0;-1.027351952E1;-9.001001358E0
2.606997230E1;2.224213362E0;-9.356540680E0;-5.188235283E0
2.608994089E1;6.257246017E0;-8.383296967E0;-2.586935043E0
2.611001503E1;1.139999104E1;-7.066486359E0;-3.677493811E0
2.612990332E1;1.746091270E1;-6.400898457E0;-2.632424831E0
2.614002304E1;3.382288742E1;1.242590666E0;1.628057122E0
2.615015439E1;3.922181320E1;6.336254597E0;3.338714361E0
2.616995316E1;3.922181320E1;1.094150162E1;5.710171223E0
2.618007346E1;3.887345505E1;1.041238308E1;3.731363297E0
2.619015160E1;3.383485794E1;9.096769333E0;1.701080322E0
2.620015168E1;2.767697144E1;7.906851292E0;2.011129409E-1
2.621997373E1;1.858738518E1;6.364984989E0;-1.441309452E0
2.623993900E1;1.463096619E1;5.521028996E0;-4.692635238E-1
2.625002387E1;1.253484344E1;5.202600479E0;7.038952708E-1
2.626991828E1;7.431602001E0;4.516661644E0;2.950853586E0
2.628989788E1;2.896984100E0;4.259284973E0;4.414907932E0
2.630002732E1;1.467645645E0;4.356249809E0;4.934449673E0
2.631999289E1;-5.207388401E-1;4.958391666E0;6.003460884E0
2.633000432E1;-1.206677675E0;5.191826344E0;6.445190907E0
2.634009204E1;-2.093729496E0;5.691017628E0;5.589263916E0
2.636017057E1;-2.786850691E0;5.639542103E0;4.358644009E0
2.637998721E1;-2.121262789E0;5.819107056E0;3.944447279E0
2.640404011E1;-1.314416766E0;5.085284233E0;3.477577925E0
2.642068975E1;-1.247379065E0;4.364629745E0;3.157952070E0
2.643990275E1;7.876923680E-1;3.452438831E0;2.598906040E0
2.645003275E1;2.263717651E0;3.642777920E0;3.081337690E0
2.646149075E1;4.195838451E0;4.080916882E0;4.343081951E0
2.648005875E1;8.236053467E0;5.370194435E0;6.586448669E0
2.649981875E1;1.374750614E1;5.086481571E0;6.979097843E0
2.650999175E1;1.715565300E1;4.192247391E0;5.667075634E0
2.652984675E1;2.344641685E1;4.668693542E0;5.424064159E0
2.653989675E1;2.664507103E1;5.317522049E0;8.655038834E0
2.655012375E1;2.983773804E1;4.238934040E0;1.102290440E1
2.656979975E1;2.498828316E1;1.487996340E0;9.810241699E0
2.657986375E1;2.213798523E1;2.106897533E-1;7.114370346E0
2.659015575E1;1.893574142E1;-7.996633649E-1;3.586514235E0
2.661030575E1;1.161906052E1;-3.099294186E0;-3.007117271E0
2.662988575E1;9.024943352E0;-3.536235809E0;-1.279700756E0
2.663989575E1;8.508993149E0;-3.421314240E0;-1.915361285E-1
2.665981975E1;6.562506676E0;-3.204638958E0;-6.895300746E-1
2.667014775E1;5.179855347E0;-3.381809950E0;-1.675941229E0
2.668999975E1;1.192312479E0;-4.328716755E0;-4.344278812E0
2.671037675E1;-1.880645394E0;-5.475539207E0;-5.778405666E0
2.672987775E1;-3.610456228E0;-6.497863293E0;-6.028599739E0
2.675003875E1;-4.299986362E0;-7.906851292E0;-8.774748802E0
2.677002475E1;-1.357512355E0;-8.319850922E0;-9.549273491E0
2.679013775E1;2.772485495E0;-8.933963776E0;-6.851007938E0
2.681003975E1;8.289923668E0;-8.248024940E0;-3.637989521E0
2.682023175E1;1.169447803E1;-7.723694801E0;-3.804386616E0
2.683027275E1;1.497932339E1;-7.153874874E0;-4.448426723E0
2.684060475E1;1.642781448E1;-6.965929985E0;-3.144783974E0
2.686004375E1;2.611236000E1;-2.683900118E0;2.697068214E0
2.687014775E1;3.249530411E1;5.494692922E-1;4.661510944E0
2.689059075E1;3.712569046E1;4.248510838E0;4.831499100E0
2.690993675E1;3.168247032E1;4.440047264E0;-1.999158412E-1
2.692986375E1;2.308848381E1;4.213795185E0;-4.294000626E0
2.694013775E1;1.584243298E1;3.335123062E0;-3.299209833E0
2.695992775E1;1.247019958E1;3.404554844E0;2.256535053E0
2.697005075E1;1.087805557E1;4.050989151E0;5.329493046E0
2.699084975E1;7.576451302E0;5.355829239E0;8.257601738E0
2.700994975E1;4.661510944E0;6.466738701E0;9.059659004E0
2.702989175E1;2.935291290E0;7.479485989E0;7.874529362E0
2.704020275E1;2.260126352E0;8.078036308E0;7.023390770E0
2.706004575E1;1.471236944E0;8.627506256E0;5.410895824E0
2.707994875E1;1.102529883E0;8.722076416E0;4.841075897E0
2.709989875E1;-3.423708379E-1;7.442376137E0;4.691438198E0
2.712001575E1;-2.482787132E0;5.698200226E0;3.708618402E0
2.713028275E1;-1.905784607E0;5.294776917E0;2.592920542E0
2.714058675E1;-4.333505034E-1;5.307945251E0;2.543839216E0
2.715989775E1;5.090072632E0;6.658275127E0;5.380968094E0
2.717006675E1;8.358158112E0;7.779958248E0;7.947552681E0
2.718995875E1;1.310466290E1;8.748413086E0;1.118092155E1
2.720003075E1;1.523191166E1;8.716091156E0;1.076911926E1
2.721008075E1;1.675462341E1;8.200140953E0;9.376891136E0
2.722989075E1;2.186265373E1;6.742072105E0;7.382521152E0
2.725032275E1;2.928228378E1;6.063315868E0;1.032499504E1
2.726988175E1;3.096181679E1;3.044227362E0;1.108275986E1
2.728040975E1;2.738607597E1;6.021417379E-1;8.566453934E0
2.729099075E1;2.267308998E1;-1.563413739E0;5.222950935E0
2.730985675E1;1.551682091E1;-3.910928488E0;1.040280581E0
2.732009175E1;1.328662205E1;-4.344278812E0;1.312022567E0
2.733994575E1;8.287528992E0;-4.538209438E0;-2.154781520E-1
2.736007475E1;5.082890034E0;-3.825934410E0;-3.124433279E0
2.737985375E1;2.857479811E0;-3.028665066E0;-5.213374138E0
2.739006175E1;1.781286120E0;-2.885013103E0;-5.566518784E0
2.741051275E1;-1.053448796E0;-4.143166065E0;-5.515043736E0
2.743003375E1;-2.225410461E0;-5.281609058E0;-4.072536945E0
2.744005575E1;-2.888604403E0;-5.889736176E0;-3.621230125E0
2.745984775E1;-4.363432407E0;-7.017405033E0;-5.410895824E0
2.747043175E1;-4.272452831E0;-7.526173115E0;-6.185420036E0
2.748987675E1;-2.619256735E0;-8.889671326E0;-7.275979042E0
2.749994175E1;-9.935936928E-1;-9.244012833E0;-7.337030888E0
2.751002675E1;1.387439847E0;-9.089587212E0;-6.162675381E0
2.752986075E1;6.064512730E0;-1.063624096E1;2.106897533E-1
2.753986775E1;9.244012833E0;-9.962273598E0;4.764461517E-1
2.755012775E1;1.337879944E1;-7.495048523E0;-2.525882721E-1
2.756987075E1;1.962527084E1;-3.924096584E0;-1.108515382E0
2.758064975E1;2.422213936E1;-1.401805043E0;-6.177040339E-1
2.759982275E1;3.495534515E1;4.812345505E0;2.002749681E0
2.761043275E1;3.886746979E1;7.131129742E0;5.455188751E0
2.763000475E1;3.922181320E1;1.055244446E1;1.102170753E1
2.765012175E1;3.057754707E1;1.002571964E1;5.494692802E0
2.766987575E1;1.819832802E1;8.531737328E0;-2.167949677E0
2.767989975E1;1.268208599E1;7.247248650E0;-4.276044369E0
2.768997675E1;8.707711220E0;6.484695435E0;-4.165910721E0
2.771022575E1;4.644751072E0;7.070077419E0;3.207033157E0
2.773019075E1;3.775655985E0;7.846996307E0;7.611167431E0
2.774042175E1;2.469619036E0;8.013393402E0;8.318654060E0
2.776045275E1;-2.657563984E-1;7.748833656E0;7.842207432E0
2.777987175E1;-2.378639460E0;7.235277653E0;6.364984989E0
2.778993775E1;-3.533841610E0;6.612784863E0;5.396530628E0
2.781017775E1;-4.428076267E0;5.680243492E0;4.373009205E0
2.782034275E1;-4.139574528E0;5.610811710E0;4.163516521E0
2.783996075E1;-2.871845007E0;5.337872505E0;3.677493811E0
2.784999875E1;-1.990778685E0;4.946420670E0;3.815160513E0
2.786003075E1;-8.427590132E-1;4.428076267E0;3.920505285E0
2.787988475E1;3.004723072E0;3.812766314E0;3.556586742E0
2.789014375E1;5.704185486E0;4.304774761E0;3.609259129E0
2.791003075E1;1.236844635E1;6.289567947E0;7.303512096E0
2.793009175E1;2.042373848E1;4.873397350E0;6.872556210E0
2.794039275E1;2.827193069E1;5.657498837E0;8.890868187E0
2.796012075E1;3.733877182E1;6.045359135E0;8.409633636E0
2.797086275E1;3.664325714E1;5.473145008E0;4.353855610E0
2.798993275E1;3.073676109E1;3.317166567E0;-3.399766386E-1
2.800997675E1;2.458246613E1;1.286883354E0;1.174355984E0
2.802068575E1;2.148676300E1;-2.286462635E-1;2.610877037E0
2.804154075E1;1.600404167E1;-2.110488892E0;2.952050686E0
2.806001475E1;1.130901146E1;-3.821146011E0;8.475474119E-1
2.808012075E1;7.281964302E0;-4.560954094E0;-4.584896266E-1
2.809034875E1;5.390544891E0;-4.778826714E0;-1.148019671E0
2.811056675E1;1.804031014E0;-4.642356873E0;-2.515108824E0
2.812997875E1;-1.022324085E0;-5.266046524E0;-3.345896959E0
2.813998875E1;-2.288856745E0;-5.596446514E0;-4.049792290E0
2.816017775E1;-5.450400352E0;-6.754043102E0;-5.521028996E0
2.817987975E1;-7.686584473E0;-7.836222172E0;-7.283161640E0
2.819987575E1;-7.151480675E0;-8.425195694E0;-7.088034153E0
2.820989775E1;-5.549759388E0;-8.365341187E0;-6.398504257E0
2.821991375E1;-2.970007181E0;-7.868544102E0;-5.564124584E0
2.823990075E1;2.776076794E0;-6.163872242E0;-3.621230125E0
2.825019775E1;5.487510204E0;-5.262455463E0;-2.653972626E0
2.827103775E1;1.076911926E1;-3.561375141E0;-9.959878922E-1
2.829011975E1;1.660857773E1;-7.637503147E-1;1.741781712E0
2.830021075E1;1.891539001E1;2.477998734E-1;1.952471495E0
2.831029275E1;2.036507988E1;1.659181833E0;2.549824715E-1
2.832999075E1;2.857599449E1;5.115211964E0;2.232593060E0
2.834067975E1;3.408744812E1;7.006631374E0;4.993107796E0
2.836001575E1;3.922181320E1;1.061229897E1;1.503199577E1
2.837010975E1;3.756622314E1;1.031541824E1;1.594658089E1
2.838986975E1;2.277484322E1;6.882133007E0;8.693346024E0
2.839989275E1;1.644936371E1;5.845443249E0;5.151124954E0
2.841003675E1;1.131619453E1;5.252878666E0;2.397793055E0
2.842990875E1;5.321113110E0;5.391742229E0;-8.391677141E-1
2.844000975E1;4.039018154E0;5.542576790E0;-9.504981041E-1
2.845993175E1;2.384624958E0;5.273229122E0;5.913678408E-1
2.846996575E1;1.762132406E0;5.058948040E0;1.522712231E0
2.848025775E1;1.076193690E0;4.958391666E0;2.171540976E0
2.849074175E1;-6.943184882E-2;5.246892929E0;2.881421804E0
2.850987775E1;-1.452083349E0;5.261258125E0;3.438073635E0
2.852994375E1;-3.302801132E0;4.733336926E0;3.111265182E0
2.854995075E1;-4.672284603E0;4.127603531E0;2.416946650E0
2.856992275E1;-5.188235283E0;3.543418407E0;2.375048161E0
2.858990175E1;-2.643198729E0;4.175487995E0;3.869029999E0
2.859990375E1;-1.329979062E0;4.086902142E0;5.175066948E0
2.860993775E1;-5.051765442E-1;3.605667830E0;5.477933407E0
2.863004675E1;2.450465441E0;3.223792553E0;4.926070213E0
2.864020275E1;3.080140591E0;3.289633036E0;4.186261654E0
2.865987475E1;6.089652061E0;5.108029366E0;3.100491285E0
2.866994075E1;1.042914295E1;7.447164536E0;4.674678802E0
2.869008075E1;1.905305672E1;1.187524033E1;8.523358345E0
2.870014575E1;2.517862129E1;1.079306126E1;1.047104073E1
2.872043575E1;3.351164246E1;7.290344238E0;8.762778282E0
2.873987875E1;3.922181320E1;8.987833023E0;5.740098476E0
2.875027175E1;3.860770035E1;7.382521152E0;4.862623692E0
2.876988275E1;2.850775909E1;2.106897593E0;4.581305027E0
2.878014775E1;2.363915062E1;4.309563041E-1;4.082113743E0
2.879986575E1;1.572631359E1;-1.616086125E0;1.874659896E0
2.880989175E1;1.244386292E1;-2.160767078E0;6.236895323E-1
2.882048275E1;9.738415718E0;-2.372653961E0;-3.064578176E-1
2.884095875E1;5.354631901E0;-2.906560898E0;-1.898601890E0
2.885997275E1;2.122459888E0;-4.350264549E0;-4.267664433E0
2.887990075E1;-7.936778665E-1;-6.187814236E0;-6.555324078E0
2.889000775E1;-3.561375141E0;-8.259995461E0;-7.663839817E0
2.891031875E1;-6.094440460E0;-1.029746151E1;-8.815450668E0
2.892988675E1;-7.472303391E0;-1.175313568E1;-1.005923843E1
2.894009475E1;-6.640318394E0;-1.174355888E1;-1.006881523E1
2.896003075E1;-2.458845139E0;-1.106719780E1;-7.035361767E0
2.897006175E1;-6.117185354E-1;-1.024239445E1;-5.445611954E0
2.898997275E1;1.758541107E0;-9.180566788E0;-3.084928989E0
2.900991575E1;7.031770229E0;-7.577648163E0;-2.973598480E0
2.902000475E1;9.148244858E0;-5.865794182E0;-3.130418777E0
2.903000675E1;1.212304020E1;-4.548983097E0;-2.551021814E0
2.904012675E1;1.700481796E1;-2.549824715E0;9.624691010E-1
2.905028075E1;2.391567993E1;2.164358377E0;5.424064159E0
2.906993975E1;3.826892090E1;1.235048962E1;7.010222435E0
2.909016475E1;3.922181320E1;1.620754814E1;1.031541824E1
2.910987275E1;3.232770920E1;1.299812126E1;9.926360130E0
2.911995975E1;2.512714767E1;1.090678596E1;8.664615631E0
2.913000875E1;1.805347824E1;8.863334656E0;6.865373611E0
2.914992675E1;6.804321289E0;6.412869453E0;2.179920673E0
2.916001675E1;3.071760893E0;5.686229229E0;-2.549824715E-1
2.917011775E1;7.541735172E-1;5.108029366E0;-1.661576033E0
2.919112675E1;-1.575384736E0;3.840299606E0;-1.021126986E0
2.921010875E1;-2.758120298E0;2.663549423E0;1.586158633E0
2.922018775E1;-3.993528366E0;2.217030764E0;2.591723442E0
2.923990775E1;-6.102819920E0;1.726219416E0;3.196259260E0
2.925005775E1;-6.854599476E0;1.778891921E0;3.096899986E0
2.927020475E1;-8.056488991E0;1.733402014E0;2.814383984E0
2.928042675E1;-8.093599319E0;1.533486247E0;2.229001760E0
2.930029275E1;-5.693411827E0;1.987187386E0;1.740584612E0
2.931990375E1;-1.271321058E0;2.292448044E0;3.287238836E0
2.933002375E1;1.995567083E0;3.094505787E0;4.568136692E0
2.935006675E1;5.324704647E0;3.483563423E0;6.183025837E0
2.936987675E1;1.033098030E1;6.050147533E0;8.289923668E0
2.938996975E1;1.737472153E1;1.011191082E1;1.113543224E1
2.940026575E1;2.020825958E1;1.073440361E1;1.317529202E1
2.941988475E1;3.014778709E1;1.123718548E1;1.566526127E1
2.942997775E1;3.680486679E1;1.154843235E1;1.448252583E1
2.944992575E1;3.922181320E1;1.098818874E1;1.332612705E1
2.946534375E1;3.734236526E1;7.208941460E0;8.464699745E0
2.947990875E1;2.622129631E1;2.964021683E0;2.604891539E0
2.948991975E1;2.058773994E1;1.284489155E0;-9.265560508E-1
2.950994175E1;1.214937687E1;-1.543063045E0;-2.908955097E0
2.952003775E1;9.771934509E0;-2.620453835E0;-2.090138197E0
2.953991475E1;4.927267075E0;-5.328295708E0;-2.323572636E0
2.955987575E1;-4.453215301E-1;-7.456741333E0;-4.452018261E0
2.957004775E1;-3.214215755E0;-8.352172852E0;-4.704606533E0
2.959008075E1;-6.089652061E0;-9.119514465E0;-6.868964672E0
2.960995375E1;-9.129091263E0;-9.526528358E0;-8.974664688E0
2.962982275E1;-8.317456245E0;-9.606734276E0;-8.204929352E0
2.963992375E1;-7.222109318E0;-9.594763756E0;-7.268796444E0
2.965004875E1;-6.198588371E0;-9.727641106E0;-6.607996464E0
2.967001875E1;6.572083831E-1;-9.447520256E0;-4.322731018E0
2.968073675E1;3.257311344E0;-7.429207802E0;-5.051765442E0
2.969989675E1;6.769605160E0;-6.836642742E0;-6.163872242E0
2.971007475E1;8.305485725E0;-6.853402138E0;-4.820724964E0
2.973002875E1;1.303283691E1;-4.952406406E0;-2.967612982E0
2.975008075E1;2.184828758E1;-1.128866076E0;-7.769184709E-1
2.976992175E1;3.873459244E1;8.822632790E0;2.992752194E-1
2.978991475E1;3.922181320E1;1.404199314E1;1.015979481E1
2.980988275E1;3.773740768E1;1.096424675E1;9.941922188E0
2.981995575E1;2.903089333E1;9.111134529E0;6.404489517E0
2.983984175E1;1.662653351E1;8.026560783E0;2.001552582E0
2.985023175E1;1.413177586E1;8.540117264E0;2.153584480E0
2.986984675E1;9.317035675E0;8.620323181E0;4.418499470E0
2.988994475E1;4.854243755E0;7.325059891E0;4.514267445E0
2.990984275E1;-6.679822803E-1;4.884171486E0;4.881777287E0
2.991987275E1;-3.187879562E0;3.773261786E0;5.239710331E0
2.993999275E1;-7.042544365E0;2.294842243E0;5.896918774E0
2.995985975E1;-8.784325600E0;1.862688899E0;5.436035156E0
2.997004775E1;-9.096769333E0;1.784877419E0;4.566939831E0
2.999018175E1;-7.991845131E0;2.363077164E0;3.172317266E0
3.000986075E1;-6.062118530E0;2.433706045E0;3.060986757E0
3.001990675E1;-4.746504784E0;2.483984232E0;3.337517262E0
3.003007675E1;-3.654748917E0;2.372653961E0;3.664325714E0
3.004084975E1;-2.410961151E0;2.166752577E0;3.705027103E0
3.006000675E1;1.273715258E0;2.691082716E0;3.611653328E0
3.007999675E1;7.416039944E0;4.673481941E0;2.602497339E0
3.009056575E1;1.005684471E1;5.906495571E0;2.896984100E0
3.011002275E1;1.704671669E1;1.000417137E1;5.430049419E0
3.012096975E1;2.063083649E1;1.064462090E1;6.658275127E0
3.013994975E1;3.268803406E1;1.181059742E1;9.613917351E0
3.015990975E1;3.922181320E1;1.180820274E1;8.166622162E0
3.017008175E1;3.922181320E1;1.076313400E1;6.202179432E0
3.019038075E1;3.705506134E1;7.194576263E0;8.714894056E-1
3.021018775E1;2.440888596E1;2.217030764E0;-2.199074268E0
3.022988675E1;1.347456741E1;-1.514332533E0;-2.618059635E0
3.024093775E1;8.305485725E0;-3.208230257E0;-6.392518282E-1
3.025985275E1;3.945644379E0;-4.475960255E0;-5.135562420E-1
3.026992975E1;1.695094824E0;-5.220556736E0;-1.156399369E0
3.029001275E1;-2.608482838E0;-7.009025574E0;-2.975992680E0
3.031002475E1;-5.657498837E0;-8.626308441E0;-2.682703018E0
3.032999075E1;-7.909245491E0;-9.676166534E0;-2.613271236E0
3.034982275E1;-8.117541313E0;-9.828198433E0;-4.320336819E0
3.035990375E1;-6.453570843E0;-9.042900085E0;-5.074510574E0
3.037004075E1;-4.807557106E0;-8.463502884E0;-5.371391296E0
3.039048075E1;-1.716642618E0;-7.769184589E0;-4.944026470E0
3.041006875E1;2.154781580E0;-7.326257229E0;-1.648407817E0
3.043036475E1;5.348646641E0;-6.676231384E0;-1.278503656E0
3.044993275E1;1.137245846E1;-4.209006786E0;-2.409764051E0
3.046996975E1;2.207453918E1;2.697068214E0;-2.712630510E0
3.049002275E1;3.071162224E1;6.912060261E0;-1.041477680E0
3.050987575E1;3.921223450E1;1.183334160E1;7.105990410E0
3.053001075E1;3.907935715E1;1.303283691E1;8.407238960E0
3.054997775E1;2.792955971E1;1.010472870E1;1.711854219E0
3.056071775E1;2.128086090E1;8.145073891E0;-2.418143749E-1
3.057986275E1;1.030344677E1;5.439626217E0;-1.368286252E0
3.059009175E1;6.600813866E0;4.906916618E0;-1.185129881E0
3.061008675E1;2.527079821E0;4.449624062E0;2.346317619E-1
3.062999075E1;6.943184733E-1;4.531026840E0;2.626439333E0
3.065013575E1;-3.258508444E0;4.377797604E0;3.965995073E0
3.066020975E1;-3.623624325E0;4.971560001E0;3.448847532E0
3.067030175E1;-3.811569214E0;5.488707542E0;2.882618904E0
3.069017375E1;-6.198588371E0;4.717774391E0;2.347514868E0
3.070991575E1;-7.939172745E0;3.459621429E0;3.361459255E0
3.071995375E1;-7.724891663E0;3.300406933E0;3.585317135E0
3.074003675E1;-5.012261391E0;3.581725836E0;3.363853455E0
3.075987075E1;1.397016644E0;6.121973515E0;2.557007313E0
3.076992975E1;4.311957359E0;6.925228596E0;2.889801502E0
3.079004275E1;7.241262913E0;6.344634533E0;4.100070477E0
3.080988075E1;1.079066753E1;7.091625214E0;7.575253963E0
3.083000675E1;1.839704514E1;1.134971333E1;9.167398453E0
3.085009375E1;2.677076721E1;8.614337921E0;1.059913063E1
3.087000875E1;3.615244675E1;7.554903507E0;6.874950409E0
3.089041375E1;3.903746033E1;8.246828079E0;-4.908113554E-2
3.090990675E1;3.168486595E1;4.613626480E0;-1.049857497E0
3.091990775E1;2.644635201E1;2.148796082E0;4.405331016E-1
3.094001575E1;1.581250477E1;-2.713827610E0;1.022324085E0
3.095985275E1;7.390900612E0;-5.231330872E0;1.692700624E0
3.096990075E1;3.744531393E0;-6.308721542E0;9.864110947E-1
3.097994175E1;8.463503122E-1;-6.943184853E0;-3.435679376E-1
3.099990875E1;-4.510675907E0;-8.256404877E0;-2.816778183E0
3.101003175E1;-7.155071735E0;-9.252392769E0;-4.013879299E0
3.103014575E1;-8.933963776E0;-9.805453300E0;-3.460818529E0
3.105032775E1;-7.922413349E0;-1.010113716E1;-2.719813108E0
3.106988375E1;-4.347870350E0;-8.972270966E0;-4.235342979E0
3.107989475E1;-2.402581453E0;-8.615534782E0;-4.611232281E0
3.108995275E1;-3.555389643E-1;-8.173804283E0;-4.884171486E0
3.110018475E1;1.950077295E0;-7.357381821E0;-5.085284233E0
3.111985975E1;5.653907299E0;-6.738480568E0;-3.931279182E0
3.113031975E1;8.692149162E0;-5.911283970E0;-3.414131641E0
3.115003175E1;1.535162163E1;-3.241749048E0;-1.912967205E0
3.116995475E1;2.226727295E1;6.787561774E-1;-1.340752959E0
3.118998275E1;2.608961678E1;3.985148668E0;-4.045003891E0
3.120989375E1;3.216609955E1;7.623138428E0;-1.371877551E0
3.122998975E1;3.526659012E1;8.663418770E0;4.736927986E0
3.124986575E1;2.440769005E1;6.816292286E0;5.649118900E0
3.125993675E1;1.847365952E1;6.057330132E0;3.471592426E0
3.126993975E1;1.280538750E1;5.720944881E0;1.611297727E0
3.128010775E1;8.277952194E0;5.717353821E0;3.268085420E-1
3.129033675E1;5.670666695E0;5.770026207E0;1.927332431E-1
3.131018075E1;4.479551315E0;5.877765179E0;4.207809448E0
3.132985675E1;3.011905670E0;5.734113216E0;6.645106792E0
3.133985775E1;2.273294449E0;5.932831764E0;6.985083580E0
3.134991675E1;1.383848548E0;6.089652061E0;6.891709805E0
3.136025075E1;4.465186298E-1;6.161478043E0;6.762422562E0
3.137980575E1;-2.201468468E0;5.428852558E0;4.821922302E0
3.139002075E1;-3.076549292E0;5.200206280E0;4.052186489E0
3.140138975E1;-3.622427225E0;4.942829609E0;3.584120035E0
3.141989175E1;-4.189853191E0;4.478354454E0;2.983175278E0
3.142993075E1;-4.158728123E0;4.328716755E0;2.503137827E0
3.144990475E1;-2.802412987E0;3.786429882E0;3.009511471E0
3.145997575E1;-1.764526606E0;3.532644510E0;3.452438831E0
3.147986775E1;1.711854190E-1;2.954444885E0;3.132812977E0
3.148993875E1;1.982398987E0;3.325546265E0;2.852691412E0
3.150989875E1;6.266822815E0;4.466383457E0;2.572569609E0
3.152990475E1;8.492233276E0;5.178658485E0;5.038597584E0
3.154068175E1;1.028070164E1;5.419275761E0;6.967126846E0
3.156040775E1;1.888905525E1;5.626373768E0;8.135497093E0
3.157052575E1;2.619615746E1;6.473921299E0;8.552088737E0
3.159037675E1;3.660494995E1;7.876923561E0;6.695384979E0
3.160038475E1;3.669113922E1;7.086836815E0;4.408922195E0
3.161987675E1;3.045903397E1;3.768473387E0;1.179144382E0
3.163034475E1;2.200271416E1;6.464344859E-1;1.740584612E0
3.164987075E1;1.203924370E1;-2.910152197E0;2.266111851E0
3.165995775E1;7.615955830E0;-4.382586002E0;1.381454349E0
3.167982875E1;3.536235809E0;-4.912901878E0;-1.376665980E-1
3.169013675E1;3.162740469E0;-4.376600742E0;-1.001973391E0
3.171005775E1;4.893748283E0;-2.003946781E0;-1.740584612E0
3.173007275E1;1.013944387E0;-3.670311213E0;-3.828328609E0
3.175011075E1;-1.272518158E0;-4.793191910E0;-4.896142483E0
3.176992875E1;-2.488772631E0;-4.882974148E0;-6.026205540E0
3.179005975E1;-3.306392431E0;-5.397727966E0;-7.674613476E0
3.180988175E1;-1.722628117E0;-5.755661011E0;-8.076839447E0
3.182985375E1;4.438849926E0;-5.239710331E0;-8.032546997E0
3.183987575E1;7.736862659E0;-4.428076267E0;-6.767210960E0
3.184988775E1;1.113543224E1;-3.466804028E0;-4.533421040E0
3.187015975E1;1.506551456E1;-2.992752075E0;1.540668845E0
3.189005075E1;1.782602882E1;-1.944091797E0;2.328361034E0
3.191003775E1;1.743338013E1;-1.792060018E0;-2.056619167E0
3.192015575E1;1.910812378E1;-1.182735682E0;-3.663128614E0
3.194004575E1;2.870049286E1;1.289277673E0;-3.315969408E-1
3.195997575E1;3.791697311E1;2.140416384E0;1.062905884E1
3.197987075E1;3.151248360E1;1.399410844E0;1.705270195E1
3.199012675E1;2.434543991E1;1.598129630E0;1.410663605E1
3.201010475E1;1.081939793E1;1.345541358E0;5.179855347E0
3.203001575E1;3.894169092E0;3.296815634E0;2.458845139E0
3.204003875E1;3.183091164E0;3.762487888E0;3.129221678E0
3.205042275E1;2.397793055E0;3.997119665E0;4.091690540E0
3.206993675E1;1.576581836E0;4.869806290E0;5.708973885E0
3.208040675E1;1.155202270E0;5.354631901E0;6.242880821E0
3.209985975E1;-6.631938815E-1;6.053739071E0;5.729324818E0
3.210991575E1;-1.270123959E0;6.554127216E0;4.965574265E0
3.212997975E1;-2.747346401E0;6.703764915E0;3.750516891E0
3.215014075E1;-4.090493679E0;5.883750439E0;2.760514498E0
3.216984075E1;-2.712630510E0;5.197812080E0;4.493916512E0
3.218001875E1;-7.960720658E-1;5.092466831E0;5.559336185E0
3.219001975E1;2.005143881E0;5.401319027E0;5.892130375E0
3.220988375E1;7.138312340E0;6.362590790E0;7.503427982E0
3.222002475E1;9.194931984E0;5.869385242E0;8.366538048E0
3.223002775E1;1.072841740E1;6.232107162E0;9.959878922E0
3.224999275E1;1.598129654E1;6.537367821E0;1.057040024E1
3.226995075E1;2.922602081E1;5.094861031E0;1.531211662E1
3.229075875E1;3.525102997E1;-7.733271718E-1;1.557907009E1
3.230990875E1;3.332609177E1;-3.928884983E0;7.639897823E0
3.232990775E1;2.625002670E1;-4.329913616E0;1.545457244E0
3.234004375E1;2.258809662E1;-4.350264549E0;-1.161187813E-1
3.235986475E1;1.619916916E1;-4.921281815E0;-1.758541107E0
3.236989175E1;1.366131496E1;-4.707000732E0;-2.540247917E0
3.239495975E1;6.744466305E0;-3.675099611E0;-4.892550945E0
3.241025975E1;1.623268723E0;-4.125209332E0;-5.236119270E0
3.242994075E1;-3.051409960E0;-4.782417774E0;-5.729324818E0
3.244995175E1;-6.034585476E0;-5.457582951E0;-6.494272232E0
3.246023375E1;-7.072471619E0;-5.888539314E0;-6.886921406E0
3.247991075E1;-7.870938301E0;-6.581660271E0;-7.408857346E0
3.249998175E1;-7.387309551E0;-7.665036678E0;-8.254010201E0
3.251989475E1;-4.102464676E0;-8.558073997E0;-7.775169849E0
3.253005275E1;-1.835155606E0;-8.971074104E0;-6.933608055E0
3.254023875E1;7.182605267E-1;-8.967482567E0;-5.538985729E0
3.255990275E1;5.534197330E0;-8.870517731E0;-2.542642117E0
3.257000075E1;8.543708801E0;-8.289923668E0;-8.822633028E-1
3.259005675E1;1.479736328E1;-5.756857872E0;1.347935557E0
3.260987175E1;1.851675606E1;-5.317522049E0;7.086837292E-1
3.263000075E1;3.020644569E1;1.400607973E-1;5.722141862E-1
3.265004775E1;3.922181320E1;4.197035789E0;8.968679428E0
3.267032875E1;3.576338959E1;4.746504784E0;1.217810726E1
3.269000675E1;2.181117821E1;3.069366693E0;4.760869980E0
3.270987575E1;1.257793903E1;3.896563292E0;-1.266532660E0
3.271996275E1;9.898826599E0;4.763264179E0;-2.251746655E0
3.273003875E1;8.172607422E0;5.402516365E0;-1.709460020E0
3.275000575E1;7.082048416E0;5.986701488E0;2.091335297E0
3.276989675E1;6.123170853E0;6.710947514E0;5.379771233E0
3.278007875E1;5.311536312E0;7.241262913E0;5.968744755E0
3.279019775E1;4.165910721E0;7.577648163E0;5.831078053E0
3.280993875E1;-1.041477770E-1;7.072471619E0;3.547009706E0
3.282991475E1;-2.109291792E0;6.422446251E0;2.229001760E0
3.284991175E1;-3.491943121E0;5.677849293E0;1.191115379E0
3.287004975E1;-3.550601006E0;4.935647011E0;1.781286120E0
3.289013675E1;-2.148796082E0;4.491522312E0;2.936488390E0
3.291002375E1;-6.584054977E-2;3.629609823E0;3.306392431E0
3.292988475E1;3.325546265E0;4.315548420E0;2.106897593E0
3.293998075E1;4.746504784E0;4.205415249E0;1.300051570E0
3.295003875E1;7.163451672E0;4.498704910E0;1.362300754E0
3.296012475E1;1.092833328E1;5.634753704E0;3.597288132E0
3.297993775E1;1.866160583E1;7.471106529E0;6.096834660E0
3.298994775E1;2.068470573E1;6.649895191E0;5.025429249E0
3.300035875E1;2.281913567E1;3.232172251E0;1.966836691E0
3.301994575E1;2.924637032E1;4.103661537E0;2.920926213E-1
3.304002075E1;3.270240021E1;5.208585739E0;4.455609322E0
3.305045075E1;3.018010902E1;3.634398222E0;6.277596951E0
3.306996075E1;2.140057182E1;3.531447649E-1;7.611167431E0
3.308989675E1;1.532049656E1;-1.345541358E0;3.690661907E0
3.311677975E1;8.459911346E0;-2.358288765E0;-1.155202270E0
3.313003575E1;6.427234650E0;-2.562992811E0;-2.250549555E0
3.314012275E1;4.718971729E0;-2.732981205E0;-2.194285870E0
3.315998875E1;7.517793179E-1;-3.934870481E0;-2.225410461E0
3.318001775E1;-3.357867956E0;-5.785588264E0;-4.272452831E0
3.320016875E1;-6.247669220E0;-8.752004623E0;-4.638765812E0
3.321986175E1;-5.792770863E0;-9.688137054E0;-5.324704647E0
3.323016575E1;-4.698620796E0;-9.606734276E0;-6.287173748E0
3.325025675E1;-7.565677166E-1;-8.704120636E0;-6.548141479E0
3.326987575E1;2.946065187E0;-8.429984093E0;-4.355052948E0
3.329009675E1;6.364984989E0;-8.464699745E0;-2.269703150E0
3.330989175E1;1.174116516E1;-6.428431511E0;-1.532289028E0
3.331994475E1;1.577659225E1;-4.432864666E0;-1.848323703E0
3.332999475E1;2.059372520E1;-1.394622445E0;-3.270479441E0
3.335008575E1;2.778351402E1;3.891774893E0;-8.386888504E0
3.337028775E1;3.863882446E1;7.096413612E0;6.117185354E-1
3.339000675E1;3.636313629E1;6.447585106E0;1.218528938E1
3.340999275E1;2.059612083E1;4.198232651E0;7.424419403E0
3.342993875E1;9.665391922E0;4.454412460E0;1.704671621E0
3.344009675E1;6.009446144E0;4.703409195E0;-1.987187415E-1
3.345046875E1;4.226963043E0;5.002684593E0;-1.185129806E-1
3.346988475E1;2.724601507E0;5.230133533E0;3.077746391E0
3.347991875E1;1.887827992E0;5.359420300E0;4.745307922E0
3.349984375E1;-1.547851443E0;4.954800606E0;5.392939091E0
3.350990975E1;-3.118447781E0;4.720168591E0;5.036203384E0
3.352002075E1;-3.872621298E0;4.734533787E0;4.636371613E0
3.353988175E1;-3.854664803E0;5.968744755E0;3.456030130E0
3.354990075E1;-4.601655483E0;5.979518890E0;2.480392933E0
3.355990275E1;-5.112817764E0;5.847837448E0;1.244984865E0
