"Time (s)";"Acceleration x (m/s^2)";"Acceleration y (m/s^2)";"Acceleration z (m/s^2)"
0.000000000E0;8.259996027E-2;3.236960649E0;9.209297180E0
1.282288900E-2;3.411737382E-1;3.203441858E0;9.589975357E0
2.392183300E-2;4.333505034E-1;3.439270735E0;9.674968719E0
3.446780500E-2;4.213795066E-1;3.445256233E0;9.521739960E0
4.475779100E-2;3.651157618E-1;3.314772367E0;9.392453194E0
5.534128400E-2;3.507505357E-1;3.305195332E0;9.419986725E0
6.540803100E-2;3.782838583E-1;3.440467834E0;9.453505516E0
7.654790400E-2;3.770867586E-1;3.537432909E0;9.446322441E0
9.545930900E-2;4.776432514E-1;3.123236179E0;9.089587212E0
1.154619100E-1;1.340752989E-1;2.437297344E0;9.004592896E0
1.256398440E-1;2.406172752E-1;2.597708941E0;9.210494041E0
1.452405440E-1;1.210268974E0;3.165134668E0;9.903614998E0
1.651022190E-1;1.170764685E0;2.947262287E0;9.818621635E0
1.752094980E-1;9.888052940E-1;2.786850691E0;9.579200745E0
1.952142080E-1;1.261744261E0;3.040636063E0;9.295488358E0
2.052719930E-1;1.711854219E0;3.270479441E0;9.267954826E0
2.169733850E-1;1.735796213E0;3.150769472E0;9.798270226E0
2.271520810E-1;1.156399369E0;2.679111719E0;9.613917351E0
2.466248530E-1;-5.626374111E-2;2.007538080E0;9.554061890E0
2.675687960E-1;3.244143426E-1;2.515108824E0;9.398438454E0
2.775882870E-1;5.662286878E-1;2.870647907E0;9.384073257E0
2.949427780E-1;7.469909191E-1;3.181894064E0;9.624691010E0
3.050747780E-1;9.923965931E-1;3.397372246E0;9.852140427E0
3.156897780E-1;1.165976286E0;3.433285236E0;9.720458984E0
3.353587780E-1;9.014169574E-1;2.975992680E0;9.266757965E0
3.549957780E-1;5.183446407E-1;2.172738075E0;9.488221169E0
3.755327780E-1;7.769184709E-1;1.891419291E0;9.829395294E0
3.950627780E-1;1.158793569E0;2.404975653E0;9.696516991E0
4.052997780E-1;1.094150186E0;2.573766708E0;9.563638687E0
4.251427780E-1;8.403648138E-1;2.497152328E0;9.627084732E0
4.351457780E-1;7.649474144E-1;2.383427858E0;9.493009567E0
4.454257780E-1;3.758896589E-1;2.262520552E0;9.161413193E0
4.654237780E-1;-1.233013868E-1;2.272097349E0;9.006986618E0
4.759587780E-1;1.077390760E-1;2.473210335E0;9.351752281E0
4.950057780E-1;8.152256608E-1;2.309207439E0;9.379284859E0
5.057487780E-1;9.900023937E-1;2.048239470E0;8.732851028E0
5.254697780E-1;2.082955360E0;2.339135170E0;9.544485092E0
5.360167780E-1;1.922544003E0;2.410961151E0;9.838972092E0
5.551667780E-1;6.464344859E-1;1.229422569E0;9.402029991E0
5.652337780E-1;9.157821536E-1;1.443703651E0;9.671378136E0
5.852777780E-1;1.782483220E0;3.548206806E0;8.185775757E0
6.059827780E-1;1.188721180E0;2.159569979E0;9.434351921E0
6.168637780E-1;1.483207941E0;2.376245260E0;8.532935143E0
6.351737780E-1;1.480813742E0;2.929305792E0;8.561665535E0
6.454267780E-1;1.188721180E0;2.778470993E0;8.608352661E0
6.649947780E-1;3.184288144E-1;2.190694571E0;8.356961250E0
6.751117780E-1;6.703764945E-2;2.305616140E0;8.067262650E0
6.855017780E-1;7.422025502E-2;2.383427858E0;7.787140846E0
7.052337780E-1;1.080982089E0;2.553416014E0;7.498639584E0
7.155047780E-1;1.482010841E0;2.306813240E0;7.615955830E0
7.352507780E-1;3.453635931E0;1.709460020E0;1.003170490E1
7.550837780E-1;4.695029736E0;8.798691034E-1;9.151836395E0
7.750447780E-1;3.697844505E0;1.051054597E0;9.848548889E0
7.851797780E-1;3.657143116E0;9.732429981E-1;8.207323074E0
8.052367780E-1;4.055777550E0;1.370680451E0;7.876923561E0
8.253407780E-1;2.375048161E0;1.352723986E-1;8.450334549E0
8.354387780E-1;2.159569979E0;-2.011129409E-1;8.798690796E0
8.553977780E-1;3.471592426E0;7.912836671E-1;7.295132637E0
8.657177780E-1;3.314772367E0;7.433996201E-1;7.304709435E0
8.867457780E-1;1.259350061E0;-3.339911401E-1;7.325059891E0
9.056657780E-1;-8.331822157E-1;-1.009155989E0;6.318298340E0
9.250917780E-1;1.316810958E-2;-5.901707411E-1;5.916072369E0
9.353237780E-1;4.118026793E-1;-3.064578176E-1;5.609614372E0
9.551167780E-1;2.184709072E0;2.825157940E-1;6.568492413E0
9.653557780E-1;3.221398354E0;4.884171486E-1;8.015787125E0
9.855537780E-1;3.380612850E0;3.172317147E-1;1.065539455E1
1.005652778E0;1.388636947E0;-2.430114746E-1;1.033217716E1
1.025648778E0;1.359906554E0;6.943184882E-2;8.319850922E0
1.036713778E0;2.433706045E0;6.404489279E-1;6.714538574E0
1.055139778E0;4.863820553E0;2.148796082E0;7.424419403E0
1.075004778E0;4.835090160E0;1.526303530E0;9.253589630E0
1.095786778E0;3.696647406E0;2.394201700E-3;1.111747551E1
1.115591778E0;3.711012602E0;-2.250549644E-1;1.234809494E1
1.135657778E0;3.981557369E0;6.943184882E-2;1.119408989E1
1.155021778E0;4.860229492E0;9.277531505E-1;9.917980194E0
1.165315778E0;5.178658485E0;1.048660398E0;9.281123161E0
1.185364778E0;5.151124954E0;4.776432514E-1;8.404845238E0
1.205059778E0;7.230489254E0;7.841010690E-1;1.077869606E1
1.216365778E0;7.441178799E0;7.218518257E-1;1.117733097E1
1.235104778E0;6.830657482E0;4.082113802E-1;1.037886429E1
1.255234778E0;6.033388138E0;3.471592367E-1;8.373720169E0
1.276759778E0;5.924452305E0;6.691793799E-1;7.352593422E0
1.295155778E0;6.104017258E0;2.322375625E-1;8.842984200E0
1.315088778E0;7.186196327E0;-3.411737382E-1;1.020528507E1
1.325486778E0;7.807491779E0;-3.220201433E-1;1.072243214E1
1.335898778E0;8.324639320E0;-3.627215624E-1;1.086129570E1
1.355139778E0;8.505401611E0;-8.966285586E-1;9.692925453E0
1.375063778E0;8.803479195E0;-7.625532150E-1;8.317456245E0
1.385606778E0;8.744821548E0;-7.062895298E-1;7.684190273E0
1.405218778E0;8.686163902E0;-8.259995580E-1;6.836642742E0
1.425459778E0;8.445546150E0;-1.341950059E0;5.849034786E0
1.445605778E0;7.794323444E0;-1.984793186E0;5.923254967E0
1.456576778E0;7.493851185E0;-2.366668463E0;6.050147533E0
1.476521778E0;7.745242596E0;-2.398990154E0;6.217741966E0
1.487472778E0;8.252813339E0;-1.990778685E0;5.955576897E0
1.500570778E0;8.904036522E0;-1.824381709E0;5.437232018E0
1.515117778E0;8.615534782E0;-1.952471495E0;5.096058369E0
1.525226778E0;8.152256966E0;-2.081758261E0;4.607641220E0
1.536145778E0;7.661445618E0;-2.246958256E0;4.170699596E0
1.555105778E0;7.260416508E0;-2.731784105E0;3.933673382E0
1.575377778E0;8.164227486E0;-2.513911724E0;5.692214489E0
1.595045778E0;9.312247276E0;-1.952471495E0;5.594052315E0
1.605132778E0;9.052476883E0;-1.879448295E0;5.181052685E0
1.615711778E0;9.276334763E0;-1.698686123E0;4.631583214E0
1.635465778E0;8.793902397E0;-1.958456993E0;3.560178041E0
1.655067778E0;7.835024834E0;-2.718616009E0;3.235763550E0
1.675226778E0;7.702147007E0;-3.277662039E0;4.041412354E0
1.686866778E0;8.231265068E0;-3.132812977E0;4.763264179E0
1.705301778E0;9.409213066E0;-2.784456491E0;5.765237808E0
1.729805778E0;8.787917137E0;-3.390189648E0;4.587290287E0
1.745089778E0;8.075642586E0;-4.016273499E0;2.731784105E0
1.755548778E0;8.214506149E0;-4.188655853E0;2.087743998E0
1.775079778E0;8.753201485E0;-4.162319660E0;2.749740601E0
1.785410778E0;8.546102524E0;-4.120420933E0;2.169146776E0
1.805370778E0;1.002691650E1;-3.204638958E0;2.663549423E0
1.825564778E0;1.014902115E1;-3.037044764E0;2.586935043E0
1.845074778E0;8.532935143E0;-3.475183725E0;1.154005170E0
1.855235778E0;7.702147007E0;-3.890577793E0;1.244984865E-1
1.875218778E0;5.898116112E0;-4.254496574E0;3.196259141E-1
1.887649778E0;6.375759125E0;-3.791218281E0;8.738836050E-1
1.905163778E0;8.014590263E0;-3.191470861E0;1.149216816E-1
1.925078778E0;9.728838921E0;-4.173093796E0;-1.113303825E-1
1.937421778E0;1.151730728E1;-4.534617901E0;1.680729628E0
1.955096778E0;1.197459984E1;-3.593696833E0;4.909310818E0
1.975018778E0;1.051054573E1;-4.903325081E0;2.126051188E0
1.985636778E0;7.297526836E0;-5.503072739E0;-1.641225219E0
2.005086778E0;6.251260757E0;-5.596446514E0;-1.720233917E0
2.025167778E0;8.261193275E0;-6.244078159E0;-7.900865674E-1
2.035909778E0;9.999382973E0;-6.094440460E0;7.218518257E-1
2.046123778E0;9.959878922E0;-5.889736176E0;3.027467966E0
2.065134778E0;8.274360657E0;-6.605602264E0;2.427720547E0
2.085496778E0;8.337807655E0;-6.266822815E0;-1.675941236E-2
2.105530778E0;9.145850182E0;-6.469132900E0;4.896142483E-1
2.115569778E0;9.908403397E0;-6.311115742E0;3.040636182E-1
2.135028778E0;1.584722137E1;-2.534262419E0;-2.525882721E0
2.155101778E0;1.232535076E1;-6.263231754E0;7.145494938E0
2.175051778E0;9.267954826E0;-6.026205540E0;4.833893299E0
2.185802778E0;1.647210717E0;-8.227674484E0;2.813186944E-1
2.205080778E0;-3.690661907E0;-8.848969460E0;-5.578489780E0
2.215105778E0;-2.919728994E0;-7.821856976E0;-5.829881191E0
2.225172778E0;2.932897210E-1;-6.771999359E0;-2.952050686E0
2.235542778E0;2.541445017E0;-6.297947407E0;-7.625532150E-1
2.255167778E0;7.098807812E0;-4.589684486E0;2.053027868E0
2.265188778E0;6.847416878E0;-4.843470097E0;2.080561161E0
2.285139778E0;5.918466568E0;-5.096058369E0;6.452373862E-1
2.305144778E0;5.546168327E0;-4.617218018E0;-9.768342972E-1
2.315176778E0;6.295553207E0;-4.698620796E0;-9.145850539E-1
2.335462778E0;6.366182327E0;-5.194220543E0;-1.017535701E-1
2.355635778E0;8.194155693E0;-6.369773388E0;8.738836050E-1
2.375102778E0;1.006881523E1;-5.973533154E0;8.128314614E-1
2.385484778E0;1.055842972E1;-7.046135426E0;2.920926094E0
2.405130778E0;9.763554573E0;-6.271611214E0;2.141613483E0
2.426042778E0;7.563282967E0;-7.107187748E0;4.022258818E-1
2.445115778E0;4.848258495E0;-8.514978409E0;2.375048161E0
2.455144778E0;4.037821293E0;-9.139864922E0;2.604891539E0
2.465150778E0;4.128800869E0;-9.029731750E0;1.851915002E0
2.475827778E0;4.264073372E0;-8.540117264E0;1.280897856E0
2.495798778E0;4.151545525E0;-8.456320763E0;1.037886381E0
2.515505778E0;6.441599846E0;-8.378508568E0;-4.353855610E0
2.535799778E0;6.217741966E0;-8.957905769E0;-2.555810213E0
2.555409778E0;6.235698223E0;-8.857349396E0;2.863465309E0
2.575110778E0;5.683835030E0;-8.415618896E0;3.016694188E-1
2.585303778E0;4.979939461E0;-8.503006935E0;4.082113802E-1
2.595329778E0;4.659116745E0;-8.188169479E0;7.422025204E-1
2.615001778E0;5.005078793E0;-7.307103634E0;2.825157940E-1
2.625109778E0;5.106832027E0;-7.234080315E0;-3.232172132E-2
2.636069778E0;4.939238071E0;-7.517793179E0;-1.197100803E-2
2.655124778E0;4.655525208E0;-7.570465565E0;6.416460276E-1
2.665799778E0;4.418499470E0;-7.589619160E0;7.457938194E-1
2.676616778E0;4.423287868E0;-7.851784706E0;6.667851806E-1
2.695109778E0;5.673060894E0;-8.852560997E0;-2.334346622E-1
2.705109778E0;5.780799866E0;-9.555258751E0;-8.379706182E-3
2.725417778E0;4.608838081E0;-8.998606682E0;5.865794420E-1
2.745057778E0;4.649539471E0;-8.656236649E0;2.382230759E-1
2.755128778E0;4.207809448E0;-8.377311707E0;4.429273307E-2
2.765167778E0;3.695450306E0;-8.045714378E0;3.471592441E-2
2.775190778E0;3.229778051E0;-7.169436932E0;-1.077390760E-1
2.795110778E0;4.304774761E0;-6.445190907E0;-2.613271236E0
2.805198778E0;4.788403511E0;-7.065289021E0;6.428431273E-1
2.815550778E0;4.103661537E0;-7.556100368E0;1.545457244E0
2.835912778E0;2.639607430E0;-8.779537201E0;2.881421804E0
2.852578778E0;2.723404408E0;-9.797073364E0;3.447650373E-1
2.865616778E0;2.370259762E0;-9.755174637E0;-9.923965931E-1
2.885357778E0;3.258508444E0;-1.034295177E1;-6.607996821E-1
2.905146778E0;4.016273499E0;-1.047822380E1;-1.874659896E0
2.915765778E0;3.934870481E0;-1.052969933E1;-1.678335428E0
2.939818778E0;4.717774391E0;-1.261145782E1;-4.728548229E-1
2.955144778E0;5.127182961E0;-1.175193882E1;-1.072602391E0
2.965148778E0;4.944026470E0;-9.271546364E0;-5.231330991E-1
2.985574778E0;3.806780815E0;-8.918401718E0;-7.529764175E-1
3.005088778E0;3.784035683E0;-9.166201591E0;-6.165069342E-1
3.025009778E0;6.715735793E-1;-6.041768074E0;8.056488633E-1
3.035496778E0;1.175553083E0;-4.009090900E0;1.198297977E0
3.055047778E0;2.227804661E0;-2.956839085E0;-1.551442742E0
3.065767778E0;1.848323703E0;-3.268085241E0;-1.806425214E0
3.085290778E0;1.145625472E0;-3.056198359E0;-1.017535686E0
3.105418778E0;6.153098345E-1;-2.030282974E0;-9.540894032E-1
3.125045778E0;3.375824392E-1;-1.619677424E0;-2.275688648E0
3.135848778E0;1.675941236E-2;-1.124077678E0;-2.217030764E0
3.155039778E0;5.626374111E-2;-6.050147533E0;-1.306037068E0
3.165262778E0;4.149151325E0;-1.941817284E1;5.803544998E0
3.185561778E0;3.794809580E0;-2.666302681E1;8.440757751E0
3.206148778E0;3.919308186E0;-2.851135063E1;4.675876141E0
3.225469778E0;2.454056740E-1;-1.662533569E1;-1.109353352E1
3.235493778E0;6.416460276E-1;-9.344569206E0;-1.745014000E1
3.245551778E0;5.087678432E-1;-6.587646008E0;-9.583989143E0
3.265229778E0;-4.261679053E-1;-4.699818134E0;1.321599364E0
3.275852778E0;6.703764796E-1;-5.103240967E0;2.876633406E0
3.286941778E0;2.121262789E0;-6.342240334E0;3.678690910E0
3.305045778E0;3.822343111E0;-8.923190117E0;2.979583979E0
3.315151778E0;3.971980572E0;-9.819818497E0;2.176329374E0
3.325512778E0;3.531447411E0;-1.040280628E1;1.340752959E0
3.345099778E0;2.044648170E0;-1.068292809E1;-1.034295082E0
3.365074778E0;1.985990286E0;-8.999804497E0;-2.845508814E0
3.385103778E0;2.349909067E0;-8.706514359E0;-5.195417404E-1
3.395191778E0;2.466027737E0;-8.796297073E0;2.896983922E-1
3.405527778E0;2.681505919E0;-8.955511093E0;8.020575643E-1
3.424986778E0;3.031059265E0;-9.452308655E0;5.195417404E-1
3.435187778E0;3.096899986E0;-9.673771858E0;-1.161187813E-1
3.445911778E0;3.248931646E0;-9.554061890E0;-7.266402245E-1
3.465185778E0;2.516305923E0;-9.220070839E0;-9.624691010E-1
3.479471778E0;2.073378563E0;-9.259574890E0;-8.655039072E-1
3.495092778E0;1.873462796E0;-9.107542992E0;-5.542576909E-1
3.505166778E0;1.848323703E0;-9.165003777E0;-6.260837317E-1
3.526067778E0;1.804031014E0;-9.610325813E0;-3.615244627E-1
3.546350778E0;2.086546898E0;-9.495404243E0;-3.591302549E-3
3.565244778E0;2.075772762E0;-9.405621529E0;-3.734954596E-1
3.586730778E0;2.330755472E0;-9.336189270E0;-9.457096457E-1
3.605150778E0;2.434903145E0;-9.285911560E0;-5.470750928E-1
3.625399778E0;2.548627615E0;-9.142259598E0;2.513911761E-2
3.636455778E0;2.546233416E0;-9.113529205E0;-1.197100850E-3
3.655127778E0;2.500743628E0;-9.247604370E0;-1.855506301E-1
3.674992778E0;2.494758129E0;-9.445125580E0;-7.637503147E-1
3.687501778E0;2.470816135E0;-9.443928719E0;-7.206547260E-1
3.705093778E0;2.391807556E0;-9.137471199E0;-2.489969730E-1
3.725053778E0;2.422932148E0;-9.045293808E0;-9.696517140E-2
3.735404778E0;2.421735048E0;-9.346963882E0;-3.292027414E-1
3.755454778E0;2.767697096E0;-9.297882080E0;-9.349357486E-1
3.775568778E0;2.640804529E0;-9.048885345E0;-3.603273630E-1
3.795045778E0;2.304419041E0;-9.448717117E0;-2.657563984E-1
3.805107778E0;2.254140854E0;-9.536105156E0;-4.548983276E-1
3.825213778E0;2.383427858E0;-9.126696587E0;-4.237737060E-1
3.845204778E0;2.474407434E0;-9.015366554E0;-6.452373862E-1
3.865076778E0;2.703053713E0;-9.161413193E0;-5.734112859E-1
3.885193778E0;2.432508945E0;-9.470264435E0;-4.955997467E-1
3.905268778E0;2.396595955E0;-9.261969566E0;-6.835445762E-1
3.925047778E0;2.369062662E0;-9.400833130E0;-7.422025204E-1
3.937128778E0;2.566584110E0;-9.276334763E0;-2.609679997E-1
3.955155778E0;2.541445017E0;-9.212887764E0;-1.843535304E-1
3.975012778E0;2.562992811E0;-9.068038940E0;-3.854664862E-1
3.985516778E0;2.706645012E0;-8.996212959E0;-6.296750307E-1
4.005056778E0;2.826355219E0;-9.278728485E0;-8.631097078E-1
4.015085778E0;2.764105797E0;-9.387664795E0;-4.955997467E-1
4.025216778E0;2.665943623E0;-9.394847870E0;-2.011129409E-1
4.035551778E0;2.530671120E0;-9.495404243E0;-4.979939461E-1
4.045697778E0;2.427720547E0;-9.494206429E0;-8.882488012E-1
4.065190778E0;2.469619036E0;-9.246406555E0;-6.967126727E-1
4.075960778E0;2.420537949E0;-9.288305283E0;-1.197100850E-3
4.095387778E0;2.773682594E0;-9.035717010E0;3.292027414E-1
4.115587778E0;2.837129116E0;-9.022548676E0;-6.691793799E-1
4.135514778E0;2.316390038E0;-9.558850288E0;-8.583213091E-1
4.155352778E0;2.594117641E0;-9.755174637E0;-7.182605099E-3
4.175122778E0;3.319560766E0;-9.369708061E0;-8.655039072E-1
4.185492778E0;3.263296843E0;-9.466673851E0;-5.650315881E-1
4.205307778E0;3.306392431E0;-8.734047890E0;-8.152256608E-1
4.225682778E0;3.992331266E0;-7.167042732E0;-1.636436820E0
4.236299778E0;1.310825467E0;-1.014423275E1;3.591302410E-2
4.255091778E0;1.577778935E0;-9.469067574E0;-3.591302410E-2
4.265194778E0;2.072181463E0;-9.161413193E0;-3.160346150E-1
4.285326778E0;2.316390038E0;-9.289502144E0;-2.250549644E-1
4.305148778E0;1.672349930E0;-1.065180302E1;-1.200692177E0
4.315855778E0;1.999158382E0;-9.747992516E0;-8.283938169E-1
4.335079778E0;2.261323452E0;-9.417592049E0;-5.674257874E-1
4.355247778E0;3.375824451E0;-8.507795334E0;-5.770025849E-1
4.365257778E0;3.264493942E0;-8.081627846E0;-1.031900883E0
4.385553778E0;2.029085875E0;-9.319430351E0;-1.508347094E-1
4.405090778E0;3.186682463E0;-8.354566574E0;-6.979097724E-1
4.424981778E0;2.081758261E0;-1.010113716E1;-2.920926213E-1
4.435085778E0;2.573766708E0;-9.706093788E0;-2.657563984E-1
4.445709778E0;3.180696964E0;-8.841787338E0;-6.141127348E-1
4.465003778E0;2.740163803E0;-9.917980194E0;-6.619967818E-1
4.475345778E0;3.296815634E0;-8.947132111E0;-1.244984865E0
4.485450778E0;2.667140722E0;-9.424775124E0;-4.153940082E-1
4.505310778E0;2.431311846E0;-8.850166321E0;-5.374982953E-1
4.525800778E0;3.070563793E0;-8.317456245E0;-7.793126702E-1
4.545606778E0;2.252943754E0;-9.520543098E0;-7.817068696E-1
4.556401778E0;2.467224836E0;-1.006642151E1;-4.668693244E-1
4.575058778E0;3.550601006E0;-9.832986832E0;-5.614402890E-1
4.585276778E0;3.651157618E0;-9.897629738E0;-7.601590157E-1
4.605112778E0;4.805162907E0;-9.258378029E0;-2.401384354E0
4.625682778E0;2.409764051E0;-7.290344238E0;1.216254473E0
4.645885778E0;1.855506301E0;-8.318654060E0;8.846575022E-1
4.656488778E0;2.706645012E0;-7.648277283E0;-1.735796183E-1
4.675018778E0;3.088520288E0;-7.908048153E0;-4.704606235E-1
4.685744778E0;2.861071110E0;-8.219294548E0;-1.927332431E-1
4.705015778E0;2.566584110E0;-7.830236435E0;-2.825157940E-1
4.715348778E0;2.056619167E0;-7.309497833E0;-8.259995580E-1
4.735159778E0;1.792060018E0;-7.765593052E0;-1.182735682E0
4.755388778E0;1.757344007E0;-8.513781548E0;-1.194706678E0
4.775172778E0;2.445677042E0;-8.285135269E0;-2.420537949E0
4.785614778E0;3.716998100E0;-7.887697697E0;-2.146401882E0
4.805158778E0;5.811924458E0;-8.184578896E0;-2.378639460E0
4.815701778E0;4.926070213E0;-1.115937424E1;-1.266532660E0
4.835413778E0;2.991554976E0;-1.475187397E1;6.428431273E-1
4.855202778E0;3.898957491E0;-8.747216225E0;7.876923680E-1
4.875074778E0;2.725798607E0;-7.796717644E0;-1.309628367E0
4.885430778E0;2.925714493E0;-7.770381451E0;-1.874659896E0
4.899830778E0;2.337938070E0;-9.070432663E0;-1.233013868E0
4.915152778E0;2.256535053E0;-9.391256332E0;-8.068459630E-1
4.925221778E0;3.093308687E0;-9.238027573E0;-1.085770488E0
4.936147778E0;3.410540342E0;-9.156624794E0;-1.856703401E0
4.955730778E0;3.655946016E0;-9.051279068E0;-3.610456228E0
4.969405778E0;3.737348795E0;-8.948328972E0;-4.187458992E0
4.985194778E0;3.837905407E0;-8.889671326E0;-4.683058739E0
4.997962778E0;3.779247284E0;-9.008183479E0;-4.672284603E0
5.015103778E0;4.030638695E0;-9.351752281E0;-4.151545525E0
5.025189778E0;4.463989258E0;-9.545681953E0;-4.186261654E0
5.035642778E0;4.984727859E0;-9.631873131E0;-4.262876034E0
5.055400778E0;5.622782707E0;-9.691728592E0;-4.065354347E0
5.065651778E0;5.925649166E0;-9.815030098E0;-4.638765812E0
5.085522778E0;6.641515732E0;-1.074278259E1;-6.737283707E0
5.105132778E0;6.369773388E0;-1.284249783E1;-8.088809967E0
5.125181778E0;2.451662540E0;-1.415212631E1;-9.959878922E0
5.145168778E0;2.420537949E0;-1.297417927E1;-6.915651798E0
5.165015778E0;3.470395327E0;-1.228105736E1;9.636662006E-1
5.185539778E0;3.867832899E0;-1.285566616E1;4.497508049E0
5.205059778E0;3.863044500E0;-1.139879417E1;1.286883354E0
5.215106778E0;4.353855610E0;-1.150653362E1;2.753331959E-1
5.225518778E0;4.191050053E0;-1.249892998E1;-2.602497339E0
5.236026778E0;5.542576790E0;-1.242231560E1;-7.327454090E0
5.255468778E0;6.151901245E0;-1.159152794E1;-1.151491261E1
5.275411778E0;8.511387110E-1;-1.161906052E1;-6.667851925E0
5.285963778E0;-6.464344859E-1;-1.072722054E1;-3.796006680E0
5.305213778E0;-1.443703651E0;-8.540117264E0;-6.584054977E-2
5.325216778E0;-2.410961151E0;-8.182184219E0;-5.189432144E0
5.336281778E0;-1.999158382E0;-8.064867973E0;-4.596867085E0
5.355478778E0;-8.271966577E-1;-6.420052052E0;-1.875856996E0
5.375341778E0;-1.836352706E0;-5.076904774E0;-2.136825085E0
5.385723778E0;-2.281674147E0;-4.291606426E0;-1.952471495E0
5.396323778E0;-2.336740971E0;-3.604470730E0;-1.732204914E0
5.415598778E0;-2.419340849E0;-2.567781210E0;-2.218227863E0
5.435361778E0;-1.586158633E0;-1.720233917E0;-2.732981205E0
5.445568778E0;-9.361328483E-1;-1.596932530E0;-2.750937700E0
5.465357778E0;5.506663769E-2;-1.944091797E0;-4.216189384E0
5.485957778E0;-9.504981041E-1;-2.397793055E0;-4.951209068E0
5.505265778E0;-2.424129248E0;-1.748964310E0;-4.697423935E0
5.515322778E0;-4.519055843E0;-1.351526856E0;-5.224148273E0
5.535173778E0;-4.535815239E0;-1.188721180E0;-6.380547523E0
5.545808778E0;-4.274847031E0;-1.526303530E0;-8.599972725E0
5.565748778E0;-5.403713226E0;-3.733757496E0;-1.418205357E1
5.585466778E0;-5.258863926E0;-8.510190010E0;-1.873103714E1
5.595578778E0;-3.727771997E0;-1.056680965E1;-2.080681038E1
5.615419778E0;-1.762132406E0;-7.679401875E0;-1.502600956E1
5.636230778E0;-2.036268473E0;-2.505532026E0;4.485537052E0
5.655173778E0;-7.891288757E0;-4.994304657E0;3.029862165E0
5.675101778E0;-1.504875469E1;-7.386112213E0;-8.298302650E0
5.687477778E0;-8.115146637E0;-6.347028732E0;-7.413645744E0
5.705084778E0;-8.463503122E-1;-1.010113716E1;-5.389348030E0
5.715099778E0;9.576806426E-2;-9.684545517E0;-8.384494781E0
5.735679778E0;-1.133654475E0;-7.218518257E0;-6.464344501E0
5.755327778E0;-2.747346401E0;-7.134721279E0;-3.460818529E0
5.775445778E0;-4.052186489E0;-7.677007675E0;-3.192667961E0
5.795199778E0;-4.691438198E0;-8.838195801E0;-3.971980572E0
5.805294778E0;-4.565742493E0;-9.457097054E0;-3.665522814E0
5.825059778E0;-2.800018787E0;-9.827000618E0;-3.388992548E0
5.835092778E0;-1.454477549E0;-9.697713852E0;-3.541024208E0
5.845296778E0;-2.334346622E-1;-9.425971985E0;-3.458424330E0
5.865012778E0;9.564836025E-1;-9.394847870E0;-2.962824583E0
5.875369778E0;1.759738207E0;-9.471462250E0;-2.881421804E0
5.895221778E0;2.551021814E0;-1.007001209E1;-3.289633036E0
5.905794778E0;2.747346401E0;-1.109712505E1;-3.761290789E0
5.925168778E0;2.776076794E0;-1.103726959E1;-3.892971992E0
5.935808778E0;3.113659382E0;-1.071165848E1;-3.995922565E0
5.955351778E0;3.871424198E0;-9.725247383E0;-3.201047659E0
5.965882778E0;4.329913616E0;-9.227252960E0;-2.987963676E0
5.985497778E0;5.137956619E0;-8.571242332E0;-3.099294186E0
5.995684778E0;5.511452198E0;-8.556877136E0;-3.586514235E0
6.015108778E0;6.786364555E0;-8.662221909E0;-4.917690277E0
6.025870778E0;7.410054207E0;-8.672995567E0;-5.074510574E0
6.045415778E0;6.120776653E0;-8.706514359E0;-5.176264286E0
6.065126778E0;2.573766708E0;-8.352172852E0;-6.053739071E0
6.085282778E0;2.657563984E-1;-6.906075001E0;-5.196614742E0
6.105153778E0;-2.633621931E0;-5.361814499E0;-4.365826607E0
6.126319778E0;-9.457096457E-1;-4.632780075E0;-4.630385876E0
6.145037778E0;1.602918029E0;-5.008669853E0;-4.411316395E0
6.155243778E0;2.910152197E0;-5.594052315E0;-4.276044369E0
6.165294778E0;3.687070608E0;-6.630741596E0;-4.367023945E0
6.175346778E0;4.298789024E0;-7.596801758E0;-4.363432407E0
6.185411778E0;4.471171856E0;-8.378508568E0;-4.012681961E0
6.195413778E0;3.969586372E0;-9.105149269E0;-2.527079821E0
6.215131778E0;3.052607059E0;-1.006402683E1;1.661576033E0
6.225296778E0;2.771288395E0;-1.026753426E1;2.272097349E0
6.236320778E0;2.620453835E0;-1.056202126E1;2.093729496E0
6.255190778E0;1.893813491E0;-1.176151562E1;1.328781962E0
6.274997778E0;2.681505919E0;-1.306156731E1;2.584540844E0
6.285306778E0;3.179499865E0;-1.378581333E1;5.102043629E0
6.305033778E0;5.669469833E0;-1.535521221E1;1.604115129E0
6.325035778E0;5.546168327E0;-1.481412315E1;-7.091625214E0
6.335762778E0;7.126341343E0;-1.414254951E1;-8.499416351E0
6.355110778E0;7.848193169E0;-1.438556099E1;-4.334702015E0
6.365341778E0;4.539406300E0;-1.433408546E1;-3.162740469E0
6.375630778E0;2.694674015E0;-1.343027401E1;-5.127182961E0
6.395116778E0;9.097966552E-2;-1.280778217E1;-1.059194851E1
6.405564778E0;-5.219359994E-1;-1.262821674E1;-1.207515621E1
6.425111778E0;-1.101332784E0;-1.213980007E1;-1.481532001E1
6.435956778E0;1.675941236E-2;-1.158314800E1;-1.677138329E1
6.455074778E0;2.225410461E0;-1.311543655E1;-1.004966164E1
6.465402778E0;1.458068848E0;-1.492425632E1;3.088520169E-1
6.475554778E0;1.103726983E0;-1.567723274E1;9.827000618E0
6.495163778E0;5.183446407E-1;-1.182256794E1;7.101202011E0
6.505317778E0;-5.386953801E-2;-1.250611305E1;5.125985622E0
6.525596778E0;-2.109291792E0;-1.355118179E1;1.887827992E0
6.535658778E0;-2.337938070E0;-1.356913853E1;6.404489279E-1
6.545802778E0;-2.329558372E0;-1.330457878E1;-1.538274646E0
6.565191778E0;-2.460042238E0;-1.267729759E1;-9.837775230E0
6.585373778E0;3.462015629E0;-1.563413715E1;-2.388335991E1
6.605075778E0;2.262520552E0;-1.859815788E1;-4.803965569E0
6.625238778E0;5.236119270E0;-1.527380943E1;8.508993149E0
6.636326778E0;7.522581577E0;-1.254801083E1;3.866635799E0
6.655153778E0;4.441244125E0;-1.272398472E1;-1.260786629E1
6.675075778E0;4.453215122E0;-1.398213768E1;-1.048660374E1
6.685125778E0;6.379350662E0;-1.227507210E1;-2.925714493E0
6.705099778E0;3.924096584E0;-7.097610950E0;8.396465302E0
6.715604778E0;1.487996340E0;-4.975151062E0;7.882909298E0
6.735128778E0;-1.582567334E0;-1.831564307E-1;3.341108561E0
6.755142778E0;-5.668272495E0;1.976413488E0;2.042253971E0
6.765689778E0;-3.846285105E0;3.677493811E0;2.476801634E0
6.785763778E0;-2.990357876E0;2.597708941E0;2.659958124E0
6.805771778E0;-3.148375154E-1;2.565387011E0;1.940500498E0
6.825218778E0;-4.010287821E-1;4.750096321E0;2.741360962E-1
6.835395778E0;-1.656787634E0;5.416881561E0;-1.132457376E0
6.855154778E0;-5.639542103E0;4.206612587E0;-3.993528366E0
6.875501778E0;-6.588842869E0;2.094926596E0;-8.427590370E0
6.885914778E0;-3.517082214E0;6.153098345E-1;-9.629479408E0
6.905245778E0;-3.166331768E0;-5.147533491E-2;-9.501389503E0
6.915329778E0;-4.806359768E0;-4.285621047E-1;-8.711302757E0
6.935484778E0;-1.698805809E1;-3.456030130E0;-1.680490112E1
6.955193778E0;-1.621113968E1;-1.948760414E1;-2.006939507E1
6.975040778E0;-3.363853455E0;-1.686236191E1;-1.915840149E1
6.985089778E0;3.519476354E-1;-1.075834560E1;-1.174355984E0
7.005187778E0;-3.312378168E0;3.377021551E0;1.056441498E1
7.025383778E0;-1.314775848E1;7.404068947E0;-8.735244751E0
7.035417778E0;-4.975151062E0;2.251746655E0;-5.792770863E0
7.046003778E0;2.980781198E-1;-4.868608952E0;-6.478709698E0
7.065134778E0;1.399410844E0;-1.436161900E1;-8.276755333E0
7.085126778E0;-2.754528999E0;-1.632486343E1;-5.448006153E0
7.095158778E0;-1.778891921E0;-1.213860226E1;-4.394556999E0
7.105235778E0;-8.978256583E-1;-7.820659637E0;-3.883395195E0
7.125205778E0;-9.421183467E-1;-4.080916882E0;-4.357447147E0
7.137187778E0;-1.237802267E0;-4.071340084E0;-3.823540211E0
7.155071778E0;-8.966285586E-1;-5.246892929E0;-3.841496706E0
7.175158778E0;-1.101332784E0;-7.764396191E0;-3.587711334E0
7.185581778E0;-9.923965931E-1;-8.784325600E0;-3.722983599E0
7.205167778E0;-7.948749661E-1;-1.041357994E1;-3.155557871E0
7.215175778E0;-4.405331016E-1;-1.064821243E1;-1.867477298E0
7.235655778E0;1.065419793E0;-1.049857426E1;-1.071405292E0
7.255100778E0;2.250549555E0;-1.108036518E1;-9.026140571E-1
7.265293778E0;3.693056107E0;-1.146822643E1;-1.104924083E0
7.285098778E0;6.184223175E0;-1.198058510E1;-2.182314873E0
7.295121778E0;8.085219383E0;-1.158793640E1;-3.117250681E0
7.315544778E0;9.160215378E0;-1.033457184E1;-6.803123951E0
7.335461778E0;7.214926720E0;-1.027112484E1;-8.398859978E0
7.355595778E0;6.111199856E0;-9.503783226E0;-5.971138954E0
7.367425778E0;6.953958988E0;-8.022970200E0;-4.084507942E0
7.380471278E0;6.851007938E0;-5.649118900E0;-8.152256608E-1
7.395136778E0;5.972336292E0;-5.682637691E0;-1.284489155E0
7.405392778E0;4.135983467E0;-5.697002888E0;-2.262520552E0
7.425541778E0;-8.571242094E-1;-5.279214859E0;-2.632424831E0
7.442665778E0;-4.118026733E0;-5.499481201E0;-2.334346771E0
7.455561778E0;-3.925293684E0;-4.961983204E0;-3.280056238E0
7.475051778E0;1.984793186E0;-2.503137827E0;-5.846640587E0
7.485514778E0;2.054224968E0;-3.160346270E0;-4.697423935E0
7.495889778E0;8.164227605E-1;-4.686649799E0;-3.763684988E0
7.515117778E0;8.702923059E-1;-6.408081055E0;-7.852981687E-1
7.525136778E0;2.100912094E0;-7.096413612E0;1.194706678E0
7.545156778E0;4.029441357E0;-9.831789017E0;2.274491549E0
7.565121778E0;5.582081318E0;-1.359667110E1;2.414552450E0
7.575641778E0;5.799953461E0;-1.514811420E1;2.382230759E0
7.586404778E0;5.351040840E0;-1.628895187E1;2.485181332E0
7.605169778E0;4.614823818E0;-1.716882133E1;2.774879694E0
7.615890778E0;4.778826714E0;-1.664448929E1;2.343923569E0
7.640822778E0;6.909666061E0;-1.629134560E1;-1.581370234E0
7.655787778E0;8.372523308E0;-1.493742466E1;-1.304839897E1
7.675044778E0;6.046556473E0;-1.231098557E1;-8.820239067E0
7.685852778E0;4.340687752E0;-1.203086376E1;-1.030464458E1
7.705164778E0;6.272808313E-1;-1.372954941E1;-1.215536213E1
7.725179778E0;-5.243301988E-1;-1.441429138E1;-1.040520096E1
7.735679778E0;-5.363011956E-1;-1.419881344E1;-7.576451302E0
7.755230778E0;-1.242590666E0;-1.334528065E1;1.191115379E0
7.775018778E0;-1.146822572E0;-1.238759995E1;3.253720045E0
7.785488778E0;-1.508347034E0;-1.374750614E1;3.258508444E0
7.805244778E0;-3.063380957E0;-1.796968079E1;5.530605912E-1
7.825342778E0;-2.434903145E0;-1.869991302E1;-2.782062292E0
7.835466778E0;-2.357091665E0;-1.813607788E1;-4.381389141E0
7.855116778E0;1.935712099E0;-1.705868721E1;-1.303403378E1
7.865273778E0;3.421314240E0;-1.733402061E1;-9.075222015E0
7.886924778E0;2.669534981E-1;-1.619318390E1;-1.732204914E0
7.905494778E0;2.081758261E0;-1.368765068E1;1.587355733E0
7.925289778E0;5.236119270E0;-1.219366932E1;-2.622848034E0
7.935919778E0;5.497087002E0;-1.304720211E1;-7.568071365E0
7.955100778E0;7.542932510E0;-1.456752014E1;-8.743624687E0
7.965605778E0;8.822632790E0;-1.386482239E1;-6.125565052E0
7.985093778E0;9.894038200E0;-8.667010307E0;4.358644009E0
7.995169778E0;7.147889137E0;-6.442796707E0;7.979874134E0
8.015187778E0;4.667496204E0;-3.187879562E0;7.192182064E0
8.025692778E0;2.958036184E0;-1.181538582E0;8.389283180E0
8.036254778E0;5.937620401E-1;1.218648672E0;6.519411087E0
8.055117778E0;-4.096478939E0;4.669890404E0;3.426102638E0
8.075082778E0;-2.698265314E0;3.737348795E0;5.543774128E0
8.085787778E0;-3.514688015E0;2.287659645E0;3.960009575E0
8.105184778E0;-2.334346771E0;3.518279314E0;1.007958889E0
8.125144778E0;-2.732981205E0;5.645527840E0;-3.886986494E0
8.135514778E0;-3.904942989E0;5.262455463E0;-5.829881191E0
8.156151778E0;-4.307168961E0;2.254140854E0;-9.135076523E0
8.175544778E0;-3.418920040E0;-5.746084079E-2;-1.266293240E1
8.186254778E0;-3.639186621E0;-5.147533491E-2;-1.408269405E1
8.205344778E0;-4.426878929E0;1.532289028E0;-1.601840591E1
8.215400778E0;-5.141548157E0;1.734599113E0;-1.125035381E1
8.235353778E0;-8.420407295E0;1.827973008E0;2.785653591E0
8.255139778E0;-3.620272446E1;-2.044169426E1;-8.918401718E0
8.275046778E0;6.755239964E0;-8.222886086E0;-1.987187386E0
8.285845778E0;5.037400246E0;-3.234566450E0;1.627099419E1
8.305503778E0;-1.801397324E1;3.618835926E0;-1.186925507E1
8.325118778E0;-2.800018787E0;-2.645592928E0;1.154005170E0
8.335426778E0;1.618480325E0;-7.629123688E0;-2.072181463E0
8.355564778E0;-1.321599364E0;-1.282214737E1;-7.831433773E0
8.375351778E0;-3.663128614E0;-1.266053867E1;-2.267308950E0
8.385401778E0;-2.750937700E0;-1.035971069E1;-2.452859640E0
8.405051778E0;-7.685387731E-1;-5.808333397E0;-4.951209068E0
8.425351778E0;-1.417367458E0;-5.735310078E0;-3.423708439E0
8.445511778E0;-1.833958507E0;-7.296329498E0;-3.290830135E0
8.465266778E0;-9.014169574E-1;-9.056067467E0;-3.295618534E0
8.485595778E0;-2.968810201E-1;-9.866505623E0;-2.179920673E0
8.505758778E0;-3.256114423E-1;-1.049378586E1;-2.741360962E-1
8.525146778E0;2.085349798E0;-1.114261436E1;5.255272985E-1
8.535405778E0;4.181473255E0;-1.202727222E1;7.577648163E-1
8.546240778E0;5.269638062E0;-1.270961952E1;3.950432688E-2
8.565070778E0;6.381744862E0;-1.347217274E1;-3.664325714E0
8.575558778E0;8.179790497E0;-1.285805988E1;-5.621585369E0
8.595443778E0;1.038604736E1;-1.145026970E1;-9.319430351E0
8.615645778E0;1.148378849E1;-1.009754562E1;-9.090784073E0
8.639976778E0;9.012971878E0;-6.447585106E0;-4.551377296E0
8.655245778E0;4.169502258E0;-5.583278179E0;-6.114790916E0
8.675207778E0;-1.509544134E0;-4.443638325E0;-6.326677799E0
8.685546778E0;-3.762487888E0;-3.714603901E0;-6.275202751E0
8.705064778E0;-4.028244495E0;-2.330755472E0;-4.528632641E0
8.715181778E0;-3.454833031E0;-2.296039343E0;-6.154295444E0
8.735123778E0;5.746083856E-1;-2.213439465E0;-6.014234543E0
8.745220778E0;1.784877419E0;-2.656366825E0;-3.678690910E0
8.755517778E0;2.070984364E0;-3.997119665E0;-4.548983276E-2
8.775049778E0;2.670732021E0;-5.707777023E0;3.672705412E0
8.785062778E0;2.973598480E0;-5.902904510E0;1.565807939E0
8.795356778E0;2.507926226E0;-5.924452305E0;-1.131260276E0
8.815003778E0;2.726995707E0;-5.965153694E0;-2.578555346E0
8.835654778E0;4.311957359E0;-1.072003841E1;2.642001629E0
8.845724778E0;5.078101635E0;-1.252646351E1;3.616441727E0
8.865184778E0;5.513846397E0;-1.699524117E1;4.705803394E0
8.886051778E0;6.542156219E0;-2.197996902E1;5.153519154E0
8.905061778E0;9.263166428E0;-2.603335190E1;4.317942619E0
8.915391778E0;1.107557678E1;-2.676238632E1;2.172738075E0
8.935182778E0;8.425195694E0;-2.331713104E1;-1.636077690E1
8.955216778E0;3.390189648E0;-1.816480827E1;-5.959167957E0
8.975053778E0;4.932055473E-1;-1.074158573E1;-8.112752914E0
8.985532778E0;1.294066072E0;-7.733271599E0;-6.943184853E0
9.005425778E0;2.829946518E0;-6.463147640E0;-6.179434776E0
9.025084778E0;2.883816004E0;-8.374917984E0;-5.377377033E0
9.035203778E0;4.484339714E0;-8.698134422E0;-4.441244125E0
9.045499778E0;8.237251282E0;-9.751583099E0;-5.293580055E0
9.065026778E0;5.743690014E0;-1.071046162E1;-1.999158382E0
9.075037778E0;3.262099743E0;-1.121324348E1;2.657563984E-1
9.086151778E0;1.816002011E0;-1.127668953E1;1.777694821E0
9.105733778E0;1.867477298E-1;-1.167532444E1;3.236960649E0
9.126129778E0;-3.016694188E-1;-1.134612179E1;2.741360903E0
9.136419778E0;-3.950432688E-2;-1.068173122E1;1.887827992E0
9.155709778E0;6.560112834E-1;-1.085650730E1;-6.131550789E0
9.175817778E0;2.523488522E0;-1.250491524E1;-1.419043350E1
9.186339778E0;2.211045265E0;-1.381215000E1;-1.096185207E1
9.205979778E0;2.375048161E0;-1.448013210E1;-4.001908302E0
9.225052778E0;2.657563925E0;-1.195664310E1;5.961562395E-1
9.235894778E0;4.528632641E0;-9.161413193E0;3.363853395E-1
9.255139778E0;5.054159641E0;-1.016817474E1;-4.613626480E0
9.275061778E0;3.229778051E0;-1.214219379E1;-1.089481449E1
9.285832778E0;1.889025092E0;-1.296101093E1;-9.866505623E0
9.305032778E0;1.089361787E0;-1.267729759E1;-5.572504520E0
9.325272778E0;2.481590033E0;-1.052610779E1;-2.958036184E0
9.335666778E0;2.841917515E0;-9.124302864E0;-2.559401512E0
9.355051778E0;3.468001127E0;-7.122750282E0;-1.508347034E0
9.365236778E0;3.634398222E0;-6.447585106E0;3.926490843E-1
9.375320778E0;4.329913616E0;-5.716156483E0;2.486378431E0
9.385674778E0;3.454833031E0;-5.183446884E0;4.220977783E0
9.405143778E0;3.543418407E0;-3.025073767E0;3.507505417E0
9.425076778E0;2.947262287E0;-1.786074519E0;1.215057373E0
9.435096778E0;1.818396211E0;-6.356605291E-1;2.194285870E0
9.445267778E0;7.553706169E-1;1.735796183E-1;1.091755986E0
9.465143778E0;-1.764526606E0;-2.645592988E-1;-1.386242747E0
9.485076778E0;-1.734599113E0;5.853823423E-1;9.696516991E-1
9.495664778E0;-2.426523447E0;1.467645645E0;-9.325415492E-1
9.515063778E0;-2.740163803E0;3.210624456E0;-4.344278812E0
9.535906778E0;-5.742492676E0;3.207033157E0;-6.257246017E0
9.546438778E0;-6.683413982E0;3.183091164E0;-6.251260757E0
9.565427778E0;-7.013813972E0;2.756923199E0;-4.580107689E0
9.585765778E0;-6.783970356E0;2.032677174E0;-7.789535046E0
9.605215778E0;-6.028599739E0;1.259350061E0;-9.768342972E0
9.625169778E0;-6.531382084E0;1.577778935E0;-1.592622948E1
9.635984778E0;-1.387080765E1;5.315127969E-1;-2.321417999E1
9.646856778E0;-1.646971321E1;-5.510255337E0;-2.487455940E1
9.658174778E0;-1.089960289E1;-1.248217010E1;-1.483088207E1
9.675124778E0;-4.352658749E0;-8.984241486E0;-1.380257320E1
9.685138778E0;-1.520318031E0;-2.973598480E0;-4.790797710E0
9.695169778E0;-3.350685358E0;-3.303998411E-1;4.352658749E0
9.705261778E0;-6.642712593E0;1.594538331E0;6.635529995E0
9.725048778E0;-8.045714378E0;-1.987187386E0;-7.451952934E0
9.735215778E0;-3.525461912E0;-6.658275127E0;-6.409277916E0
9.755838778E0;3.830722570E-1;-1.023162079E1;-1.065300083E1
9.775369778E0;-2.567781210E0;-1.080742645E1;-5.935225964E0
9.785728778E0;-4.066551685E0;-9.287108421E0;-4.301183224E0
9.805253778E0;-4.041412354E0;-5.236119270E0;-4.423287868E0
9.825096778E0;-1.830367208E0;-6.410475254E0;-3.811569214E0
9.836858778E0;-1.133654475E0;-7.096413612E0;-3.262099743E0
9.855053778E0;-2.525882721E-1;-8.143877029E0;-4.531026840E0
9.875193778E0;4.991910458E-1;-8.969876289E0;-4.359841347E0
9.887529778E0;7.852981687E-1;-9.053673744E0;-3.828328609E0
9.905213778E0;1.577778935E0;-9.142259598E0;-4.234145641E0
9.925707778E0;1.668758631E0;-9.459490776E0;-3.885789394E0
9.935789778E0;1.788468719E0;-9.542090416E0;-3.739742994E0
9.955213778E0;1.802833915E0;-9.520543098E0;-3.927687883E0
9.974998778E0;1.297657371E0;-9.753977776E0;-3.277662039E0
9.985122778E0;1.024718285E0;-9.865307808E0;-2.461239338E0
1.000520978E1;1.337161660E0;-9.706093788E0;-1.416170359E0
1.002528078E1;3.958812475E0;-8.611943245E0;-1.680729628E0
1.004596978E1;6.143521786E0;-9.199720383E0;-3.551798105E0
1.006508078E1;7.514202118E0;-1.022802925E1;-5.425261021E0
1.007541578E1;8.086416245E0;-1.093072796E1;-5.749675274E0
1.008586378E1;8.025363922E0;-1.141555405E1;-6.014234543E0
1.010559978E1;8.409633636E0;-1.099058247E1;-5.449203014E0
1.012524778E1;8.499416351E0;-8.620323181E0;-3.055001259E0
1.013569978E1;8.634688377E0;-8.543708801E0;-2.551021814E0
1.015510878E1;7.145494938E0;-8.423998833E0;-3.843890905E0
1.016516078E1;5.410895824E0;-7.987056732E0;-3.846285105E0
1.018523178E1;1.479616642E0;-6.318298340E0;-3.089717388E0
1.020554278E1;-2.580949545E0;-5.583278179E0;-5.327098966E-1
1.022503678E1;-8.295909166E-1;-2.929305792E0;-7.747636795E0
1.023554078E1;1.774103403E0;-2.525882721E0;-8.866926193E0
1.026084978E1;1.278503656E0;-4.873397350E0;-3.209427357E0
1.027532378E1;1.328781962E0;-5.578489780E0;2.197877169E0
1.029558578E1;1.539471745E0;-4.489128113E0;1.192312479E0
1.031511878E1;2.451662540E0;-4.308365822E0;-3.349488258E0
1.033505778E1;1.606509328E0;-8.416815758E0;2.889801502E0
1.034519278E1;1.128866076E0;-9.289502144E0;3.985148668E0
1.035523078E1;2.585737705E-1;-9.254786491E0;4.961983204E0
1.036524978E1;-7.386112213E-1;-9.173383713E0;5.330689907E0
1.038567178E1;-6.799532771E-1;-8.819042206E0;-6.205770969E0
1.040530978E1;5.250484467E0;-1.138682365E1;1.094150186E0
1.041538778E1;7.806294441E0;-1.402403641E1;5.808333397E0
1.043617778E1;9.284713745E0;-1.713649940E1;3.724180698E0
1.045545978E1;1.062786102E1;-2.106657982E1;1.236605167E0
1.047517478E1;1.274313831E1;-2.345838737E1;2.367865562E0
1.048546778E1;1.254202557E1;-2.325368309E1;2.494758129E0
1.050528978E1;5.748478413E0;-2.127128410E1;-4.811148167E0
1.051536278E1;3.622427225E0;-1.876695061E1;-5.170278549E0
1.053521778E1;1.983596087E0;-1.341351509E1;-3.877409697E0
1.054567078E1;1.140837073E0;-1.079066753E1;-4.545392036E0
1.056509978E1;1.930923700E0;-7.728483200E0;-3.398569345E0
1.057510178E1;1.844732404E0;-7.554903507E0;-2.091335297E0
1.058539178E1;1.782483220E0;-7.914033890E0;-1.711854219E0
1.060506378E1;2.287659645E0;-9.315838814E0;-1.213860273E0
1.062580778E1;2.911349297E0;-1.003529644E1;-7.817068696E-1
1.064560478E1;3.235763550E0;-8.998606682E0;-3.196259141E-1
1.065707578E1;3.307589531E0;-8.562862396E0;-1.592144072E-1
1.067024928E1;2.396595955E0;-8.275558472E0;7.757213712E-1
1.068643678E1;1.642422318E0;-8.459911346E0;1.446097851E0
1.070517178E1;3.363853395E-1;-9.240421295E0;1.889025092E0
1.072511178E1;-3.148375154E-1;-1.086249352E1;6.368576288E-1
1.073561178E1;-5.865794048E-2;-1.171842003E1;-1.130063176E0
1.075516578E1;1.146822572E0;-1.255160236E1;-3.724180698E0
1.077553978E1;1.880645394E0;-1.213740540E1;-2.825158119E0
1.078560978E1;2.133233786E0;-1.159871006E1;-1.410184860E0
1.080505478E1;4.189852998E-2;-1.013824749E1;1.674744129E0
1.082538378E1;9.097966552E-1;-9.746794701E0;2.023100406E-1
1.083544678E1;2.701856613E0;-9.933543205E0;-1.812410712E0
1.085521978E1;5.225345135E0;-1.090319443E1;-6.148310184E0
1.087518578E1;4.040215492E0;-1.069968700E1;-4.469974518E0
1.088529578E1;2.557007313E0;-1.043393135E1;-3.129221678E0
1.090600278E1;5.219359994E-1;-9.258378029E0;-1.763329506E0
1.092548278E1;1.436521020E-2;-7.835024834E0;-2.242169857E0
1.093554978E1;-1.424549967E-1;-7.169436932E0;-3.252522945E0
1.095514278E1;-2.226607651E-1;-6.250063419E0;-3.942053080E0
1.097513278E1;6.464344263E-2;-6.235698223E0;-3.384204149E0
1.098523778E1;5.123591423E-1;-6.126761913E0;-3.122039080E0
1.100523078E1;1.629254222E0;-5.541379929E0;-3.039438963E0
1.102526678E1;1.058237195E0;-5.644330502E0;-1.144428372E0
1.103563178E1;9.469067454E-1;-5.564124584E0;-1.070208192E0
1.105521478E1;1.999158412E-1;-5.060145378E0;-1.005564705E-1
1.107503278E1;-6.117185354E-1;-3.592499733E0;1.025915384E0
1.108521278E1;-1.090558887E0;-2.803610086E0;-2.573766708E-1
1.109564678E1;-1.333570361E0;-2.187103271E0;-1.387439847E0
1.111915878E1;-2.075772762E0;-1.687912226E0;-4.010287821E-1
1.113542278E1;-1.843535304E0;-1.541865945E0;-1.748964310E0
1.115513178E1;2.873042040E-2;-1.786074519E0;-5.866991043E0
1.116553878E1;8.535329103E-1;-2.027888775E0;-6.421248913E0
1.118539578E1;1.019929886E0;-2.646790028E0;-8.220491409E0
1.119539778E1;1.546654344E0;-3.471592426E0;-1.002811337E1
1.121504278E1;1.072602391E0;-4.515464306E0;-8.900444984E0
1.122508378E1;5.363011956E-1;-4.879383087E0;-8.678980827E0
1.123511578E1;1.807622313E-1;-4.912901878E0;-7.656657219E0
1.125508478E1;-3.878606856E-1;-4.322731018E0;-5.554547787E0
1.126509378E1;-5.147533417E-1;-4.000710964E0;-5.792770863E0
1.127603478E1;-2.657563984E-1;-3.749319792E0;-6.353013992E0
1.128606778E1;-1.819593310E-1;-3.830722809E0;-6.868964672E0
1.130514078E1;-2.603694439E0;-5.991489887E0;-1.372476101E1
1.132500378E1;-1.339555860E0;-1.567124748E1;-2.938523483E1
1.133552178E1;2.286462545E0;-2.050514030E1;-1.977371216E1
1.135633378E1;-1.280897856E-1;-2.161006546E1;1.147900009E1
1.137613778E1;-5.275623322E0;-8.930372596E-1;-5.524620533E0
1.139502778E1;-3.897760391E0;3.652354717E0;-5.481524944E0
1.140523778E1;-1.568202138E0;-9.600749016E-1;2.983175278E0
1.142502678E1;-1.137245819E-1;-8.202534676E0;1.203086376E0
1.143944978E1;9.457096457E-2;-1.106001472E1;-1.544260085E-1
1.145515378E1;2.351106167E0;-1.641345024E1;-5.266046524E0
1.147502078E1;2.802412987E0;-1.695812988E1;-3.287238836E0
1.148565878E1;2.990357876E0;-1.541626453E1;-2.033874273E0
1.150573178E1;3.968389273E0;-1.231697083E1;-1.261744261E0
1.152524578E1;4.675876141E0;-1.054765606E1;-2.959233284E0
1.153621678E1;4.357447147E0;-1.029147625E1;-3.628412724E0
1.155553278E1;3.087323189E0;-1.077510452E1;-2.218227863E0
1.157607878E1;2.725798607E0;-1.123359394E1;-6.320692301E-1
1.159524578E1;3.494337320E0;-9.951498985E0;-1.003170490E0
1.160565278E1;3.598485231E0;-9.300276756E0;-1.284489155E0
1.162607078E1;3.578134537E0;-7.949946880E0;-2.190694571E0
1.164514278E1;3.563769341E0;-6.831854343E0;-2.883816004E0
1.165614678E1;3.223792553E0;-6.845022678E0;-2.621650934E0
1.167701578E1;3.525461912E0;-7.207744122E0;-1.513135433E0
1.169508378E1;4.959589005E0;-7.830236435E0;-1.608903527E0
1.170581878E1;5.849034786E0;-7.754819393E0;-2.165555477E0
1.172519578E1;3.870227098E0;-7.024587631E0;-2.662352324E0
1.173573178E1;3.766079187E0;-6.426037312E0;-2.816778183E0
1.175639778E1;2.475604534E0;-5.865794182E0;6.835445762E-1
1.177500978E1;-1.890222192E0;-6.916848660E0;2.705447972E-1
1.178508078E1;-1.978807688E0;-8.396465302E0;-4.023456097E0
1.179511378E1;-4.513070285E-1;-9.089587212E0;-4.825513363E0
1.181500878E1;3.269282341E0;-1.096185207E1;-3.189076662E0
1.182512278E1;3.653551817E0;-1.182496262E1;-1.444900751E0
1.183520778E1;3.810372114E0;-1.233253288E1;-1.218648672E0
1.185537378E1;3.854664803E0;-1.352604294E1;-2.984372377E0
1.187544378E1;3.130418777E0;-1.498770237E1;-3.533841610E0
1.189570378E1;1.898601890E0;-1.514093113E1;-6.086060524E0
1.191512078E1;1.528697729E0;-1.520198345E1;-1.061229897E1
1.192521178E1;1.997961283E0;-1.600404167E1;-1.146343803E1
1.194501478E1;2.870647907E0;-1.669476891E1;-5.993884087E0
1.195505278E1;2.351106167E0;-1.605910873E1;-3.403357744E0
1.196536678E1;1.982398987E0;-1.479496956E1;-2.088941097E0
1.197549378E1;7.338228226E-1;-1.330577564E1;-2.325966835E0
1.198557078E1;-2.466027737E-1;-1.316571522E1;-1.878251195E0
1.200506278E1;-1.185129881E0;-1.331535244E1;-9.959878922E-1
1.201510278E1;-9.648633003E-1;-1.326986313E1;-9.612720013E-1
1.203507978E1;-3.830722570E-1;-1.076672459E1;2.181117773E0
1.204560178E1;-3.256114423E-1;-1.030464458E1;2.795230389E0
1.206507678E1;-1.584961534E0;-1.172081470E1;1.446097851E0
1.207515178E1;-1.918952703E0;-1.250970364E1;7.912836671E-1
1.208540778E1;-2.336740971E0;-1.290714169E1;4.632780254E-1
1.209547878E1;-6.895300746E-1;-1.269525433E1;-1.962048292E0
1.211519578E1;8.613141060E0;-1.329141045E1;-1.366251183E1
1.212553878E1;9.402029991E0;-1.376905441E1;-1.064940929E1
1.213557078E1;7.401674747E0;-1.451724243E1;-5.904101372E0
1.215515478E1;3.409343243E0;-1.347696114E1;-2.552218914E0
1.217510678E1;1.047463298E0;-9.781511307E0;-1.031900883E0
1.218648478E1;1.222239971E0;-9.145850182E0;3.675099611E-1
1.220515378E1;2.319981337E0;-7.398083210E0;-2.219424963E0
1.222534478E1;1.702277422E0;-6.203376770E0;-4.513070107E0
1.223583278E1;2.535459518E0;-5.309142113E0;-4.125209332E0
1.225522378E1;1.672349930E0;-4.973954201E0;5.231330991E-1
1.227510978E1;2.992752194E-2;-4.370615005E0;6.025008678E0
1.228586278E1;3.591302410E-2;-2.882618904E0;6.697779179E0
1.230572578E1;1.892616391E0;5.015852451E-1;2.335543871E0
1.232523878E1;-1.121683478E0;7.218518257E-1;-2.035071403E-1
1.233542978E1;-3.485957623E0;-2.561795712E-1;8.750807047E-1
1.235511378E1;-4.879383087E0;-1.071405292E0;2.330755472E0
1.237501578E1;-1.195903778E0;-6.763619781E-1;-4.213795185E0
1.238514778E1;-1.084573388E0;-1.043871999E0;-4.419696331E0
1.240511078E1;-9.026140571E-1;-1.459265947E0;-9.765948296E0
1.241521378E1;8.140286058E-2;-2.060210466E0;-1.466568279E1
1.242571278E1;2.115277290E0;-2.570175409E0;-1.796968079E1
1.244530278E1;2.892195702E0;-3.605667830E0;-1.481172848E1
1.246524678E1;1.304839998E-1;-4.538209438E0;-6.970718384E0
1.247542978E1;-7.805097699E-1;-4.419696331E0;9.289502501E-1
1.249561778E1;-9.576807022E-1;-2.291250944E0;1.504875469E1
1.250596778E1;-3.493140221E0;-2.087743998E0;5.839457989E0
1.252502478E1;-2.059252930E1;-2.476083374E1;-3.922181320E1
1.253541378E1;-8.732851028E0;-2.933735085E1;-4.710591793E0
1.255570078E1;2.759317398E0;-1.655829811E1;2.025614357E1
1.257510578E1;-4.309562966E-2;5.592854977E0;-7.952341080E0
1.258545378E1;2.276885748E0;6.139930248E0;3.993528366E0
1.259563978E1;1.715445518E0;-8.188169599E-1;2.971204281E0
1.261506178E1;9.876081944E-1;-1.009156036E1;-1.720233917E0
1.262561878E1;1.017535701E-1;-1.422155857E1;-2.931699991E0
1.264018078E1;-6.320692301E-1;-1.752076721E1;-3.529053211E0
1.265551878E1;1.532289028E0;-1.750879669E1;-4.189853072E-1
1.267504178E1;5.157110691E0;-1.253604031E1;-7.924807668E-1
1.268575078E1;7.086836815E0;-1.093791008E1;-2.097320795E0
1.270510978E1;7.861361504E0;-1.062546730E1;-5.681440830E0
1.271548278E1;6.689399719E0;-1.141076565E1;-7.034164429E0
1.273605078E1;3.792415380E0;-1.243308926E1;-6.287173748E0
1.275507578E1;2.998737574E0;-1.088164711E1;-4.533421040E0
1.276533578E1;4.035427094E0;-8.528146744E0;-2.203862667E0
1.277567178E1;4.369418144E0;-7.969100475E0;-1.672349930E0
1.279503778E1;4.475960255E0;-8.778340340E0;-2.182314873E0
1.280519478E1;5.432443619E0;-8.968679428E0;-3.138798475E0
1.282539278E1;6.511031628E0;-8.549694061E0;-5.164293289E0
1.283640678E1;6.635529995E0;-8.425195694E0;-5.883750439E0
1.285513678E1;5.699397087E0;-8.572439194E0;-6.308721542E0
1.287504978E1;2.835932016E0;-7.705738068E0;-5.590460777E0
1.288509578E1;1.410184860E0;-6.873753071E0;-5.932831764E0
1.289517578E1;-1.436521020E-2;-6.167463779E0;-5.655104637E0
1.290519878E1;-6.991068721E-1;-5.408501625E0;-5.220556736E0
1.292520278E1;-1.035492182E0;-4.514267445E0;-4.535815239E0
1.293520678E1;1.807622313E-1;-3.873818398E0;-3.617638826E0
1.295540978E1;1.319205165E0;-4.851849556E0;1.776497602E0
1.297582778E1;1.908178806E0;-4.839878559E0;8.595184088E-1
1.299507878E1;1.515529633E0;-5.122394562E0;1.456871748E0
1.300511178E1;1.061828494E0;-5.577292919E0;3.248931646E0
1.302520778E1;-1.942894697E0;-6.916848660E0;-2.169146776E0
1.303606078E1;-3.713406801E0;-7.973888874E0;-4.073734283E0
1.305534878E1;-2.821566820E0;-1.052969933E1;3.247734547E0
1.307512578E1;-1.687912196E-1;-1.478419590E1;1.794454217E0
1.308558678E1;4.162319660E0;-1.623627853E1;4.167108059E0
1.310513978E1;8.078036308E0;-1.978688049E1;1.025915384E0
1.311515078E1;8.358158112E0;-2.137184143E1;1.684320927E0
1.313468328E1;9.999382973E0;-2.336980247E1;3.722983599E-1
1.314516278E1;9.999382973E0;-2.336980247E1;3.722983599E-1
1.315564978E1;9.750386238E0;-1.977730370E1;-4.315548420E0
1.316570978E1;7.997830868E0;-1.847725105E1;-5.658695698E0
1.318550878E1;3.716998100E0;-1.674744034E1;-6.846219540E0
1.320499078E1;-8.954314590E-1;-1.339555836E1;-6.904877663E0
1.321579478E1;4.118026793E-1;-1.042435455E1;-6.198588371E0
1.322599578E1;1.519120932E0;-7.994239330E0;-5.895721912E0
1.323680278E1;1.958456993E0;-6.871358871E0;-6.026205540E0
1.325507078E1;3.354276657E0;-7.116764545E0;-6.118382454E0
1.326537378E1;4.392162800E0;-7.501033783E0;-5.843049049E0
1.328570478E1;6.856993675E0;-8.884882927E0;-4.279635429E0
1.330713078E1;5.837063789E0;-1.003409958E1;-9.301473498E-1
1.332531078E1;2.365471363E0;-1.043033981E1;4.955997467E-1
1.333539878E1;7.410054207E-1;-1.126831055E1;1.217451572E0
1.335518278E1;-2.780865192E0;-1.387320137E1;2.274491549E0
1.336523678E1;-2.093729496E0;-1.360385418E1;1.397016644E0
1.338688478E1;-4.848258495E-1;-1.190995598E1;-6.416460276E-1
1.340550878E1;9.002198577E-1;-1.025795746E1;-3.002328873E0
1.341559278E1;9.469067454E-1;-1.047463226E1;-4.096478939E0
1.343506778E1;1.729810715E0;-1.177109241E1;-6.321889400E0
1.345537378E1;1.218648672E0;-1.329739666E1;-6.181828976E0
1.346553978E1;8.451532125E-1;-1.374032402E1;-4.756081581E0
1.348577078E1;1.027112484E0;-1.359786892E1;-2.419340849E0
1.350528278E1;8.714894056E-1;-1.253723717E1;-2.136825085E0
1.352525778E1;-7.900865376E-2;-1.285207462E1;-6.159083843E0
1.353658078E1;-1.030703783E0;-1.236246014E1;-7.309497833E0
1.355523278E1;-6.129156351E-1;-1.099178028E1;-5.449203014E0
1.357509878E1;-3.076549172E-1;-9.720458984E0;-3.405751944E0
1.358525178E1;2.370259613E-1;-8.724471092E0;-3.063380957E0
1.360548178E1;2.483984232E0;-7.274781704E0;-1.939303398E0
1.361584978E1;3.598485231E0;-6.534973621E0;-7.541735470E-2
1.363508678E1;4.444835663E0;-5.116408825E0;2.503137827E0
1.364549778E1;4.499902248E0;-4.120420933E0;2.431311846E0
1.365627778E1;4.035427094E0;-3.236960649E0;1.806425214E0
1.367517478E1;3.398569345E0;-1.886630893E0;-1.644816518E0
1.368583878E1;2.650381327E0;-1.715445518E0;-1.519120932E0
1.370515878E1;6.811503768E-1;-1.824381709E0;2.622848034E0
1.371516178E1;-9.947907925E-1;-1.873462796E0;3.845088005E0
1.373519478E1;-3.463212729E0;6.679822803E-1;3.031059265E0
1.374540978E1;-3.752911091E0;3.204638958E0;5.075707436E-1
1.375579378E1;-5.054159641E0;3.132812977E0;-9.085995555E-1
1.377594978E1;-4.839878559E0;2.337938070E0;-4.424484730E0
1.378600378E1;-4.042609692E0;1.298854470E0;-6.842628479E0
1.380753978E1;-1.863885999E0;-3.962403834E-1;-1.012986755E1
1.382512778E1;-2.597708702E-1;4.022258818E-1;-1.122521496E1
1.383547278E1;-3.196259141E-1;7.398083210E-1;-1.289397335E1
1.385518978E1;-9.672574997E-1;2.298433542E0;-1.335485744E1
1.387501978E1;-1.666364431E0;3.403357744E0;-1.404199314E1
1.388518878E1;-2.810792685E0;3.707421303E0;-1.414254951E1
1.390625078E1;-4.065354347E0;3.855861902E0;-1.208114147E1
1.392509778E1;-4.602852821E0;2.823961020E0;-1.110430717E1
1.393510778E1;-6.072892666E0;2.103306293E0;-1.326866627E1
1.394534078E1;-1.035133076E1;-1.849520802E0;-2.248394775E1
1.395574978E1;-8.412027359E0;-8.544905663E0;-1.887947845E1
1.396611578E1;-4.505887508E0;-1.541027927E1;-7.285555840E0
1.398630978E1;-5.056553841E0;-1.237802315E1;-8.542511940E0
1.400544778E1;-5.858611584E0;-1.630451322E0;6.044162273E0
1.402507278E1;-6.572083473E0;5.099649429E0;-4.726154327E0
1.403512178E1;-3.233369350E0;-3.591302410E-2;-4.618414879E0
1.404522778E1;-8.379706144E-1;-5.329493046E0;-4.884171486E0
1.406523978E1;-2.682703018E0;-1.311064816E1;-8.265981674E0
1.408648478E1;-5.208585739E0;-1.487158394E1;-4.121618271E0
1.410533578E1;-4.085705280E0;-7.987056732E0;-3.031059265E0
1.412512078E1;-3.891774893E0;-4.696226597E0;-3.136404276E0
1.413546178E1;-3.588908434E0;-5.339069843E0;-3.265691042E0
1.415571578E1;-1.905784607E0;-6.154295444E0;-2.292448044E0
1.416615078E1;-4.465186298E-1;-6.513425827E0;-2.772485495E0
1.417658178E1;8.942343593E-1;-7.187393665E0;-2.015917778E0
1.419507378E1;1.241393566E0;-9.209297180E0;-3.280056417E-1
1.420517678E1;1.318008065E0;-1.004367638E1;-6.584054977E-2
1.422500278E1;2.249352455E0;-1.137964058E1;1.544260085E-1
1.423590578E1;3.035847664E0;-1.183334160E1;6.021417379E-1
1.425609478E1;3.584120035E0;-1.300530338E1;-4.034229815E-1
1.427500378E1;3.204638958E0;-1.393664837E1;-4.932055473E-1
1.428530478E1;3.785232782E0;-1.449928570E1;-2.011129409E-1
1.430538478E1;4.691438198E0;-1.429218674E1;-2.612074137E0
1.432525478E1;3.792415380E0;-1.297298145E1;-3.886986494E0
1.433538478E1;2.668337822E0;-1.224993324E1;-3.503914118E0
1.435504578E1;3.132812977E0;-1.141555405E1;-2.697068214E0
1.436530378E1;4.806359768E0;-1.002691650E1;-2.964021683E0
1.438593278E1;6.275202751E0;-7.297526836E0;-3.508702517E0
1.440504778E1;5.465962410E0;-6.354211330E0;3.902548850E-1
1.441571378E1;5.222950935E0;-7.054515362E0;-8.104372621E-1
1.443537378E1;5.400122166E0;-7.356184959E0;-3.258508444E0
1.445518478E1;5.732915878E0;-6.991068840E0;-3.512293816E0
1.446631278E1;4.924872875E0;-6.696582317E0;-3.099294186E0
1.448629878E1;3.270479441E0;-5.389348030E0;-2.406172752E0
1.450531678E1;1.510741234E0;-4.222174644E0;-9.947907925E-1
1.451532978E1;4.572925270E-1;-4.110844135E0;2.394201700E-3
1.453599378E1;-1.951274395E0;-6.162675381E0;-1.388636947E0
1.455522378E1;1.927332401E0;-7.578845501E0;-4.358644009E0
1.457504978E1;5.582081318E0;-9.319430351E0;-1.657984734E0
1.458530078E1;5.632359505E0;-9.782708168E0;-1.508347094E-1
1.460515378E1;4.401739597E0;-1.127190113E1;1.174355984E0
1.462517078E1;3.823540211E0;-1.255519390E1;3.315969408E-1
1.464246978E1;3.166331768E0;-1.336084270E1;5.805938840E-1
1.465522978E1;2.067393064E0;-1.541865921E1;7.302315235E-1
1.466631378E1;2.074575663E0;-1.658343887E1;-3.459621370E-1
1.468512278E1;4.541800499E0;-1.756266594E1;-2.561795712E0
1.469515778E1;6.215347767E0;-1.746091270E1;-3.266888142E0
1.470789378E1;6.521805286E0;-1.791341782E1;-5.700594425E0
1.472513078E1;1.023521185E0;-1.671751404E1;-3.411737442E0
1.473574778E1;-5.961562395E-1;-1.520078659E1;-6.232107162E0
1.475508978E1;3.519476354E-1;-1.083974838E1;-6.205770969E0
1.476513278E1;1.301248670E0;-9.780313492E0;-3.779247284E0
1.477513978E1;1.904587507E0;-9.651026726E0;-1.662773132E0
1.478579278E1;2.515108824E0;-1.002811337E1;-5.434837937E-1
1.480533578E1;5.482721925E-1;-1.037287903E1;1.401805043E0
1.482502978E1;-2.358288616E-1;-1.354759026E1;2.146401882E0
1.483511478E1;-1.019929886E0;-1.527380943E1;2.723404408E0
1.484518278E1;-1.414973259E0;-1.666484070E1;2.367865562E0
1.486511478E1;-2.754528999E0;-1.865202904E1;-1.843535304E-1
1.488513778E1;-2.965218782E0;-1.829409599E1;-4.825513363E0
1.490518478E1;5.506663918E-1;-1.442745972E1;-6.025008678E0
1.492538278E1;4.046200752E0;-1.239358521E1;-6.088454723E0
1.494510378E1;3.994725466E0;-1.256237602E1;-2.597708941E0
1.496512078E1;2.670732021E0;-1.268208599E1;-8.236053586E-1
1.498500578E1;1.558625340E0;-1.198657036E1;-2.008735180E0
1.499518178E1;2.343923569E0;-1.251688671E1;-2.505532026E0
1.501660178E1;1.928529501E0;-1.179024601E1;-5.428852558E0
1.503543278E1;3.881000996E0;-9.397241592E0;-3.946841478E0
1.505513678E1;5.480327606E0;-6.478709698E0;2.385822058E0
1.506542478E1;4.650736809E0;-5.093664169E0;6.497863293E0
1.508532278E1;2.477998734E0;-2.551021814E0;6.975506783E0
1.510517278E1;2.568978310E0;-1.060631394E0;2.477998734E0
1.512507178E1;-9.852139950E-1;5.027823448E-1;3.886986494E0
1.513556278E1;-2.315192938E0;8.044517636E-1;3.592499733E0
1.515506478E1;-4.364629745E0;1.942894697E0;2.406172752E-1
1.516517378E1;-4.487931252E0;2.534262419E0;-1.938106298E0
1.517581378E1;-4.228160381E0;2.562992811E0;-4.181473255E0
1.519522478E1;-2.487575531E0;1.886630893E0;-5.944802761E0
1.521623878E1;2.298433632E-1;1.362300754E0;-1.049737740E1
1.522642378E1;5.602431893E-1;6.392518282E-1;-1.189559078E1
1.523726278E1;3.687070608E-1;1.256955862E-1;-1.229542255E1
1.525539978E1;-9.888052940E-1;5.339069963E-1;-1.358589745E1
1.527561278E1;-1.784877419E0;2.717418909E0;-1.288200188E1
1.528593878E1;-3.615244627E0;3.621230125E0;-1.354998493E1
1.530518778E1;-1.057518864E1;3.469198227E0;-2.149633980E1
1.531520778E1;-1.000297451E1;-4.691438198E0;-8.208520889E0
1.533536978E1;-8.878896713E0;-6.216544628E0;-9.246406555E0
1.534549978E1;-9.758766174E0;-6.681019783E0;-1.319324875E1
1.535624978E1;-5.574898720E0;-5.996278286E0;-3.653551817E0
1.537513478E1;-1.301248670E0;-5.659893036E0;-2.024297476E0
1.538555778E1;-3.248931646E0;-6.876147270E0;-3.348291159E0
1.540548178E1;-2.961627483E0;-7.675810814E0;-4.534617901E0
1.542523378E1;-1.550245643E0;-8.973467827E0;-5.438429356E0
1.543537878E1;-1.673547029E0;-9.649829865E0;-6.141127586E0
1.545520078E1;-2.644395828E0;-1.060631371E1;-6.376956463E0
1.547503678E1;-1.807622313E0;-1.059554005E1;-4.821922302E0
1.548507378E1;-1.104924083E0;-1.029506683E1;-4.283226967E0
1.549507778E1;-7.026981711E-1;-9.919178009E0;-3.561375141E0
1.550511278E1;-4.417302012E-1;-9.406818390E0;-2.339135170E0
1.551577878E1;3.136404157E-1;-8.730456352E0;-2.061407566E0
1.553523378E1;1.387439847E0;-9.127894402E0;-9.528923035E-1
1.555511078E1;2.057816267E0;-1.084094524E1;-1.259350061E0
1.556514578E1;2.339135170E0;-1.172440529E1;-1.563413739E0
1.557516278E1;2.353500366E0;-1.234450436E1;-1.680729628E0
1.558559178E1;2.334346771E0;-1.278982544E1;-1.945288897E0
1.560516878E1;3.353079557E0;-1.268328381E1;-3.005920172E0
1.561520878E1;3.633201122E0;-1.234210968E1;-3.366247654E0
1.562534178E1;3.980360270E0;-1.215655899E1;-3.220201254E0
1.563570878E1;4.566939831E0;-1.168729591E1;-3.175908566E0
1.565508278E1;5.439626217E0;-1.002093124E1;-4.174290657E0
1.566539878E1;5.602431774E0;-9.220070839E0;-4.728548527E0
1.567543978E1;5.853823185E0;-8.268375397E0;-4.735731125E0
1.568545778E1;5.632359505E0;-7.432799339E0;-4.505887508E0
1.569623778E1;4.437653065E0;-6.894104004E0;-3.454833031E0
1.571546678E1;3.846285105E0;-7.059303761E0;-1.343147159E0
1.573550878E1;4.860229492E0;-6.862978935E0;-1.279700756E0
1.575510878E1;4.575319290E0;-6.459556103E0;-2.412158251E0
1.576511478E1;4.145560265E0;-6.405686855E0;-2.551021814E0
1.578554478E1;3.967192173E0;-5.908889771E0;-2.339135170E0
1.579563878E1;3.368641853E0;-5.722142220E0;-1.900996208E0
1.581509678E1;-2.729389966E-1;-6.069301128E0;-4.429273307E-2
1.582514978E1;-1.881842494E0;-6.654683590E0;2.346317619E-1
1.583589178E1;-2.387019157E0;-7.134721279E0;-1.347935557E0
1.585515578E1;-2.087743998E0;-7.438784599E0;-5.448006153E0
1.587504778E1;1.535880446E0;-7.337030888E0;-3.666719913E0
1.588532378E1;2.934094191E0;-7.691372871E0;-1.745373011E0
1.590499578E1;6.136339188E0;-1.024119759E1;-9.923965931E-1
1.591507178E1;6.471527100E0;-1.117373943E1;-1.347935557E0
1.592526178E1;6.300341606E0;-1.230021095E1;-5.853823423E-1
1.593536878E1;6.041768074E0;-1.302326012E1;4.297592044E-1
1.595635478E1;5.289988518E0;-1.324352646E1;9.097966552E-1
1.597504378E1;3.357867956E0;-1.288200188E1;1.680729628E0
1.598616378E1;2.479195833E0;-1.324951267E1;1.124077678E0
1.600537278E1;1.774103403E0;-1.465849972E1;-7.230489254E-1
1.602568978E1;-3.172317147E-1;-1.452801609E1;-3.676296711E0
1.603570778E1;-1.347935557E0;-1.392348003E1;-6.436811447E0
1.605518078E1;5.542576909E-1;-1.358709431E1;-5.808333397E0
1.606563278E1;2.395398855E0;-1.414973164E1;-5.236119270E0
1.608523478E1;4.979939461E0;-1.531570816E1;-3.852270603E0
1.610504678E1;1.405396342E0;-1.118570995E1;1.407790542E0
1.612578878E1;-8.738836050E-1;-1.219127464E1;-1.922544003E0
1.614528778E1;-1.832761407E0;-1.274553299E1;-2.846705914E0
1.616537978E1;-1.927332401E0;-1.326986313E1;1.204283476E0
1.618523578E1;-1.456871748E0;-1.329021358E1;4.098873138E0
1.620521478E1;-3.483563364E-1;-1.279940224E1;3.001131773E0
1.622522978E1;-6.631938815E-1;-1.276588345E1;7.984662652E-1
1.624518978E1;1.197100850E-3;-1.341950035E1;-3.197456360E0
1.625586478E1;2.562992811E0;-1.370680428E1;-8.038532257E0
1.627504478E1;3.463212729E0;-1.397016716E1;-7.596801758E0
1.628536278E1;1.352723986E-1;-1.125394535E1;-1.041477770E-1
1.630528078E1;-4.704606235E-1;-8.030152321E0;3.002328873E0
1.632566578E1;5.578489900E-1;-6.587646008E0;1.304839969E0
1.633586678E1;1.337161660E0;-6.181828976E0;-8.259995580E-1
1.635503878E1;6.236895323E-1;-7.042544365E0;-7.298723698E0
1.636533578E1;-5.973533392E-1;-7.806294441E0;-6.882133007E0
1.638536778E1;-4.656722248E-1;-7.310694695E0;-2.642001629E0
1.640515578E1;8.008604646E-1;-5.657498837E0;6.835445762E-1
1.641522678E1;1.086967587E0;-5.262455463E0;1.112106681E0
1.643656578E1;1.562216640E0;-4.333505154E0;1.076193690E0
1.645518478E1;1.810016513E0;-2.862268209E0;1.440112352E0
1.647501978E1;8.511387110E-1;-1.248576164E0;3.071760893E0
1.648538578E1;-6.859387755E-1;-3.471592441E-2;-1.061828494E0
1.650529078E1;-2.454056740E0;-3.292027414E-1;-3.574543238E0
1.651536778E1;-2.658761024E0;-6.117185354E-1;-5.161899090E0
1.653518878E1;3.711012602E-1;-1.502361536E0;-9.437943459E0
1.655512278E1;3.932476282E0;-3.471592426E0;-8.773551941E0
1.656525178E1;3.442862034E0;-4.557363033E0;-9.009381294E0
1.658520178E1;-4.979939461E-1;-7.382521152E0;-1.589749908E1
1.659567378E1;-1.322796464E0;-8.573636055E0;-1.323754120E1
1.661508078E1;-2.470816135E0;-1.099537086E1;-1.060631394E0
1.662515278E1;-2.349909067E0;-1.215775585E1;-5.251681328E0
1.663581978E1;-3.084928989E0;-1.464054298E1;-1.135569859E1
1.664917078E1;-4.165910721E0;-1.248815632E1;1.473631144E0
1.666529178E1;-3.980360270E0;-9.448717117E0;-2.339135170E0
1.667778278E1;-1.134851575E0;-8.103176117E0;9.935937077E-2
1.669514978E1;3.962403834E-1;-9.885659218E0;-1.696291924E0
1.670519378E1;5.937620401E-1;-1.128746414E1;-1.954865694E0
1.672606078E1;1.055842996E0;-1.425627422E1;-1.651999116E0
1.674515678E1;2.893392801E0;-1.624226379E1;-8.499416113E-1
1.675519378E1;4.168305397E0;-1.604115105E1;-1.731007814E0
1.677513378E1;5.166687489E0;-1.299213505E1;-2.509123325E0
1.678571078E1;5.354631901E0;-1.169328117E1;-2.861071110E0
1.680519578E1;5.226542473E0;-9.803058624E0;-2.857479811E0
1.682561778E1;5.385756493E0;-8.200140953E0;-3.499125719E0
1.684503078E1;4.252102375E0;-7.474697590E0;-3.834314108E0
1.685513678E1;3.092111588E0;-7.438784599E0;-3.915716887E0
1.687505878E1;2.412158251E0;-7.400477409E0;-3.246537447E0
1.688508378E1;2.000355482E0;-8.148665428E0;-2.996343374E0
1.689509478E1;2.099714994E0;-7.954735279E0;-3.331531763E0
1.690517278E1;2.190694571E0;-7.510610580E0;-3.502717018E0
1.692517478E1;2.397793055E0;-6.443994045E0;-3.211821556E0
1.694501078E1;3.033453465E0;-5.758055210E0;-2.474407434E0
1.695560878E1;2.796427488E0;-5.574898720E0;-1.617283225E0
1.697512578E1;7.613561153E-1;-5.875370979E0;-1.701080322E0
1.698589378E1;8.212111592E-1;-6.142324448E0;-1.734599113E0
1.700546678E1;3.464409828E0;-7.070077419E0;-1.248576164E0
1.702509778E1;3.598485231E0;-9.083600998E0;-1.549048543E0
1.703749278E1;4.321534157E0;-1.084094524E1;-3.515885115E0
1.705063378E1;4.547786236E0;-1.163582039E1;-3.968389273E0
1.706523878E1;4.635174274E0;-1.261385155E1;-4.619612217E0
1.708519178E1;2.703053713E0;-1.544738960E1;-8.118738174E0
1.710522278E1;9.648633003E-1;-1.446097851E1;-1.273475838E1
1.712527678E1;-6.141127348E-1;-1.467885017E1;-1.360505104E1
1.713812778E1;-1.643619418E0;-1.580292797E1;-1.116176796E1
1.715063378E1;-3.349488258E0;-1.613213158E1;-4.904522419E0
1.716507978E1;-3.211821556E0;-1.569040108E1;-3.533841610E0
1.717517678E1;-2.778470993E0;-1.555871964E1;-3.014299870E0
1.718582778E1;-1.871068597E0;-1.514691734E1;-2.528276920E0
1.720513378E1;1.318008065E0;-1.212184334E1;-5.781996846E-1
1.721513378E1;2.354697466E0;-1.138323212E1;1.747767180E-1
1.723514878E1;3.938461781E0;-8.719682693E0;2.334346622E-1
1.725543078E1;3.210624456E0;-1.152688408E1;1.562216640E0
1.727523878E1;-7.697358727E-1;-1.559343529E1;7.566874504E0
1.729517178E1;-2.231395960E0;-1.319444561E1;3.393780947E0
1.730525678E1;-1.861491799E0;-1.228824043E1;-4.928464413E0
1.732529378E1;-1.322796464E0;-1.304361057E1;-1.797447014E1
1.734522978E1;-2.530671120E0;-1.151970100E1;-6.198588371E0
1.735535778E1;-2.194285870E0;-1.035611916E1;3.315969408E-1
1.737518178E1;1.240196466E0;-6.130353451E0;4.186261654E0
1.738554778E1;2.644395828E0;-5.117606163E0;1.890222192E0
1.740550178E1;3.924096584E0;-4.783615112E0;-4.587290287E0
1.742530378E1;2.612074137E0;-5.996278286E0;-4.498704910E0
1.743558378E1;2.121262789E0;-5.829881191E0;-3.811569214E0
1.745605778E1;1.025915384E0;-3.932476282E0;-4.268861771E0
1.747504678E1;9.301473498E-1;-4.704606533E0;-2.562992811E0
1.748509778E1;1.546654344E0;-4.668693542E0;8.726865053E-1
1.749510778E1;2.116474390E0;-3.861847401E0;4.288015366E0
1.750516578E1;2.263717651E0;-2.533065319E0;7.671022415E0
1.752533178E1;-8.475474119E-1;3.722983599E-1;5.687426090E0
1.754501178E1;-4.341884613E0;1.039083481E0;-4.250905037E0
1.755523378E1;-6.047753334E0;3.351882398E-1;-5.341464043E0
1.757498578E1;-4.716577530E0;-1.927332431E-1;-7.795520782E0
1.758541278E1;2.681505978E-1;-5.674257874E-1;-1.065898609E1
1.760507578E1;4.189853191E0;-3.909731388E0;-9.174580574E0
1.761522078E1;3.511096716E0;-5.140350819E0;-6.148310184E0
1.763518878E1;-2.767697096E0;-6.384139061E0;-7.876923680E-1
1.764554778E1;-4.520252705E0;-7.807491779E0;2.129642487E0
1.765631278E1;-4.480748653E0;-1.307832718E1;-2.756085205E1
1.767517278E1;-8.655039072E-1;-2.299870110E1;-3.543418407E0
1.768587878E1;-2.381033659E0;-2.194884491E1;2.493561029E0
1.770537878E1;1.891419291E-1;-8.101978302E0;-4.089296341E0
1.772510778E1;2.924517393E0;-7.601590157E-1;-1.297657371E0
1.773570078E1;2.851494312E0;-1.999158382E0;-5.985504389E-2
1.775523478E1;1.128866076E0;-7.760804653E0;-3.232172132E-2
1.777510578E1;1.059434295E0;-1.323993587E1;-8.786720037E-1
1.778512578E1;1.462857246E0;-1.550365353E1;-1.792060018E0
1.779513178E1;1.495178938E0;-1.763568878E1;-2.329558372E0
1.781514178E1;2.640804529E0;-1.714128685E1;-3.968389273E0
1.783569978E1;4.292803764E0;-1.365173817E1;-4.671087742E0
1.785512278E1;4.492719650E0;-1.006522369E1;-3.060986757E0
1.787499478E1;4.045003891E0;-8.888473511E0;-1.509544134E0
1.788526678E1;4.241328239E0;-8.781931877E0;-1.582567334E0
1.790506378E1;3.784035683E0;-8.434772491E0;-2.908955097E0
1.791512378E1;3.130418777E0;-7.965508938E0;-3.896563292E0
1.792574378E1;2.602497339E0;-7.666234016E0;-4.317942619E0
1.794509478E1;2.388216257E0;-7.011419773E0;-3.416525841E0
1.795512578E1;2.770091295E0;-6.618770599E0;-2.795230389E0
1.796514378E1;3.363853455E0;-6.441599846E0;-2.330755472E0
1.798527178E1;4.071340084E0;-6.698976517E0;-1.259350061E0
1.799536078E1;3.494337320E0;-6.706159115E0;4.668693244E-2
1.801544578E1;1.594538331E0;-6.594828606E0;-4.608838260E-1
1.803561778E1;-1.211466074E0;-6.691793919E0;-2.303221941E0
1.805509978E1;-8.655039072E-1;-5.984307289E0;-7.086837292E-1
1.806519478E1;-7.254431248E-1;-6.212953568E0;1.819593310E-1
1.808538378E1;4.273650050E-1;-7.510610580E0;8.966285586E-1
1.810533478E1;2.620453835E0;-9.053673744E0;1.244984865E-1
1.812506078E1;4.477157116E0;-9.996989250E0;-8.451532125E-1
1.813543078E1;5.039794445E0;-1.053328991E1;-1.073799491E0
1.815514678E1;5.339069843E0;-1.203804588E1;-1.563413739E0
1.816533978E1;5.680243492E0;-1.272398472E1;-1.798045516E0
1.818573278E1;5.206191540E0;-1.440351772E1;-1.930923700E0
1.820523378E1;3.782838583E0;-1.509304714E1;-2.938882589E0
1.822504678E1;2.317587137E0;-1.546175480E1;-4.487931252E0
1.823511978E1;1.464054346E0;-1.566286755E1;-4.062960148E0
1.825539078E1;2.825157940E-1;-1.594298935E1;-1.347935557E0
1.826562378E1;-2.513911724E-1;-1.583884144E1;-2.811989784E0
1.828536278E1;-2.597708702E-1;-1.333450603E1;-5.962759495E0
1.829539478E1;4.716577232E-1;-1.238281155E1;-7.249642849E0
1.831513278E1;1.131260276E0;-1.173158836E1;-1.076792240E1
1.833542678E1;1.503558636E0;-1.193030739E1;-7.894880295E0
1.834561478E1;1.614889026E0;-1.237323475E1;-3.825934410E0
1.836505378E1;-4.141969085E-1;-1.333330917E1;5.339069843E0
1.837517978E1;-4.788403511E-1;-1.233971596E1;6.053739071E0
1.838547878E1;-2.466027737E-1;-1.151850414E1;5.243301868E0
1.840509978E1;-1.124077678E0;-1.410783386E1;3.123236179E0
1.842500878E1;-3.788824081E0;-1.651759720E1;-9.576806799E-3
1.843554378E1;-4.454412460E0;-1.644337654E1;-4.570530891E0
1.845542778E1;-1.345541358E0;-1.518043613E1;-1.722029495E1
1.846572778E1;-1.134851575E0;-1.483686829E1;-1.185728359E1
1.848523378E1;-1.496376097E-1;-1.290115547E1;-2.870647907E0
1.849543678E1;-2.813186944E-1;-1.243548393E1;1.258152962E0
1.850627678E1;1.012747288E0;-1.155681133E1;3.213018656E0
1.852551978E1;2.621650934E0;-1.054765606E1;1.795651317E-1
1.854525178E1;1.204283476E0;-1.133654499E1;-6.716932774E0
1.855568378E1;1.660378933E0;-1.206797409E1;-9.184157372E0
1.857499078E1;2.407369852E0;-1.243787766E1;-8.367734909E0
1.858519878E1;2.068590164E0;-1.172679996E1;-6.704961777E0
1.859532078E1;2.157175779E0;-1.022683239E1;-4.842272758E0
1.861519878E1;1.927332401E0;-8.368931770E0;-1.759738207E0
1.862539378E1;1.770512104E0;-7.636306286E0;7.206547260E-1
1.864510078E1;1.375468850E0;-3.077746391E0;3.509899616E0
1.865699378E1;7.410054207E-1;-1.495178938E0;2.044648170E0
1.867515278E1;-7.661445141E-1;3.148375154E-1;4.345476031E-1
1.868523078E1;-2.196680069E0;6.967126727E-1;-4.309562966E-2
1.870614778E1;-2.996343374E0;8.714894056E-1;1.352723986E-1
1.872505978E1;-1.138442874E0;7.362170219E-1;3.016694188E-1
1.873599478E1;8.499415964E-2;1.262941360E0;2.920926213E-1
1.875503978E1;1.448491961E-1;1.692700624E0;-5.458779931E-1
1.876524678E1;-3.938461840E-1;2.072181463E0;-7.972691655E-1
1.878536578E1;-2.977189779E0;3.606864929E0;-3.128024578E0
1.880568778E1;-2.753331900E0;4.562151432E0;-7.301117897E0
1.882502478E1;-1.932120800E0;3.458424330E0;-1.113303757E1
1.883536878E1;-1.563413739E0;2.208651066E0;-1.284489250E1
1.885559378E1;-3.277662039E0;1.895010591E0;-1.536119843E1
1.886579878E1;-4.900930882E0;2.667140722E0;-2.035789680E1
1.888532378E1;-1.667561531E1;-9.756371975E-1;-3.840778351E1
1.889580978E1;-1.247618484E1;-1.017894840E1;-1.891778564E1
1.891498878E1;-1.242590666E0;-7.469909191E0;-5.183446407E-1
1.893514378E1;-1.021007347E1;2.112883091E0;3.465606928E0
1.895509678E1;-1.393425369E1;4.279635429E0;-7.040150166E0
1.897503978E1;7.026981711E-1;-9.560047150E0;-3.010708570E0
1.898522378E1;-3.047818661E0;-1.218888092E1;-4.581305027E0
1.900526478E1;-2.930502892E0;-7.794323444E0;-7.533355713E0
1.902517778E1;-8.136694908E0;-5.710171223E0;-4.210203648E0
1.903635078E1;-5.895721912E0;-5.258863926E0;-4.387374401E0
1.905517078E1;-2.080561161E0;-6.713341713E0;-5.015852451E0
1.906521878E1;-7.517793179E-1;-7.666234016E0;-4.622006416E0
1.908546278E1;2.226607651E-1;-8.883685112E0;-4.714183331E0
1.909554478E1;1.280897856E-1;-8.999804497E0;-4.872200489E0
1.911517178E1;-5.506663769E-2;-8.316259384E0;-5.401319027E0
1.913551778E1;7.422025204E-1;-7.929595947E0;-4.537012100E0
1.915516978E1;7.589619160E-1;-8.771158218E0;-3.453635931E0
1.916546778E1;4.896142483E-1;-9.272743225E0;-2.906560898E0
1.918538278E1;2.968810201E-1;-9.907206535E0;-3.058592558E0
1.919576478E1;7.649474144E-1;-1.011310768E1;-2.798821688E0
1.921502878E1;1.256955862E0;-1.066257763E1;-2.379836559E0
1.922508478E1;1.727416515E0;-1.092593956E1;-2.545036316E0
1.923511878E1;1.456871748E0;-1.182376480E1;-3.110068083E0
1.924516878E1;1.939303398E0;-1.174116516E1;-3.325546265E0
1.926507178E1;3.610456228E0;-1.095945835E1;-3.568557739E0
1.928524278E1;4.097676277E0;-1.000417137E1;-4.213795185E0
1.930502178E1;4.291606426E0;-9.215282440E0;-3.337517262E0
1.932535478E1;3.833117008E0;-8.887276649E0;-3.208230257E0
1.933744478E1;3.649960518E0;-9.184157372E0;-2.870647907E0
1.935041028E1;3.991134167E0;-8.882488251E0;-2.378639460E0
1.936520678E1;3.444059134E0;-8.479064941E0;-2.197877169E0
1.937538778E1;3.658340216E0;-8.392873764E0;-2.596511841E0
1.938559778E1;4.059369087E0;-8.349778175E0;-3.459621429E0
1.940504678E1;5.740098476E0;-7.738059998E0;-4.328716755E0
1.942500978E1;6.767210960E0;-7.138312340E0;-4.285621166E0
1.943646978E1;4.568136692E0;-6.557718277E0;-3.755305290E0
1.945509578E1;1.177947283E0;-6.730101109E0;-2.024297476E0
1.946513278E1;5.123591423E-1;-6.493074894E0;-1.801636815E0
1.948528078E1;5.243301988E-1;-5.772420406E0;-4.656722069E0
1.950542878E1;8.331822157E-1;-5.372588634E0;-6.606799603E0
1.952507878E1;1.650802016E0;-6.121973515E0;-2.790441990E0
1.953540478E1;1.710657120E0;-6.274005413E0;-1.107318282E0
1.955537178E1;2.819172382E0;-6.025008678E0;9.217676520E-1
1.956548778E1;2.267308950E0;-6.572083473E0;1.389834046E0
1.957551578E1;1.228225470E0;-7.238868713E0;-8.978256583E-2
1.958571978E1;7.625532150E-1;-7.457938194E0;-3.342305660E0
1.960506778E1;1.256955862E0;-7.505822182E0;9.959878922E-1
1.961531978E1;1.163581967E0;-8.279149055E0;6.733692169E0
1.963650478E1;-9.050082564E-1;-6.582857609E0;-7.748833656E0
1.964966878E1;-1.604115069E-1;-8.524555206E0;-2.237381458E0
1.966593578E1;2.704250813E0;-1.330817032E1;6.470330238E0
1.968505378E1;4.882974148E0;-1.702995682E1;1.493981838E0
1.970569578E1;6.233304024E0;-1.894651604E1;-2.262520552E0
1.972526778E1;6.649895191E0;-1.994729233E1;9.540894032E-1
1.974508678E1;6.952761650E0;-2.019030380E1;2.042253971E0
1.975519578E1;8.301894188E0;-2.057457161E1;1.863885999E0
1.977503978E1;8.803479195E0;-2.147479248E1;-2.278082848E0
1.978550978E1;6.904877663E0;-2.078167152E1;-2.275688648E0
1.980517878E1;1.939303428E-1;-1.586517715E1;-2.073378563E0
1.982513778E1;-2.382230759E0;-7.369352818E0;-2.771288395E0
1.983532178E1;-1.188721180E0;-6.014234543E0;-1.777694821E0
1.985513578E1;7.242460251E-1;-5.680243492E0;-2.233790159E0
1.987538578E1;2.789244890E0;-8.550890923E0;-3.561375141E0
1.989557578E1;4.844666958E0;-9.581595421E0;-8.906430602E-1
1.991517478E1;4.380191803E0;-8.435969353E0;4.022258818E-1
1.993556778E1;3.217807055E0;-6.761225700E0;1.927332431E-1
1.995603478E1;6.548141837E-1;-7.354987621E0;6.141127348E-1
1.997521378E1;-4.381389022E-1;-8.382100105E0;7.517793179E-1
1.998559878E1;-7.912836671E-1;-9.472659111E0;8.535329103E-1
2.000562178E1;-2.691082716E0;-1.374511242E1;6.212953329E-1
2.002506578E1;-2.074575663E0;-1.361582470E1;2.011129409E-1
2.003566078E1;-1.438915253E0;-1.268088913E1;-9.217676520E-2
2.004578378E1;-1.082179189E0;-1.167771912E1;-4.704606235E-1
2.006506978E1;-9.097966552E-1;-1.061469364E1;-1.453280449E0
2.008553978E1;-4.920084476E-1;-1.009994030E1;-2.997540474E0
2.009580478E1;-3.232172430E-1;-9.951498985E0;-3.160346270E0
2.011538778E1;-2.454056740E-1;-9.617507935E0;-2.373851061E0
2.013535978E1;1.065419763E-1;-8.791508675E0;-1.023521185E0
2.015503978E1;-6.643909812E-1;-6.853402138E0;6.859387755E-1
2.016524978E1;-7.326257229E-1;-5.932831764E0;6.260837317E-1
2.018558378E1;2.813186944E-1;-5.658695698E0;-1.783680320E-1
2.020503678E1;7.206547260E-1;-6.910863400E0;-2.358288765E0
2.021506078E1;1.835155606E0;-9.012971878E0;-8.775946617E0
2.022513678E1;2.212242365E0;-9.554061890E0;-9.542090416E0
2.023515378E1;2.171540976E0;-9.885659218E0;-8.362946510E0
2.024526978E1;1.695094824E0;-9.933543205E0;-6.358999729E0
2.025606178E1;1.302445769E0;-9.617507935E0;-4.201824188E0
2.027515878E1;8.248024583E-1;-8.410830498E0;-2.120065689E0
2.029513478E1;-3.423708379E-1;-7.356184959E0;-3.707421303E0
2.031508078E1;-1.043871999E0;-7.552509308E0;-5.600037575E0
2.033537478E1;6.344634295E-2;-8.506598473E0;-7.808688641E0
2.034555778E1;6.871358752E-1;-9.084798813E0;-8.339004517E0
2.036514778E1;7.697358727E-1;-1.018134308E1;-7.226897717E0
2.038539578E1;-1.771709323E-1;-9.686940193E0;-6.506243229E0
2.040544378E1;-1.777694821E0;-7.872135162E0;-6.973112583E0
2.042540978E1;-1.869871497E0;-6.714538574E0;-6.664260387E0
2.044507678E1;-1.272518158E0;-5.847837448E0;-6.937199593E0
2.045516078E1;-6.943184733E-1;-5.670666695E0;-6.313509941E0
2.046516178E1;-2.777273953E-1;-5.483919144E0;-4.686649799E0
2.048548878E1;-1.017535701E-1;-4.169502258E0;-4.175487995E0
2.050529178E1;-5.913678408E-1;-3.021482468E0;-4.910507679E0
2.051583178E1;-1.046266198E0;-2.522291422E0;-4.903325081E0
2.053508778E1;-1.695094824E0;-1.181538582E0;-4.953603268E0
2.055566678E1;-1.707065821E0;-3.411737382E-1;-3.580528736E0
2.056582478E1;-1.436521053E0;-8.619125932E-2;-2.711433411E0
2.057602278E1;-1.340752959E0;-9.576806799E-3;-2.533065319E0
2.059501978E1;-2.825158119E0;3.519476354E-1;-2.446874142E0
2.060591378E1;-4.406527996E0;5.626373887E-1;-4.217386246E0
2.062528278E1;-4.450820923E0;9.121908545E-1;-5.009867191E0
2.063559978E1;-4.424484730E0;7.398083210E-1;-5.793968201E0
2.064643678E1;-3.921702385E0;7.098808289E-1;-6.315904140E0
2.065675878E1;-2.868253708E0;3.471592367E-1;-7.908048153E0
2.067635178E1;-1.053448766E-1;-1.197100878E-1;-1.093431950E1
2.069668578E1;5.817909837E-1;7.577648163E-1;-1.272637939E1
2.071541378E1;-2.021903276E0;1.563413739E0;-1.281137371E1
2.072552378E1;-3.374627352E0;2.062604666E0;-1.262103462E1
2.074507978E1;-6.155492783E0;1.962048292E0;-1.410783386E1
2.075561578E1;-8.072051048E0;3.555389643E-1;-1.640387344E1
2.077509078E1;-1.008437729E1;-3.967192173E0;-2.125093460E1
2.078515278E1;-9.956287384E0;-3.167528868E0;-2.303341675E1
2.080509078E1;-3.071760893E0;1.337161660E0;6.883329749E-1
2.082597578E1;-7.765593052E0;1.704671621E0;8.016983986E0
2.084535278E1;-1.376067448E1;1.077390742E-2;-3.357867956E0
2.086520978E1;1.753752708E0;-6.671442986E0;-6.115988255E0
2.088531078E1;-2.993949175E0;-1.066975975E1;-1.295263100E1
2.090539578E1;-4.248510838E0;-1.108515358E1;-1.397854710E1
2.091547778E1;-4.456806660E0;-1.055124664E1;-8.779537201E0
2.093511878E1;-5.673060894E0;-6.485892296E0;-3.676296711E0
2.095542578E1;-5.176264286E0;-3.397372246E0;-2.761711597E0
2.097564978E1;-3.849876404E0;-5.260061264E0;-3.702632904E0
2.099634478E1;-3.100491285E0;-8.893261909E0;-4.850652695E0
2.101562278E1;-2.610877037E0;-9.182960510E0;-5.299565315E0
2.103541178E1;-9.493009448E-1;-7.472303391E0;-4.872200489E0
2.104570778E1;-2.932897210E-1;-6.676231384E0;-5.130774021E0
2.106561978E1;3.830722719E-2;-6.060921669E0;-4.272452831E0
2.108532078E1;7.182605099E-3;-6.641515732E0;-2.378639460E0
2.110505178E1;2.035071515E-2;-7.770381451E0;-2.470816135E0
2.112553578E1;7.182604820E-2;-9.319430351E0;-2.592920542E0
2.113559978E1;3.100491166E-1;-9.962273598E0;-2.487575531E0
2.115511978E1;1.379060149E0;-1.048540592E1;-1.936909199E0
2.117522478E1;2.091335297E0;-1.066257763E1;-2.020706177E0
2.118541478E1;2.826355219E0;-1.076552773E1;-1.975216389E0
2.120509478E1;3.381809950E0;-1.071165848E1;-1.890222192E0
2.121519578E1;3.550601006E0;-1.080383492E1;-1.960851192E0
2.123534978E1;3.678690910E0;-1.025915432E1;-3.060986757E0
2.126032978E1;4.083311081E0;-9.364919662E0;-4.359841347E0
2.127502178E1;4.305971622E0;-7.898471355E0;-5.200206280E0
2.128536578E1;4.319139957E0;-7.456741333E0;-5.346252441E0
2.130510278E1;5.031414986E0;-7.129932880E0;-4.812345505E0
2.131510478E1;5.628767967E0;-6.959944248E0;-4.355052948E0
2.132519978E1;5.649118900E0;-7.169436932E0;-4.237737179E0
2.133542478E1;5.875370979E0;-7.001842976E0;-4.443638325E0
2.134621778E1;5.877765179E0;-6.465541840E0;-4.848258495E0
2.137022278E1;7.206547260E-1;-5.134365559E0;-6.303933144E0
2.138504378E1;-1.482010841E0;-4.276044369E0;-5.622782707E0
2.140769578E1;-1.048660398E0;-4.940435410E0;-4.778826714E0
2.142510078E1;1.490390539E0;-7.238868713E0;-3.114856482E0
2.143519978E1;3.086126089E0;-7.643488884E0;-9.205705523E-1
2.144535478E1;3.375824451E0;-8.087613106E0;2.318784237E0
2.146505778E1;9.900023937E-1;-8.508993149E0;6.455965042E0
2.147573178E1;1.520318091E-1;-8.212111473E0;8.027758598E0
2.149509778E1;1.303642869E0;-8.584410667E0;7.207744122E0
2.151519678E1;5.372588634E0;-1.182376480E1;5.985504016E-3
2.153518778E1;4.316745758E0;-1.999397850E1;-1.040998936E1
2.155517078E1;6.240486622E0;-2.086905861E1;5.864596844E0
2.157519178E1;4.820724964E0;-2.358288765E1;7.781155705E-1
2.158547178E1;5.400122166E0;-2.134311104E1;-4.199429989E0
2.160533378E1;2.141613483E0;-1.784039307E1;-3.159149170E0
2.162512178E1;3.633201122E0;-1.366730022E1;-4.557363033E0
2.163530278E1;4.953603268E0;-1.231936455E1;-3.854664803E0
2.164880978E1;4.994304657E0;-1.230739403E1;-5.160701752E0
2.166510778E1;5.154716492E0;-1.080024433E1;-2.035071403E-1
2.168535878E1;4.614823818E0;-5.957971096E0;2.309207439E0
2.170508378E1;4.282029629E0;-5.084087372E0;-6.655880809E-1
2.171514578E1;3.299209833E0;-6.931213856E0;-1.535880446E0
2.172555378E1;2.555810213E0;-8.311470985E0;-1.446097851E0
2.174503778E1;2.869450808E0;-1.000536919E1;-7.003039718E-1
2.175542478E1;2.642001629E0;-1.061948204E1;-2.214636505E-1
2.177520978E1;1.021126986E0;-1.180341434E1;1.495178938E0
2.178537478E1;2.130839527E-1;-1.202368069E1;2.371456861E0
2.180511178E1;8.619125932E-2;-1.192192745E1;1.278503656E0
2.182511878E1;8.379705995E-2;-1.107916832E1;-5.638344884E-1
2.184508578E1;6.943184733E-1;-1.018732834E1;-2.106897593E0
2.185511878E1;9.097966552E-1;-1.046864700E1;-2.574964046E0
2.186519378E1;8.667010069E-1;-1.111029339E1;-2.880224705E0
2.188583878E1;1.046266198E0;-1.180221748E1;-2.334346771E0
2.190513978E1;2.051830769E0;-1.234929276E1;-3.622427225E0
2.192496978E1;2.436100245E0;-1.324352646E1;-4.580107689E0
2.193507178E1;1.513135433E0;-1.298136139E1;-3.618835926E0
2.194536478E1;2.334346622E-1;-1.218050098E1;-2.298433542E0
2.196538478E1;-6.488286853E-1;-1.052969933E1;-1.132457376E0
2.197540578E1;1.054645896E0;-1.073200893E1;-3.859453201E0
2.199512378E1;1.569399238E0;-1.150054741E1;-5.644330502E0
2.201508578E1;5.758054852E-1;-1.159152794E1;-4.955997467E0
2.202511478E1;2.741360962E-1;-1.148019695E1;-5.190629482E0
2.203573878E1;4.177882075E-1;-1.093431950E1;-5.031414986E0
2.205508678E1;1.874659896E0;-9.102754593E0;-3.860650301E0
2.206533178E1;2.475604534E0;-8.221688271E0;-4.335899353E0
2.208503978E1;2.349909067E0;-7.612364292E0;-6.145915985E0
2.210528578E1;3.005920172E0;-7.764396191E0;-3.938461781E0
2.212503878E1;3.302801132E0;-8.245630264E0;4.082113802E-1
2.213540378E1;2.942473888E0;-7.690176010E0;1.022324085E0
2.215628778E1;2.536656618E0;-3.507505417E0;2.316390038E0
2.217596478E1;-1.532289088E-1;-1.774103403E0;-8.978256583E-2
2.218621078E1;-1.510741234E0;-3.399766386E-1;9.612720013E-1
2.220502478E1;-2.984372377E0;1.109712481E0;8.714894056E-1
2.221507178E1;-2.433706045E0;1.448492050E0;1.331176162E0
2.222570278E1;-1.971625090E0;1.681926727E0;1.161187768E0
2.223655978E1;-1.890222192E0;1.696291924E0;4.788403511E-1
2.225542878E1;-1.509544134E0;2.679111719E0;-2.236184359E0
2.227584078E1;-9.768342972E-1;3.906140089E0;-4.641160011E0
2.229534478E1;-1.484405041E0;3.924096584E0;-6.581660271E0
2.231518978E1;-5.257667065E0;2.792836189E0;-1.046266174E1
2.232577078E1;-5.849034786E0;2.507926226E0;-1.100135708E1
2.234613978E1;-6.167463779E0;1.711854219E0;-1.300889492E1
2.236506378E1;-8.434772491E0;2.181117773E0;-2.403898239E1
2.237513078E1;-1.170405483E1;5.207388401E-1;-3.515765381E1
2.238531978E1;-1.014183807E1;-5.438429356E0;-3.493020630E1
2.239544378E1;-5.495890141E0;-1.185129833E1;-2.232353592E1
2.241502178E1;1.966836691E0;-3.867832899E0;-1.851915002E0
2.242503978E1;-1.171961784E0;-1.221042871E-1;5.872976780E0
2.243511878E1;-5.177461147E0;2.609679937E0;1.519958973E1
2.245509878E1;-2.305376816E1;4.320336819E0;-4.690241337E0
2.246517678E1;-1.216254425E1;-1.288080573E0;-1.165138245E1
2.248521078E1;3.321954966E0;-1.292749214E1;-5.629965305E0
2.249521978E1;3.507505357E-1;-1.542464447E1;-1.015021801E1
2.250526178E1;-2.454056740E0;-1.530373764E1;-1.026274586E1
2.251554878E1;-3.163937569E0;-1.302206326E1;-6.376956463E0
2.253504978E1;-3.430891037E0;-6.045359135E0;-5.136759758E0
2.254518278E1;-3.575740337E0;-4.471171856E0;-5.856217384E0
2.255565378E1;-3.798400879E0;-4.607641220E0;-3.817554712E0
2.257515678E1;-1.790862918E0;-6.746860504E0;-2.558204412E0
2.258547178E1;-1.460463047E0;-7.438784599E0;-3.584120035E0
2.260640578E1;-4.165911078E-1;-8.310274124E0;-3.529053211E0
2.262511678E1;1.035492182E0;-8.626308441E0;-3.640383720E0
2.263564678E1;1.235408068E0;-8.789113998E0;-3.414131641E0
2.264580978E1;1.571793437E0;-9.005789757E0;-3.744531393E0
2.266840178E1;1.399410844E0;-9.355342865E0;-3.863044500E0
2.268550078E1;1.648407817E0;-8.930372238E0;-4.017470360E0
2.270506878E1;1.444900751E0;-8.939949036E0;-3.375824451E0
2.271518978E1;1.397016644E0;-9.118317604E0;-3.009511471E0
2.273515178E1;1.713051319E0;-9.478644371E0;-2.961627483E0
2.274522678E1;1.716642618E0;-9.574412346E0;-2.970007181E0
2.276511678E1;2.755726099E0;-9.916783333E0;-2.636016130E0
2.278523178E1;3.367444754E0;-1.028668785E1;-2.647987127E0
2.280589878E1;3.855861902E0;-1.011430550E1;-3.764882088E0
2.282522278E1;4.106055737E0;-9.889249802E0;-4.690241337E0
2.283548878E1;3.823540211E0;-1.018613148E1;-3.930082083E0
2.285503178E1;3.926490784E0;-9.743204117E0;-2.883816004E0
2.286517878E1;4.575319290E0;-9.211690903E0;-3.169923067E0
2.288520178E1;3.580528736E0;-8.285135269E0;-4.011485100E0
2.289569478E1;3.574543238E0;-8.072051048E0;-3.912125587E0
2.291577278E1;4.808753967E0;-7.704541206E0;-3.750516891E0
2.293543578E1;4.760869980E0;-7.709329605E0;-3.913322687E0
2.294549378E1;3.772064686E0;-7.833827972E0;-3.472789526E0
2.296503378E1;2.275688648E0;-6.710947514E0;-3.812766314E0
2.298517478E1;-5.027823523E-2;-5.685031891E0;-4.268861771E0
2.299538178E1;-1.322796464E0;-5.500678539E0;-5.106832027E0
2.300553678E1;-2.087743998E0;-5.748478413E0;-5.550956726E0
2.302527678E1;-2.589329243E0;-6.727706909E0;-3.767276287E0
2.304552878E1;-3.314772367E0;-6.712144375E0;-1.862688899E0
2.306531278E1;-2.298433632E-1;-5.868188381E0;2.712630510E0
2.308589978E1;4.050989151E0;-5.942408562E0;3.970783472E0
2.310546978E1;5.202600479E0;-6.098031521E0;9.852139950E-1
2.312513478E1;3.621230125E0;-6.296750546E0;4.920084476E-1
2.314542678E1;1.873462796E0;-8.101978302E0;2.819172382E0
2.316513978E1;2.078166962E0;-1.066257763E1;4.332307816E0
2.318508078E1;1.508347094E-1;-1.544738960E1;-8.718485832E0
2.320513178E1;3.160346270E0;-1.783680344E1;3.233369350E0
2.322511878E1;4.088099480E0;-1.936789513E1;-1.842338204E0
2.324522078E1;7.042544365E0;-1.895130348E1;4.092887878E0
2.325524478E1;9.534908295E0;-1.945887375E1;3.163937569E0
2.326544778E1;1.144308662E1;-2.040099335E1;1.381454349E0
2.328513378E1;1.130661774E1;-2.222058678E1;8.571242094E-1
2.330548678E1;7.376535416E0;-1.906383133E1;-4.127603531E0
2.332513778E1;2.577358246E0;-1.066497135E1;-4.929661274E0
2.333550178E1;-2.861070931E-1;-8.005013466E0;-2.205059767E0
2.335684378E1;-4.572925270E-1;-8.944737434E0;-9.911994934E-1
2.337557078E1;-1.047463298E0;-1.197579670E1;-1.250970364E0
2.339541078E1;5.961562395E-1;-1.285805988E1;-3.675099611E-1
2.341667678E1;-4.189852998E-2;-1.159152794E1;3.268085420E-1
2.343518078E1;3.854664862E-1;-9.050082207E0;-5.219359994E-1
2.345564978E1;1.430535555E0;-7.077260017E0;8.978256583E-1
2.347508178E1;9.181763530E-1;-6.762422562E0;2.234987259E0
2.348520478E1;7.098808289E-1;-6.958747387E0;2.342726469E0
2.350526178E1;3.651157618E-1;-8.166622162E0;2.035071373E0
2.352502578E1;-4.094084799E-1;-1.060870743E1;3.914519846E-1
2.353533278E1;-9.840168953E-1;-1.197699356E1;-6.895300746E-1
2.355610778E1;-8.798691034E-1;-1.210508347E1;-5.865794420E-1
2.357509278E1;-9.696517140E-2;-1.028189945E1;-1.535880446E0
2.358510778E1;-1.532289088E-1;-9.817423820E0;-2.085349798E0
2.360515478E1;-1.508347094E-1;-9.458293915E0;-3.865438700E0
2.362512478E1;9.708487988E-1;-8.374917984E0;-5.556941986E0
2.363535078E1;1.314416766E0;-7.806294441E0;-5.001487255E0
2.365509478E1;1.343147159E0;-7.656657219E0;-3.099294186E0
2.367522078E1;-8.523358107E-1;-8.902838707E0;2.528276920E0
2.368590578E1;-1.522712231E0;-8.198944092E0;4.824316502E0
2.370505978E1;-1.533486247E0;-6.367379189E0;4.624400616E0
2.371508878E1;-1.623268723E0;-6.125565052E0;2.596511841E0
2.372528678E1;-9.852139950E-1;-6.813898087E0;-2.619256735E0
2.374506678E1;-1.364694953E0;-1.155561447E1;-1.391270638E1
2.375509578E1;-1.691503525E0;-1.183334160E1;-1.020887566E1
2.376529578E1;-2.060210466E0;-1.170525169E1;-6.764816761E0
2.378540878E1;-1.541865945E0;-1.005923843E1;-1.813607812E0
2.380620978E1;-1.975216389E0;-8.376114845E0;-2.832340717E0
2.382510478E1;-2.494758129E0;-8.548497200E0;-7.026981831E0
2.383517178E1;-1.595735431E0;-9.105149269E0;-7.934384346E0
2.384518578E1;-4.991910458E-1;-9.522936821E0;-7.732074261E0
2.386500978E1;1.459265947E0;-9.410409927E0;-7.138312340E0
2.387507078E1;1.310825467E0;-9.159018517E0;-6.932411194E0
2.388530978E1;4.572925270E-1;-8.918401718E0;-5.677849293E0
2.389554478E1;-5.554547906E-1;-8.672995567E0;-5.592854977E0
2.391514078E1;-1.253364563E0;-7.393294811E0;-5.231330872E0
2.392520778E1;-9.002198577E-1;-6.509834290E0;-3.446453333E0
2.393537478E1;-1.873462796E0;-4.102464676E0;-1.944091797E0
2.395504678E1;-3.002328873E0;-1.960851192E0;-4.349067211E0
2.396568978E1;-2.819172382E0;-1.278503656E0;-4.017470360E0
2.398534778E1;-1.662773132E0;-4.800374508E-1;-3.055001259E0
2.399537278E1;-1.244984865E0;-3.052607179E-1;-2.512714624E0
2.400545378E1;-7.984662652E-1;-4.513070285E-1;-2.586935043E0
2.401589678E1;-9.504981041E-1;-8.080430627E-1;-3.203441858E0
2.403522178E1;-1.547851443E0;-1.007958889E0;-3.155557871E0
2.405514378E1;-2.246958256E0;-4.788403213E-2;-3.922899485E0
2.407505678E1;-2.857479811E0;1.533486247E0;-3.643975019E0
2.408519578E1;-2.777273893E0;2.106897593E0;-3.895366192E0
2.410508678E1;-2.686294317E0;2.155978680E0;-5.440823555E0
2.412507678E1;5.446808934E-1;2.339135170E0;-7.216124058E0
2.413616578E1;2.446874142E0;1.617283225E0;-1.134372807E1
2.415598278E1;3.076549172E-1;1.258152962E0;-1.436640739E1
2.417506778E1;-3.100491285E0;2.578555346E0;-1.337520790E1
2.418549578E1;-5.255272865E0;3.056198359E0;-1.308670616E1
2.420514778E1;-1.302086639E1;2.098517895E0;-2.253183174E1
2.422500378E1;-1.546175480E1;-6.327875137E0;-2.945347023E1
2.423515478E1;-1.474708557E1;-1.061229897E1;-2.020586586E1
2.425518078E1;-4.340687752E0;-1.322796464E0;-2.075772762E0
2.427507578E1;-6.204573631E0;3.928884983E0;7.176619530E0
2.428509278E1;-1.001853657E1;5.166687489E0;8.462306023E0
2.430615078E1;-9.935937077E-2;-5.395333767E0;-5.334281445E0
2.432507978E1;8.116343617E-1;-1.245343971E1;-7.726089001E0
2.433548678E1;-3.493140221E0;-1.301847172E1;-8.923190117E0
2.434598478E1;-5.317522049E0;-1.155800915E1;-8.449137688E0
2.436531078E1;-5.907692909E0;-7.031770229E0;-5.360617638E0
2.438532278E1;-4.711789131E0;-4.374206543E0;-3.960009575E0
2.439570578E1;-3.541024208E0;-4.236539841E0;-3.314772367E0
2.441514378E1;-1.752555609E0;-5.547365189E0;-3.493140221E0
2.442515778E1;-1.580173135E0;-6.452373505E0;-3.557783842E0
2.443547878E1;-1.734599113E0;-7.315483093E0;-3.495534420E0
2.445514578E1;-1.948880196E0;-8.384494781E0;-3.993528366E0
2.446588578E1;-1.267729759E0;-8.560467720E0;-4.067748547E0
2.448523878E1;1.280897856E-1;-8.893261909E0;-3.840299606E0
2.450536378E1;2.106897533E-1;-9.301473618E0;-4.204218388E0
2.452541378E1;4.321534038E-1;-9.176975250E0;-3.861847401E0
2.454515078E1;-1.053448766E-1;-9.566033363E0;-2.764105797E0
2.455521878E1;6.895300746E-1;-9.277531624E0;-1.619677424E0
2.457501578E1;1.875856996E0;-8.953117371E0;-2.772485495E0
2.458537878E1;2.351106167E0;-8.961497307E0;-3.373430252E0
2.460513478E1;2.580949545E0;-9.636661530E0;-4.796782970E0
2.461569178E1;2.226607561E0;-1.017176628E1;-4.192247391E0
2.464079378E1;2.798821688E0;-9.946710587E0;-2.892195702E0
2.465508978E1;3.566163540E0;-9.870096207E0;-2.828749418E0
2.466594978E1;4.004302502E0;-9.804255486E0;-2.782062292E0
2.468576278E1;4.496310711E0;-9.487024307E0;-3.241749048E0
2.469676478E1;4.007893562E0;-9.229647636E0;-3.711012602E0
2.471512378E1;3.665522814E0;-8.924386978E0;-3.191470861E0
2.472741178E1;4.150348663E0;-8.874108315E0;-3.045424461E0
2.474507478E1;4.313154221E0;-9.173383713E0;-2.930502892E0
2.475676278E1;4.590881824E0;-9.076418877E0;-3.191470861E0
2.477510778E1;5.136759758E0;-7.973888874E0;-4.107253075E0
2.479505578E1;2.973598480E0;-7.029376030E0;-4.339490414E0
2.480510678E1;6.200982332E-1;-6.708553314E0;-3.599682331E0
2.481511878E1;-2.286462545E0;-6.782773495E0;-3.117250681E0
2.483514878E1;-1.398213744E0;-5.792770863E0;-5.295974255E0
2.485512278E1;1.683123827E0;-5.552153587E0;-5.146336555E0
2.486538978E1;2.047042370E0;-5.882553577E0;-3.408146143E0
2.488514678E1;1.194706678E0;-6.706159115E0;-3.040636182E-1
2.490506778E1;5.123591423E-1;-5.267243862E0;-1.744175911E0
2.491511678E1;2.917334795E0;-5.711368084E0;1.878251195E0
2.492578878E1;3.870227098E0;-6.758831501E0;5.134365559E0
2.494510878E1;1.904587507E0;-7.038952827E0;3.919308186E0
2.496511278E1;-1.458068848E0;-6.002263546E0;-7.065289021E0
2.497561778E1;-1.052251697E0;-6.358999729E0;-2.863465309E0
2.499501078E1;1.872265697E0;-1.088164711E1;5.503072739E0
2.500507278E1;3.525461912E0;-1.314895535E1;-1.082179189E0
2.501562078E1;5.319916248E0;-1.576342392E1;-2.205059767E0
2.503556778E1;6.739677906E0;-1.986110115E1;4.824316502E0
2.505510878E1;4.633977413E0;-2.564908218E1;7.936778665E-1
2.506515178E1;6.938396454E0;-2.499067688E1;-1.006761789E0
2.508677578E1;9.014169693E0;-2.148556519E1;-1.177947283E0
2.510515078E1;6.035782337E0;-2.046204567E1;-3.782838583E0
2.512528078E1;3.756502390E0;-1.250611305E1;-5.351040840E0
2.513544578E1;2.110488892E0;-1.122042656E1;-2.960430384E0
2.515522478E1;6.057330370E-1;-8.171410561E0;-2.518700123E0
2.516525978E1;1.301248670E0;-7.278373241E0;-2.382230759E0
2.517619578E1;2.175132275E0;-6.967126846E0;-2.673126221E0
2.519564378E1;4.309563160E0;-8.426392555E0;-4.527435303E0
2.521515578E1;4.465186119E0;-1.041597462E1;-2.639607430E0
2.522552578E1;4.083311081E0;-1.076552773E1;-9.085995555E-1
2.524566478E1;2.681505919E0;-9.838972092E0;8.056488633E-1
2.526521278E1;1.441309452E0;-8.288725853E0;7.170634270E-1
2.528531478E1;6.799532771E-1;-8.483853340E0;9.145850539E-1
2.530506878E1;-1.580173075E-1;-1.089840603E1;1.174355984E0
2.531551178E1;-5.015852451E-1;-1.186925507E1;1.016338587E0
2.533518378E1;-3.711012602E-1;-1.259230423E1;-3.531447649E-1
2.534553978E1;-1.795651317E-1;-1.266293240E1;-1.896207690E0
2.536535178E1;3.531447649E-1;-1.276348972E1;-5.317522049E0
2.538519678E1;1.074996591E0;-1.177109241E1;-4.502296448E0
2.539552478E1;6.500257850E-1;-1.185967827E1;-3.857059002E0
2.540584078E1;1.005564690E0;-1.180461121E1;-3.719392300E0
2.542503278E1;8.391677141E-1;-1.244745445E1;-3.250128746E0
2.543524478E1;-2.693476975E-1;-1.266413021E1;-2.473210335E0
2.545500678E1;-1.857900500E0;-1.260906315E1;-1.628057122E0
2.546512278E1;-2.595314741E0;-1.261983681E1;-2.375048161E0
2.547537278E1;-2.993949175E0;-1.265096188E1;-3.768473387E0
2.549509578E1;-3.007117271E0;-1.183932781E1;-6.030993938E0
2.550536878E1;-1.950077295E0;-1.077510452E1;-6.540958881E0
2.552558978E1;1.723825186E-1;-1.056561184E1;-5.049371243E0
2.554496778E1;2.036268473E0;-1.065300083E1;-3.891774893E0
2.555509578E1;2.674323320E0;-1.068771648E1;-3.775655985E0
2.557509678E1;3.815160513E0;-1.004008484E1;-4.174290657E0
2.559520378E1;3.154360771E0;-8.404845238E0;-3.426102638E0
2.561505178E1;2.944868088E0;-6.523002625E0;-1.626860023E0
2.563523878E1;2.467224836E0;-4.556165695E0;-1.795651317E-1
2.565509478E1;2.213439465E0;-3.258508444E0;1.656787634E0
2.566512378E1;9.935936928E-1;-2.683900118E0;1.671152830E0
2.567534678E1;3.591302549E-3;-2.364274263E0;1.053448796E0
2.569509578E1;-2.243366957E0;-9.612720013E-1;2.096123695E0
2.571511278E1;-2.992752075E0;2.258929253E0;2.035071515E-2
2.573515078E1;-3.915716887E0;1.273715258E0;-2.943670988E0
2.575579778E1;-2.366668463E0;2.281674147E0;-1.244984865E0
2.577503378E1;-1.904587507E0;3.056198359E0;-3.215412855E0
2.578509378E1;-2.313995838E0;3.469198227E0;-5.045780182E0
2.579514278E1;-3.207033157E0;3.750516891E0;-6.258443356E0
2.580537978E1;-4.230554581E0;3.738545895E0;-7.360973358E0
2.581541978E1;-5.220556736E0;3.372233152E0;-9.093177795E0
2.583503378E1;-5.462371349E0;1.912967205E0;-1.170644951E1
2.584554878E1;-4.273650169E0;1.472434044E0;-1.211705494E1
2.586510878E1;-2.093729496E0;3.362656355E0;-1.478778648E1
2.588506978E1;-6.221333027E0;4.736927986E0;-2.362718010E1
2.589521578E1;-1.582327938E1;-4.685452938E0;-3.015018272E1
2.590558978E1;-9.843760490E0;-1.157117653E1;-2.003587723E1
2.592525778E1;1.482010841E0;-6.392518282E-1;6.677428722E0
2.593671678E1;-4.487931252E0;5.507861137E0;8.634688377E0
2.595511078E1;-2.127248192E1;7.098807812E0;-5.371391296E0
2.597537878E1;-4.884171486E-1;-4.458003521E0;-5.291185856E0
2.599585078E1;-9.576806799E-3;-1.262462521E1;-2.694674015E0
2.601569278E1;-7.102399349E0;-9.419986725E0;-5.297171116E0
2.603510578E1;-6.256049156E0;-4.865017891E0;-5.183446884E0
2.605510078E1;-3.539827108E0;-4.891354084E0;-5.538985729E0
2.607505978E1;-1.077390790E0;-6.739677906E0;-5.391742229E0
2.608517578E1;-5.255272985E-1;-7.715314865E0;-4.289212227E0
2.610521378E1;-9.181763530E-1;-9.185355186E0;-3.918111086E0
2.612557978E1;-6.871358752E-1;-8.791508675E0;-4.066551685E0
2.614537078E1;-8.020575345E-2;-8.254010201E0;-4.180276394E0
2.615548078E1;-4.740519226E-1;-8.319850922E0;-3.829525709E0
2.617515378E1;1.939303428E-1;-8.566453934E0;-2.628833532E0
2.618541778E1;1.268926859E-1;-8.992621422E0;-2.810792685E0
2.620506678E1;-1.005564705E-1;-9.910798073E0;-2.419340849E0
2.621522178E1;9.337386489E-2;-1.007480049E1;-2.487575531E0
2.623618078E1;7.793126702E-1;-1.026394272E1;-2.753331900E0
2.625537478E1;1.699883223E0;-1.049019432E1;-3.129221678E0
2.627510378E1;1.180341482E0;-1.110909557E1;-2.613271236E0
2.628516178E1;1.716642618E0;-1.080503273E1;-2.628833532E0
2.630546978E1;2.788047791E0;-9.777919769E0;-2.536656618E0
2.632542678E1;3.903745890E0;-8.975862503E0;-4.349067211E0
2.634509278E1;4.265270233E0;-8.597578049E0;-4.905719280E0
2.635511578E1;3.837905407E0;-8.797493935E0;-4.672284603E0
2.636518378E1;3.502717018E0;-8.887276649E0;-4.384980202E0
2.638521778E1;3.805583715E0;-8.380903244E0;-3.241749048E0
2.639537678E1;4.375403404E0;-8.347384453E0;-3.180696964E0
2.641511178E1;5.548562527E0;-8.960299492E0;-3.049015760E0
2.642514978E1;6.245275021E0;-8.962694168E0;-3.198653460E0
2.643605778E1;6.149507046E0;-8.487444878E0;-4.216189384E0
2.645505778E1;3.676296711E0;-7.165845871E0;-5.544970989E0
2.646525278E1;2.232593060E0;-6.475118637E0;-6.089652061E0
2.648510578E1;2.861071110E0;-4.703409195E0;-6.351817131E0
2.650528878E1;3.977966070E0;-5.111620426E0;-6.161478043E0
2.652606178E1;2.650381327E0;-6.093243122E0;-5.206191540E0
2.654520378E1;4.548983276E-2;-6.640318394E0;-8.212111592E-1
2.655536078E1;-9.433154464E-1;-5.907692909E0;5.075707436E-1
2.657508578E1;-9.852139950E-1;-5.080495834E0;1.389834046E0
2.659522378E1;5.805938840E-1;-6.697779179E0;4.230554581E0
2.660525878E1;7.577648163E-1;-6.752845764E0;3.773261786E0
2.662526578E1;-6.787561774E-1;-7.717709064E0;3.355473757E0
2.663537678E1;-5.386953950E-1;-8.690952301E0;2.390610456E0
2.664543278E1;1.316810995E-1;-1.020887566E1;-8.259996027E-2
2.665560578E1;1.806425214E0;-1.174954510E1;-2.535459518E0
2.667546178E1;6.697779179E0;-1.652837181E1;2.433706045E0
2.669510078E1;7.222109318E0;-1.906383133E1;2.367865562E0
2.670575778E1;6.106411457E0;-2.149753761E1;1.823184609E0
2.672566578E1;4.633977413E0;-2.443163109E1;2.701856613E0
2.674513678E1;4.865017891E0;-2.337100029E1;2.418143749E0
2.676507478E1;1.552639842E0;-2.226248360E1;-9.843760490E0
2.677513878E1;1.886630893E0;-2.039381027E1;-9.023746490E0
2.679507478E1;2.360682964E0;-1.664927864E1;-6.469132900E0
2.681510078E1;2.047042370E0;-1.035013390E1;-6.294356346E0
2.683512778E1;3.971980572E0;-5.917269707E0;-3.411737442E0
2.684516878E1;4.839878559E0;-4.703409195E0;-3.819948912E0
2.686506178E1;5.862202644E0;-6.107608318E0;-4.381389141E0
2.688532578E1;6.689399719E0;-1.026274586E1;-1.657984734E0
2.689534378E1;5.969942093E0;-1.038245583E1;-5.542576909E-1
2.691498878E1;2.893392801E0;-9.083600998E0;1.831564307E-1
2.692556278E1;1.677138329E0;-8.725667953E0;-4.668693244E-2
2.693613178E1;6.069301367E-1;-8.540117264E0;-3.112462163E-1
2.695501978E1;-1.080982089E0;-9.503783226E0;-1.201889277E0
2.696526478E1;-1.155202270E0;-1.024838066E1;-2.452859640E0
2.698540778E1;-2.549824715E-1;-1.063264942E1;-2.499546528E0
2.699565378E1;-2.861070931E-1;-1.026513958E1;-1.527500629E0
2.701542178E1;-1.143231273E0;-1.002811337E1;3.303998411E-1
2.703513978E1;-5.554547906E-1;-1.049258900E1;-9.959878922E-1
2.705520178E1;1.912967205E0;-1.176151562E1;-5.659893036E0
2.707512078E1;2.340332270E0;-1.230619717E1;-4.468777657E0
2.708541178E1;2.163161278E0;-1.229183197E1;-4.036623955E0
2.710514378E1;8.894459605E-1;-1.179862595E1;-2.749740601E0
2.712511278E1;-2.370259613E-1;-1.033816338E1;-1.871068597E0
2.713518478E1;-9.852139950E-1;-1.032738876E1;-2.329558372E0
2.715518978E1;-1.203086376E0;-1.138802052E1;-5.651513100E0
2.717563978E1;-1.855506301E-1;-1.124795914E1;-5.758055210E0
2.719504078E1;6.991068721E-1;-1.075595093E1;-5.552153587E0
2.720512978E1;1.174355984E0;-1.041238308E1;-5.349843502E0
2.722519278E1;1.966836691E0;-9.651026726E0;-3.253720045E0
2.723628078E1;2.521094322E0;-9.196128845E0;-2.828749418E0
2.725581078E1;3.119644880E0;-8.529343605E0;-2.229001760E0
2.727502378E1;2.651578426E0;-7.032967567E0;-3.160346150E-1
2.728584078E1;2.505532026E0;-6.246472359E0;2.920926213E-1
2.730534578E1;2.237381458E0;-4.066551685E0;-1.011550188E0
2.731534878E1;1.397016644E0;-3.432088137E0;-1.394622445E0
2.733516478E1;-4.345476031E-1;-2.518700123E0;7.302315533E-2
2.734520578E1;-1.041477680E0;-1.587355733E0;7.841010690E-1
2.736516978E1;-1.249773264E0;1.112106681E0;9.971849918E-1
2.738562678E1;-2.331952572E0;2.106897593E0;4.836287498E-1
2.740541678E1;-2.752134800E0;3.203441858E0;-1.915361360E-2
2.742526078E1;-2.595314741E0;4.084507942E0;-4.806359768E0
2.743584378E1;-1.953668594E0;3.962403774E0;-6.244078159E0
2.745502478E1;-9.900023937E-1;3.659537315E0;-8.729259491E0
2.746521078E1;-3.196259141E-1;2.188300371E0;-1.467885017E1
2.747539378E1;-3.603273630E-1;1.176750183E0;-1.565688229E1
2.748547878E1;-4.740519226E-1;6.584054828E-1;-1.595855141E1
2.750517978E1;-7.015010715E-1;1.529894829E0;-1.502720737E1
2.752510278E1;-5.536591530E0;9.636662006E-1;-2.349430084E1
2.753534678E1;-7.111976147E0;-2.203862667E0;-2.895068741E1
2.755507978E1;-3.252522945E0;-8.906430244E0;-1.460223579E1
2.756535778E1;-1.736993313E0;-8.325836182E0;-2.780865192E0
2.758508278E1;-4.750096321E0;-2.056619167E0;4.912901878E0
2.759524378E1;-7.905653954E0;1.641225219E0;6.517016888E0
2.761499478E1;-1.141196251E1;3.579331636E0;-7.000645638E0
2.762507478E1;-3.681085110E0;-3.319560766E0;-4.307168961E0
2.763515078E1;8.248024583E-1;-7.606379032E0;-5.743690014E0
2.764679378E1;8.798691034E-1;-1.139759731E1;-1.071405220E1
2.766510578E1;-4.204218388E0;-1.148738003E1;-7.738059998E0
2.767515178E1;-5.536591530E0;-9.295488358E0;-7.138312340E0
2.769506878E1;-4.559757233E0;-4.479551315E0;-4.309563160E0
2.770566878E1;-3.677493811E0;-3.787626982E0;-3.611653328E0
2.772509578E1;-2.844311714E0;-5.142745018E0;-4.432864666E0
2.773537578E1;-2.342726469E0;-6.275202751E0;-3.949235678E0
2.775553978E1;-6.153098345E-1;-7.952341080E0;-3.268085241E0
2.777533378E1;6.895300746E-1;-9.114726067E0;-3.648763418E0
2.779507178E1;9.744400978E-1;-1.014542961E1;-3.213018656E0
2.780526378E1;1.319205165E0;-1.026753426E1;-3.282450438E0
2.782497378E1;1.940500498E0;-9.965864182E0;-3.416525841E0
2.783503578E1;2.456450939E0;-9.627084732E0;-3.250128746E0
2.784603978E1;2.744952202E0;-9.443928719E0;-3.427299738E0
2.786515878E1;2.697068214E0;-9.668983459E0;-3.543418407E0
2.788507878E1;2.415749550E0;-1.034175396E1;-2.946065187E0
2.790505678E1;2.348711967E0;-1.049498272E1;-3.751713991E0
2.791515578E1;2.942473888E0;-1.043991661E1;-3.987542868E0
2.792518478E1;3.296815634E0;-1.035372543E1;-3.924096584E0
2.793519478E1;3.057395458E0;-1.031900978E1;-3.513490915E0
2.795511978E1;3.728969097E0;-9.707290649E0;-2.212242365E0
2.796533378E1;4.254496574E0;-9.491812706E0;-2.080561161E0
2.798514278E1;5.450400352E0;-9.068038940E0;-2.759317398E0
2.799533178E1;5.823895454E0;-8.943540573E0;-3.274070740E0
2.801542478E1;5.330689907E0;-8.264783859E0;-4.280832767E0
2.803504578E1;4.847061157E0;-8.226476669E0;-3.672705412E0
2.804505478E1;5.348646641E0;-8.366538048E0;-3.418920040E0
2.806511478E1;5.509057999E0;-8.384494781E0;-4.131195068E0
2.808548078E1;3.541024208E0;-7.038952827E0;-3.857059002E0
2.810515678E1;-2.944868207E-1;-5.900510311E0;-3.414131641E0
2.812523978E1;-1.770512104E0;-5.163095951E0;-3.372233152E0
2.813556878E1;-1.195903778E0;-4.878185749E0;-4.258087635E0
2.815572678E1;2.054224968E0;-5.158307552E0;-3.944447279E0
2.817514578E1;1.625662923E0;-6.475118637E0;-1.006761789E0
2.818515678E1;1.310825467E0;-6.385335922E0;-2.609679997E-1
2.820556978E1;8.080430627E-1;-6.030993938E0;-4.165911078E-1
2.822500278E1;1.328781962E0;-6.209362030E0;-2.504334927E0
2.823535978E1;1.532289028E0;-7.171831131E0;-1.308431268E0
2.825513478E1;3.378218651E0;-1.005684471E1;6.199785233E0
2.827498678E1;3.026270866E0;-1.111627865E1;3.547009706E0
2.828517478E1;2.329558372E0;-1.259828949E1;2.237381458E0
2.830523878E1;1.675941229E0;-1.679532433E1;2.979583979E0
2.831577178E1;1.610100627E0;-1.882560730E1;4.782417774E0
2.833524578E1;3.994725466E0;-2.273414230E1;4.704606533E0
2.835518478E1;6.651092529E0;-2.492962456E1;-3.725377798E0
2.836524278E1;6.461950302E0;-2.375527000E1;-2.774879694E0
2.838527478E1;3.985148668E0;-1.944331169E1;-5.066130638E0
2.840538078E1;1.993172884E0;-1.555153751E1;-4.891354084E0
2.842531378E1;-3.483563364E-1;-1.107318306E1;-2.971204281E0
2.843593278E1;2.394201607E-2;-8.560467720E0;-7.350199223E-1
2.845546678E1;1.252167463E0;-6.313509941E0;-1.326387763E0
2.847506578E1;2.586935043E0;-8.465897560E0;-3.578134537E0
2.848518678E1;3.403357744E0;-9.903614998E0;-3.535038710E0
2.850526578E1;4.553771496E0;-1.027830791E1;-1.212663174E0
2.851559178E1;4.566939831E0;-9.581595421E0;-2.418143749E-1
2.853567078E1;3.490746021E0;-7.661445618E0;1.207874775E0
2.855535778E1;1.442506552E0;-7.231686115E0;1.515529633E0
2.857540278E1;-1.819593310E-1;-8.840589523E0;1.516726732E0
2.858698678E1;-1.000776291E0;-1.015500641E1;1.333570361E0
2.860503078E1;-1.702277422E0;-1.239837360E1;7.074866295E-1
2.861503378E1;-1.019929886E0;-1.266413021E1;-4.644751251E-1
2.862512878E1;-2.346317619E-1;-1.255279922E1;-2.014720678E0
2.863552978E1;9.672574997E-1;-1.083256531E1;-2.155978680E0
2.865557478E1;-1.699883193E-1;-1.018972206E1;-9.696517140E-2
2.866568578E1;-4.381389022E-1;-1.019091988E1;-3.591302633E-1
2.867761778E1;-1.173158810E-1;-1.060751057E1;-1.719036818E0
2.869504878E1;1.886630893E0;-1.253604031E1;-5.851428986E0
2.870511778E1;2.334346771E0;-1.324711800E1;-5.704185486E0
2.871535878E1;1.887827992E0;-1.320162773E1;-4.770446777E0
2.873567478E1;-7.613561153E-1;-1.228464890E1;-2.518700123E0
2.875517778E1;-1.496376038E0;-1.080383492E1;-1.832761407E0
2.876546178E1;-1.414973259E0;-1.055962658E1;-2.535459518E0
2.878509978E1;-3.914519846E-1;-1.140477943E1;-4.939238071E0
2.879523978E1;-9.935937077E-2;-1.190756226E1;-6.223727226E0
2.881507878E1;1.711854190E-1;-1.221641445E1;-5.513846397E0
2.882515978E1;3.232172430E-1;-1.210747814E1;-4.845864296E0
2.884526178E1;1.636436820E0;-1.022443867E1;-5.157110691E0
2.886499378E1;2.409764051E0;-9.439140320E0;-4.899733543E0
2.887500878E1;3.047818661E0;-9.057265282E0;-3.562572241E0
2.888525578E1;3.536235809E0;-8.471882820E0;-2.274491549E0
2.890495578E1;3.866635799E0;-7.052121162E0;-2.419340849E0
2.891497878E1;3.342305660E0;-6.714538574E0;-2.543839216E0
2.892573678E1;2.640804529E0;-6.361393929E0;-1.013944387E0
2.894497078E1;2.367865562E0;-4.758475780E0;1.127668977E0
2.895508878E1;1.126471877E0;-3.775655985E0;7.326257229E-1
2.896551378E1;-4.513070285E-1;-2.711433411E0;1.120486379E0
2.898506378E1;-2.054224968E0;2.454056740E-1;2.572569609E0
2.900505978E1;-4.114435673E0;2.498349428E0;1.544260085E-1
2.901523378E1;-4.650736809E0;2.383427858E0;-4.932055473E-1
2.903506078E1;1.388636976E-1;2.431311846E0;-2.809595585E0
2.905558078E1;-3.722983599E-1;2.552218914E0;-4.777629375E0
2.907504278E1;-4.321534038E-1;2.980781078E0;-6.305130005E0
2.908517778E1;-7.206547260E-1;2.752134800E0;-7.335834026E0
2.910506578E1;-1.657984734E0;1.341950059E0;-1.162265205E1
2.911541078E1;-2.035071373E0;8.678981066E-1;-1.270842266E1
2.913517478E1;-1.429338455E0;1.218648672E0;-1.298734665E1
2.914524178E1;-1.782483220E0;1.711854219E0;-1.379060173E1
2.915543178E1;-3.871424198E0;2.285265446E0;-1.649604988E1
2.917505478E1;-9.532513618E0;-1.665167332E0;-2.710595512E1
2.918659478E1;-8.361749649E0;-6.386533260E0;-2.152866173E1
2.920531078E1;-2.858676910E0;-6.819883347E0;-6.354211330E0
2.922509178E1;-7.255628109E0;-1.118092179E0;3.920505285E0
2.923598378E1;-9.677363396E0;1.283292055E0;3.388992548E0
2.925512978E1;-6.348225594E0;-1.553836942E0;-3.928884983E0
2.926529078E1;-2.322375536E0;-6.472724438E0;-3.404554844E0
2.928501578E1;-1.089361787E0;-1.217810726E1;-1.123479176E1
2.929504578E1;-1.796848416E0;-1.355237865E1;-1.000058079E1
2.930536778E1;-3.260902643E0;-1.352005672E1;-9.540893555E0
2.932499978E1;-4.620809078E0;-8.872911453E0;-6.060921669E0
2.933538478E1;-4.185064793E0;-6.003460884E0;-4.339490414E0
2.935513878E1;-3.187879562E0;-3.764882088E0;-4.182670593E0
2.936520778E1;-2.835932016E0;-4.478354454E0;-3.281253338E0
2.938506478E1;-2.324769735E0;-6.969521046E0;-3.711012602E0
2.939507878E1;-1.702277422E0;-7.961917877E0;-4.420893669E0
2.940538278E1;-1.043871999E0;-8.825027466E0;-4.353855610E0
2.941543578E1;-3.375824392E-1;-9.698910713E0;-3.549403906E0
2.943513978E1;6.416460276E-1;-9.217676163E0;-2.513911724E0
2.944520478E1;1.215057373E0;-8.868123055E0;-2.068590164E0
2.946519678E1;1.575384736E0;-8.694543839E0;-1.983596087E0
2.948530278E1;3.055001259E0;-9.082404137E0;-1.186326981E0
2.950507478E1;3.333925962E0;-1.016338634E1;-2.304419041E0
2.951511178E1;3.476380825E0;-1.054286766E1;-3.335123062E0
2.952526478E1;3.366247654E0;-1.100853920E1;-4.025850296E0
2.954516778E1;2.971204281E0;-1.141675091E1;-3.514688015E0
2.955575478E1;3.283647537E0;-1.145505810E1;-3.076549292E0
2.957515678E1;3.677493811E0;-1.093431950E1;-3.403357744E0
2.958535778E1;3.869029999E0;-1.052730465E1;-3.712209702E0
2.960509178E1;4.854243755E0;-9.297882080E0;-4.254496574E0
2.961509578E1;4.838681698E0;-8.597578049E0;-3.898957491E0
2.963539878E1;4.174290657E0;-7.837419033E0;-3.189076662E0
2.965620578E1;4.120420933E0;-8.172607422E0;-2.029085875E0
2.967613778E1;4.661510944E0;-8.122329712E0;-2.109291792E0
2.969502278E1;5.378573895E0;-8.297105789E0;-2.172738075E0
2.970526178E1;5.886145115E0;-8.051700592E0;-2.159569979E0
2.971558378E1;5.856217384E0;-7.855375767E0;-2.327163935E0
2.973538778E1;5.821501255E0;-6.752845764E0;-3.861847401E0
2.975509278E1;3.585317135E0;-6.236895561E0;-5.647922039E0
2.976525478E1;1.671152830E0;-6.268020153E0;-5.778405666E0
2.978511878E1;-4.848258495E-1;-6.860584736E0;-6.129156113E0
2.980649178E1;9.804255962E-1;-7.905653954E0;-4.808753967E0
2.982512878E1;1.479616642E0;-6.889315605E0;-2.610877037E0
2.984518078E1;2.932897210E-1;-5.291185856E0;-4.776432514E-1
2.986518878E1;-1.490390539E0;-4.133589268E0;-3.519476354E-1
2.988513878E1;2.442085743E-1;-5.164293289E0;2.545036316E0
2.990579578E1;2.419340849E0;-7.767987251E0;6.780379295E0
2.992511778E1;8.726865053E-1;-9.581595421E0;5.682637691E0
2.993515378E1;1.133654475E0;-1.027351952E1;3.597288132E0
2.995550778E1;1.587355733E0;-1.361462784E1;-3.757699490E0
2.996566678E1;2.851494312E0;-1.510741234E1;-4.692635238E-1
2.998515478E1;5.746084213E0;-1.782004356E1;3.208230257E0
2.999536878E1;6.752845764E0;-2.005622673E1;7.230489254E-1
3.001517578E1;9.106346130E0;-2.622847939E1;1.951274425E-1
3.003521478E1;1.135689545E1;-2.319263268E1;3.830722570E-1
3.004533378E1;9.160215378E0;-2.232712746E1;-3.043030262E0
3.006512878E1;6.392518282E-1;-1.830965805E1;-3.881000996E0
3.008528078E1;-2.364274263E0;-1.112465858E1;-4.930858612E0
3.010515578E1;-7.122750282E-1;-7.949946880E0;-2.378639460E0
3.012516078E1;1.587355733E0;-8.429984093E0;-2.285265446E0
3.013520278E1;2.975992680E0;-9.534908295E0;-4.114435673E0
3.014543478E1;4.404133797E0;-1.028189945E1;-5.038597584E0
3.016524278E1;5.776011467E0;-1.037168217E1;-3.229778051E0
3.018528778E1;4.061763287E0;-8.774748802E0;-4.740519226E-1
3.020531178E1;1.616086125E0;-7.377732754E0;2.000355482E0
3.021613978E1;7.422025204E-1;-7.678205013E0;2.245761156E0
3.023504878E1;-8.906430602E-1;-9.036913872E0;2.096123695E0
3.024546178E1;-8.966285586E-1;-9.704896927E0;1.091755986E0
3.026515378E1;-4.285621047E-1;-1.168609810E1;-5.254075527E0
3.028550878E1;8.032546639E-1;-9.422380447E0;-4.120420933E0
3.030499178E1;1.009155989E0;-8.200140953E0;-8.631097078E-1
3.031536678E1;9.457096457E-1;-8.829815865E0;-7.134721279E-1
3.033509378E1;1.389834046E0;-1.094269848E1;-2.261323452E0
3.034511878E1;1.942894697E0;-1.213022327E1;-2.992752075E0
3.035578878E1;2.124854088E0;-1.287841129E1;-3.347094059E0
3.037502878E1;1.456871748E0;-1.296579933E1;-2.936488390E0
3.038511078E1;3.064578176E-1;-1.256836224E1;-2.709039211E0
3.040520378E1;-3.758896589E-1;-1.196741676E1;-3.475183725E0
3.041540978E1;-5.805938840E-1;-1.222838497E1;-4.763264179E0
3.042567878E1;-8.822633028E-1;-1.231098557E1;-5.687426090E0
3.044517578E1;2.382230759E-1;-1.200333023E1;-6.035782337E0
3.046516178E1;2.073378563E0;-1.156878281E1;-5.224148273E0
3.047552978E1;2.330755472E0;-1.129105568E1;-4.376600742E0
3.049516878E1;2.252943754E0;-1.061589050E1;-4.207809448E0
3.050524378E1;2.333149672E0;-1.043512821E1;-4.241328239E0
3.051536578E1;2.622848034E0;-1.025197124E1;-3.901351690E0
3.053650378E1;3.605667830E0;-9.236829758E0;-2.172738075E0
3.055538978E1;3.757699490E0;-7.412448406E0;-2.427720547E0
3.057507778E1;3.186682463E0;-6.702567577E0;-7.565677166E-1
3.058530878E1;2.683900118E0;-6.086060524E0;9.935937077E-2
3.059538778E1;1.656787634E0;-4.596867085E0;7.637503147E-1
3.061500878E1;1.321599364E0;-2.444479942E0;2.975992680E0
3.062523478E1;5.758054852E-1;-6.428431273E-1;4.426878929E0
3.063580778E1;-9.109937549E-1;9.205705523E-1;3.087323189E0
3.065616378E1;-4.538209438E0;3.660734415E0;1.320402265E0
3.066631878E1;-4.386177540E0;4.656722069E0;-1.640028208E-1
3.068559978E1;-2.410961151E0;5.187037945E0;-1.116895080E0
3.070506078E1;9.852139950E-1;3.921702385E0;-2.242169857E0
3.071511378E1;1.164779186E0;4.100070477E0;-4.507084846E0
3.072511978E1;-7.050924301E-1;4.033032894E0;-6.870162010E0
3.073541878E1;-3.191470861E0;3.728969097E0;-8.213309288E0
3.075506978E1;-5.481524944E0;2.012326479E0;-1.072243214E1
3.076512878E1;-5.013458252E0;1.096544385E0;-1.100375080E1
3.078517478E1;-2.713827610E0;2.233790159E0;-1.252885723E1
3.080503078E1;-7.856573105E0;4.112041473E0;-2.347395134E1
3.081510478E1;-1.140358257E1;-1.912967205E0;-2.697786522E1
3.083507678E1;-6.299144745E0;-1.773624611E1;-2.447592354E1
3.085540578E1;2.207453966E0;-8.358158112E0;-1.538274646E0
3.087507778E1;-5.511452198E0;3.627215624E0;9.580398560E0
3.088534278E1;-1.131619453E1;8.204929352E0;1.722628117E0
3.090501578E1;-7.031770229E0;1.101332754E-1;-3.945644379E0
3.091514478E1;-6.057330370E-1;-5.871779442E0;-6.186617374E0
3.092580278E1;7.721300721E-1;-1.023640919E1;-1.063384724E1
3.094540278E1;-3.969586372E0;-1.529176617E1;-6.588842869E0
3.095575178E1;-5.647922039E0;-1.390911484E1;-5.704185486E0
3.097540878E1;-4.337096214E0;-6.214150429E0;-6.265625954E0
3.099500878E1;-2.206256866E0;-5.136759758E0;-4.060565948E0
3.100514978E1;-1.584961534E0;-5.446808815E0;-3.960009575E0
3.101532578E1;-1.079784989E0;-5.883750439E0;-4.434061527E0
3.103502678E1;-9.457096457E-2;-6.975506783E0;-3.314772367E0
3.104504978E1;3.675099611E-1;-7.401674747E0;-3.165134668E0
3.105509878E1;1.046266198E0;-7.748833656E0;-4.109647274E0
3.106511478E1;1.490390539E0;-8.255207062E0;-4.711789131E0
3.108564778E1;1.564610839E0;-9.209297180E0;-3.148375273E0
3.110533978E1;2.734178305E0;-9.579200745E0;-3.675099611E0
3.112562678E1;2.311601639E0;-1.031062984E1;-3.999513865E0
3.114528278E1;1.400607944E0;-1.070687008E1;-2.409764051E0
3.115533178E1;1.604115129E0;-1.075834560E1;-2.342726469E0
3.117518178E1;1.960851192E0;-1.086847878E1;-1.863885999E0
3.118540878E1;2.103306293E0;-1.128147888E1;-7.038952708E-1
3.120516178E1;3.991134167E0;-1.123479176E1;-1.426944256E0
3.121544778E1;4.619612217E0;-1.125155067E1;-2.572569609E0
3.122594778E1;4.463989258E0;-1.124556541E1;-3.383007050E0
3.124525178E1;3.040636063E0;-1.143949604E1;-3.994725466E0
3.125585278E1;3.092111588E0;-1.122282028E1;-3.684676409E0
3.127515378E1;6.888118267E0;-9.287108421E0;-3.672705412E0
3.129498178E1;7.842207432E0;-7.934384346E0;-4.200626850E0
3.130516278E1;7.163451672E0;-7.845798969E0;-2.887407303E0
3.131538578E1;6.659471989E0;-7.857769966E0;-4.261679053E-1
3.133514478E1;7.752425194E0;-8.881291389E0;-3.101688385E0
3.134526578E1;8.615534782E0;-8.787917137E0;-4.516661644E0
3.136509178E1;6.039373875E0;-7.566874504E0;-6.124367714E0
3.138549078E1;8.595184088E-1;-5.073313236E0;-4.009090900E0
3.140533978E1;-1.191115379E0;-4.675876141E0;-3.821146011E0
3.142580278E1;-8.978256583E-2;-4.404133797E0;-4.390965939E0
3.144499378E1;3.399766445E0;-4.270058632E0;-3.369838953E0
3.145549478E1;3.184288263E0;-5.074510574E0;-2.954444885E0
3.147499778E1;5.279214978E-1;-6.584054470E0;-2.698265314E0
3.148526178E1;-4.129997790E-1;-6.895300865E0;-2.112883091E0
3.150535578E1;-1.424549967E-1;-6.039373875E0;-1.693897724E0
3.152542078E1;1.641225219E0;-6.430825710E0;2.662352324E0
3.154524078E1;2.665943623E0;-7.216124058E0;5.236119270E0
3.155524978E1;1.850717902E0;-7.546523571E0;6.023811340E0
3.156581978E1;6.177040339E-1;-1.114022064E1;5.574898720E0
3.157604078E1;1.058237195E0;-1.391510010E1;3.756502390E0
3.159516278E1;2.754528999E0;-1.895010567E1;2.645592988E-1
3.161507378E1;6.479907036E0;-2.317467499E1;9.576806799E-3
3.162511878E1;8.179790497E0;-2.540367699E1;1.599326730E0
3.163519078E1;9.378087997E0;-2.783498955E1;1.224634171E0
3.164742778E1;8.795100212E0;-2.833178520E1;7.541735470E-2
3.166532878E1;6.375759125E0;-2.364154434E1;-1.877054095E0
3.168535478E1;-9.684545994E-1;-1.910812378E1;-4.475960255E0
3.170517078E1;-3.897760391E0;-1.292629528E1;-5.061342239E0
3.171532378E1;-2.462436438E0;-1.042315674E1;-5.770026207E0
3.173515078E1;5.913678408E-1;-9.245209694E0;-6.160281181E0
3.175508278E1;3.616441727E0;-1.146702862E1;-5.841852188E0
3.177595778E1;9.402029991E0;-1.076433086E1;-5.006275654E0
3.179512178E1;6.812700748E0;-8.676587105E0;-5.865794420E-1
3.181511478E1;2.659958124E0;-6.263231754E0;-2.142810524E-1
3.182517078E1;1.611297727E0;-6.458359241E0;-3.112462163E-2
3.184511678E1;2.274491638E-1;-8.412027359E0;6.248866320E-1
3.185691978E1;3.866635859E-1;-1.038844109E1;-1.424549967E-1
3.187504178E1;-2.585737705E-1;-1.461061573E1;-3.851073503E0
3.189509878E1;-6.392518282E-1;-1.234330654E1;-3.810372114E0
3.190531578E1;-5.327098966E-1;-1.125633907E1;-3.257311344E0
3.192546578E1;1.659181833E0;-1.050216579E1;-4.458003521E0
3.194522378E1;3.754108191E0;-1.366610336E1;-8.653841972E0
3.196499878E1;1.731007814E0;-1.526064205E1;-5.980715752E0
3.197597178E1;-1.065419763E-1;-1.347336960E1;-3.128024578E0
3.199508378E1;6.392518282E-1;-1.503319263E1;-5.410895824E0
3.200518478E1;6.009446383E-1;-1.537556362E1;-6.622362137E0
3.202505478E1;4.285621047E-1;-1.446816063E1;-6.251260757E0
3.203522678E1;1.274912357E0;-1.361103630E1;-6.648698330E0
3.205508578E1;2.446874142E0;-1.299692440E1;-4.016273499E0
3.207502678E1;4.297592163E0;-1.064581776E1;1.600523829E0
3.209507778E1;5.038597584E0;-8.068459511E0;4.048594952E0
3.210536078E1;5.884947777E0;-6.877344608E0;4.036623955E0
3.211539278E1;5.469553947E0;-5.670666695E0;4.272452831E0
3.212543978E1;5.066130638E0;-4.173093796E0;5.046977043E0
3.213565278E1;5.455188751E0;-2.786850691E0;7.328651428E0
3.214568578E1;4.689043999E0;-1.188721180E0;8.584410667E0
3.216519578E1;-8.212111592E-1;4.935647011E0;4.849455357E0
3.217592078E1;-3.177105665E0;5.748478413E0;4.541800499E0
3.219559578E1;-5.801150799E0;6.598419666E0;4.529829502E0
3.221520578E1;-4.905719280E0;5.655104637E0;6.045359373E-1
3.223518578E1;-3.004723072E0;4.417302132E0;-3.347094059E0
3.224578478E1;-2.475604534E0;3.652354717E0;-5.258863926E0
3.226573378E1;-8.858546615E-2;1.946485996E0;-8.195352554E0
3.228512678E1;1.630451322E0;-5.817909837E-1;-1.102170753E1
3.230544378E1;1.922544003E0;-1.817199111E0;-1.380017853E1
3.231570778E1;8.331822157E-1;-1.476025343E0;-1.466209126E1
3.233504878E1;-4.176684856E0;5.027823448E-1;-1.812290955E1
3.234531078E1;-1.124197388E1;9.265560508E-1;-2.739924431E1
3.235595978E1;-1.779250908E1;-4.053383350E0;-3.800077057E1
3.237514578E1;-2.803610086E0;-4.442441463E0;-3.363853395E-1
3.238532778E1;-3.860650301E0;4.288015366E0;1.578856277E1
3.239593278E1;-8.705317497E0;8.711302757E0;1.092474270E1
3.241499478E1;-2.319622231E1;8.249221802E0;-1.432091713E1
3.242516978E1;-7.123947144E0;-6.212953329E-1;-9.597157478E0
3.243597778E1;6.318298340E0;-6.872556210E0;-5.717353821E0
3.245499978E1;4.250905037E0;-1.455315495E1;-6.849811077E0
3.246526178E1;-1.294066072E0;-1.478658962E1;-9.816226959E0
