"Time (s)";"Gyroscope x (rad/s)";"Gyroscope y (rad/s)";"Gyroscope z (rad/s)"
3.536625000E-2;-6.088289618E-2;-1.900198162E-1;-5.438736826E-2
4.547425000E-2;-7.432193309E-2;-1.704721302E-1;-5.621996522E-2
6.585125000E-2;-5.721770599E-2;-1.087747365E-1;-3.850486875E-2
8.546825000E-2;-2.117665485E-2;-6.723590195E-2;-2.934189141E-2
1.057012500E-1;-2.178752050E-2;-8.311839402E-2;-4.461352155E-2
1.200332500E-1;-2.728530765E-2;-9.961175919E-2;-5.438736826E-2
1.353902500E-1;-4.683299735E-2;-1.582548320E-1;-6.355034560E-2
1.553822500E-1;-5.416338146E-2;-2.028479874E-1;-4.033746570E-2
1.654302500E-1;-4.683299735E-2;-1.942958832E-1;-1.345939655E-2
1.757162500E-1;-7.737619802E-3;-1.771916449E-1;4.255695269E-3
1.955142500E-1;-3.278309479E-2;-1.955176145E-1;-3.972660005E-2
2.154512500E-1;-8.287404478E-2;-1.637526155E-1;-6.904813647E-2
2.355452500E-1;-2.056579106E-2;-1.368745416E-1;-7.149159163E-2
2.559582500E-1;8.144937456E-4;-1.716938615E-1;-9.165014327E-2
2.755642500E-1;-4.011347890E-2;-1.967393458E-1;-8.248716593E-2
2.953622500E-1;-8.776097000E-2;-1.887980849E-1;-4.400265962E-2
3.053632500E-1;-8.776097000E-2;-1.735264659E-1;-2.628756687E-2
3.154082500E-1;-7.004587352E-2;-1.478701234E-1;-3.117448837E-2
3.352952500E-1;-3.278309479E-2;-7.151195407E-2;-8.676322550E-2
3.453592500E-1;-3.828088194E-2;-4.219042510E-2;-9.714793414E-2
3.556962500E-1;-4.316780344E-2;-2.752966061E-2;-8.859582245E-2
3.657312500E-1;-5.171991885E-2;-1.873320900E-3;-4.766784981E-2
3.859192500E-1;-3.522655740E-2;3.294599801E-2;1.097521372E-2
4.054932500E-1;-5.660684034E-2;2.805907466E-2;3.357722610E-2
4.253272500E-1;-1.488474905E-1;-5.440773070E-2;2.807943895E-2
4.353272500E-1;-1.683951765E-1;-1.093856022E-1;2.502511442E-2
4.458612500E-1;-1.647299826E-1;-1.545896381E-1;1.402953919E-2
4.652862500E-1;-8.837182820E-2;-1.332093477E-1;-8.676322550E-2
4.756082500E-1;-9.509135038E-2;-9.594656527E-2;-1.557909995E-1
4.953072500E-1;-2.978986204E-1;3.538946062E-2;-1.857233942E-1
5.053632500E-1;-4.139630198E-1;-1.897754893E-2;-1.686191708E-1
5.156662500E-1;-4.994841516E-1;-1.503135860E-1;-1.392976344E-1
5.357792500E-1;-5.672901869E-1;-3.470121920E-1;-8.248716593E-2
5.554332500E-1;-6.595308185E-1;-3.812206388E-1;-7.576765120E-2
5.657612500E-1;-9.655743241E-1;-1.338202208E-1;-3.606140986E-2
5.857212500E-1;-1.415781975E0;1.697798073E-1;3.479895741E-2
6.054232500E-1;-1.603317618E0;-3.341840208E-1;-3.685551696E-3
6.253572500E-1;-1.628363132E0;-1.020185709E0;-6.110688299E-2
6.355132500E-1;-1.622254491E0;-1.283468604E0;-3.911573440E-2
6.554982500E-1;-1.728544950E0;-1.639603019E0;9.222029150E-2
6.754302500E-1;-1.933184862E0;-1.195504069E0;2.797559202E-1
6.954092500E-1;-1.935017467E0;-4.600222707E-1;6.719313860E-1
7.153682500E-1;-1.454877377E0;1.123584807E-1;8.270911574E-1
7.254262500E-1;-1.099964619E0;3.841935098E-1;7.745567560E-1
7.455022500E-1;-4.231260121E-1;7.464365959E-1;6.291708350E-1
7.653692500E-1;-2.129883319E-1;7.128390074E-1;5.448714495E-1
7.859112500E-1;-5.960008502E-1;4.208454192E-1;6.713205576E-1
8.053642500E-1;-8.690575957E-1;1.850514412E-1;6.474967599E-1
8.153672500E-1;-8.556185365E-1;2.744821273E-2;5.491474867E-1
8.353892500E-1;-4.585561752E-1;-8.311839402E-2;3.591683805E-1
8.455142500E-1;-1.103629768E-1;5.676974356E-2;2.693712115E-1
8.655962500E-1;6.159558296E-1;5.228599310E-1;1.044375971E-1
8.853942500E-1;9.708684683E-1;7.971383929E-1;-4.155919701E-2
8.959012500E-1;9.219992757E-1;8.069122434E-1;-1.130304337E-1
9.154282500E-1;6.825401187E-1;4.489452243E-1;-2.852944434E-1
9.354712500E-1;6.000733376E-1;-3.913610056E-2;-9.898053110E-2
9.459122500E-1;6.483316422E-1;-2.382781804E-1;-9.794204496E-3
9.560682500E-1;7.857763767E-1;-3.873293102E-1;-4.888957739E-2
9.755282500E-1;1.282409787E0;-1.362636834E-1;-3.056362271E-2
9.959352500E-1;1.537751436E0;5.136969686E-1;3.724242002E-2
1.015341250E0;1.009353042E0;4.574973285E-1;-2.199318558E-1
1.025416250E0;5.921320915E-1;1.832188368E-1;-2.810183764E-1
1.035978250E0;2.836450934E-1;-1.350419521E-1;-1.918320507E-1
1.055296250E0;7.289658487E-2;-5.699779987E-1;3.418809175E-2
1.065643250E0;2.097304165E-1;-7.746178508E-1;-4.155919701E-2
1.085730250E0;4.846197665E-1;-1.108150244E0;-2.022167593E-1
1.105469250E0;5.273803473E-1;-1.330505252E0;-3.683721125E-1
1.116106250E0;5.011131763E-1;-1.239486337E0;-4.954320788E-1
1.135445250E0;1.614720523E-1;-1.093489528E0;-5.333057046E-1
1.155740250E0;3.074688837E-2;-1.075163603E0;-3.298875988E-1
1.167658250E0;2.097304165E-1;-1.040955067E0;-2.688010931E-1
1.185695250E0;4.675155580E-1;-1.409917712E0;-2.211535722E-1
1.205433250E0;4.614068866E-1;-1.348831177E0;-3.799785674E-1
1.218446250E0;3.331251740E-1;-1.149689078E0;-4.080783725E-1
1.231423250E0;-3.217222914E-2;-9.273341894E-1;-3.256115615E-1
1.245653250E0;-1.641191244E-1;-7.104769945E-1;-2.504751384E-1
1.265991250E0;-5.660684109E-1;3.416772932E-2;1.952732727E-2
1.276053250E0;-5.611814857E-1;1.984904706E-1;9.649635106E-2
1.286087250E0;-4.377867579E-1;2.284228653E-1;9.710721672E-2
1.296741250E0;-2.942334414E-1;2.198707610E-1;7.267260551E-2
1.307064250E0;-2.001601756E-1;1.832188368E-1;7.450519502E-2
1.325374250E0;-1.867211312E-1;4.149810970E-2;6.839654595E-2
1.335460250E0;-1.781690270E-1;-1.057204083E-1;2.746857516E-2
1.345661250E0;-1.427388340E-1;-2.773735523E-1;1.019941345E-1
1.365368250E0;1.162680238E-1;-9.328319430E-1;1.832392067E-1
1.375548250E0;2.695951760E-1;-1.027516127E0;1.948456466E-1
1.386387250E0;3.764966130E-1;-1.042787671E0;1.869044006E-1
1.405349250E0;1.394809037E-1;-7.947764397E-1;1.789631546E-1
1.415548250E0;-1.085303873E-1;-5.907474160E-1;2.486017942E-1
1.435327250E0;-4.206825495E-1;-3.861075640E-1;3.939877152E-1
1.445453250E0;-3.418809175E-1;-2.694323063E-1;3.396207094E-1
1.466305250E0;1.938479096E-1;-1.086770058E0;4.843957722E-1
1.485391250E0;4.717915952E-1;-1.290188074E0;3.102991581E-1
1.495510250E0;4.039855301E-1;-9.994162917E-1;2.137824744E-1
1.515372250E0;4.662938789E-2;-6.096842289E-1;3.194621503E-1
1.525437250E0;-1.854993999E-1;-5.510411859E-1;3.891007900E-1
1.545341250E0;-5.086471438E-1;-5.033936501E-1;3.481728137E-1
1.556434250E0;-3.547090888E-1;-4.636874497E-1;2.980818748E-1
1.575371250E0;-2.423098683E-1;-2.773735523E-1;2.547104359E-1
1.595360250E0;-3.003420830E-1;-1.533679068E-1;2.993035913E-1
1.605366250E0;-3.754785061E-1;-2.260608673E-1;2.834210992E-1
1.615702250E0;-4.609996378E-1;-3.891618848E-1;3.011361957E-1
1.635370250E0;-4.322889745E-1;-3.097494245E-1;2.705929279E-1
1.645602250E0;-2.581923604E-1;-1.869654953E-1;1.844609380E-1
1.665709250E0;-2.606357820E-2;-2.327803820E-1;5.984443426E-2
1.685313250E0;-7.554366440E-2;-2.792061567E-1;6.473135203E-2
1.695489250E0;-1.525126845E-1;-2.669888437E-1;8.488991112E-2
1.706389250E0;-2.276491076E-1;-2.181196213E-1;7.145087421E-2
1.725486250E0;-2.465859205E-1;1.123584807E-1;-2.017891407E-2
1.745450250E0;-2.484185249E-1;4.281758070E-1;-2.272622287E-1
1.765637250E0;-2.624684274E-1;4.758232832E-1;-2.156557888E-1
1.787054250E0;-1.793907434E-1;3.774739802E-1;-1.063109115E-1
1.805571250E0;-1.451822966E-1;2.699617147E-1;4.335107282E-2
1.825353250E0;-1.567886956E-2;2.797355652E-1;6.228789315E-2
1.835408250E0;1.914044842E-2;3.157765865E-1;2.869030461E-2
1.855370250E0;-1.323540695E-2;4.000760019E-1;-2.873102576E-2
1.865387250E0;-4.866559058E-2;4.116824567E-1;-3.972660005E-2
1.885329250E0;-1.671734452E-1;3.725870550E-1;-3.422881290E-2
1.895473250E0;-1.983275712E-1;3.047810197E-1;-1.162680145E-2
1.915378250E0;-7.004587352E-2;1.050281003E-1;2.441424876E-2
1.935410250E0;1.480330229E-1;5.249368399E-2;1.402953919E-2
1.945471250E0;1.431460977E-1;1.520647109E-1;8.531752974E-3
1.965313250E0;5.334890261E-2;2.424727678E-1;3.235549852E-2
1.975319250E0;-2.056579106E-2;2.565226853E-1;6.473135203E-2
1.985358250E0;-8.226317912E-2;2.443053722E-1;7.694865763E-2
2.005471250E0;-9.203702211E-2;2.498031557E-1;4.518366605E-2
2.025357250E0;-7.432193309E-2;2.253685445E-1;5.923356861E-2
2.035416250E0;-6.332635880E-2;1.838297099E-1;7.450519502E-2
2.045421250E0;-3.644828871E-2;1.331278980E-1;8.733336627E-2
2.065610250E0;6.312274933E-2;7.265224308E-2;9.466375411E-2
2.085842250E0;6.312274933E-2;1.618385613E-1;1.148223057E-1
2.105410250E0;6.739880145E-2;2.491922975E-1;8.488991112E-2
2.125338250E0;3.502294794E-2;2.253685445E-1;5.556837842E-2
2.135427250E0;1.975131407E-2;1.874949038E-1;5.068145692E-2
2.145494250E0;1.425352693E-2;1.355713606E-1;7.817038894E-2
2.156090250E0;-1.995492540E-2;1.007520407E-1;1.117679775E-1
2.175339250E0;-2.423098311E-2;7.692829520E-2;1.166549027E-1
2.185377250E0;1.181006804E-2;9.647598863E-2;1.142114401E-1
2.195937250E0;4.235332832E-2;1.276300997E-1;1.417003721E-1
2.219209250E0;8.694648743E-2;1.429017335E-1;2.070629597E-1
2.235629250E0;1.052724570E-1;1.343496293E-1;1.985108405E-1
2.255388250E0;8.389216661E-2;1.227431968E-1;1.795740277E-1
2.265563250E0;3.929900005E-2;6.959791481E-2;1.826283485E-1
2.285373250E0;-3.767001629E-2;-8.678358793E-2;1.380351782E-1
2.296010250E0;-4.622213170E-2;-1.356528103E-1;7.328347117E-2
2.315391250E0;-1.054760665E-1;-1.411506087E-1;-5.194390565E-2
2.335368250E0;-3.339396045E-2;1.410691440E-1;-1.783930063E-1
2.345506250E0;2.097304538E-2;2.760703564E-1;-1.967189759E-1
2.355645250E0;5.701409653E-2;4.061846435E-1;-1.942755133E-1
2.375505250E0;8.755736053E-2;5.772269368E-1;-1.496823430E-1
2.395529250E0;1.834632009E-1;5.882225037E-1;-5.560909957E-2
2.415539250E0;2.726495266E-1;4.446691573E-1;7.511606067E-2
2.425592250E0;2.885320187E-1;3.457089961E-1;1.496416181E-1
2.445506250E0;2.640973926E-1;1.575625092E-1;2.180585265E-1
2.465399250E0;2.323324233E-1;-4.927646834E-3;1.911804676E-1
2.475838250E0;1.932370514E-1;-3.974696621E-2;1.893478632E-1
2.495388250E0;1.034398526E-1;-5.807292461E-2;2.217237204E-1
2.505420250E0;9.427687526E-2;-9.044878185E-2;2.357736230E-1
2.525346250E0;1.119919717E-1;-2.175087631E-1;2.767015696E-1
2.535453250E0;1.950696409E-1;-3.378491998E-1;2.797559202E-1
2.555521250E0;3.239621818E-1;-2.926451862E-1;2.272215039E-1
2.565546250E0;3.679445088E-1;-1.539787650E-1;1.856826693E-1
2.585466250E0;3.551163375E-1;1.905492246E-1;1.349808574E-1
2.605459250E0;2.921971977E-1;3.909130394E-1;9.466375411E-2
2.615705250E0;2.537126839E-1;4.074063897E-1;6.167703122E-2
2.635476250E0;1.126028299E-1;2.834007442E-1;1.952732727E-2
2.655620250E0;1.181006804E-2;7.998262346E-2;7.310021669E-3
2.665753250E0;4.235332832E-2;-2.814052626E-2;5.477426574E-3
2.685517250E0;9.855294228E-2;-1.387071460E-1;4.701626301E-2
2.705348250E0;6.129014865E-2;-1.264898330E-1;1.190983653E-1
2.715741250E0;2.891429141E-2;-9.594656527E-2;1.252070069E-1
2.736288250E0;-7.676538825E-2;-3.913610056E-2;5.556837842E-2
2.755454250E0;-1.390736550E-1;-8.678358793E-2;-4.296417348E-3
2.765856250E0;-1.818342060E-1;-1.203811765E-1;-2.934189141E-2
2.785373250E0;-1.854993999E-1;-2.126218379E-1;-9.183338843E-3
2.795861250E0;-1.494583637E-1;-2.602693141E-1;3.113376722E-2
2.815405250E0;-6.821328402E-2;-1.894089580E-1;5.740097165E-2
2.825460250E0;-1.048651934E-1;-6.479243934E-2;2.624684572E-2
2.845863250E0;-2.484185249E-1;1.386256814E-1;-4.155919701E-2
2.856011250E0;-2.924008369E-1;1.398474127E-1;-5.988515168E-2
2.875851250E0;-2.997312248E-1;-6.234897673E-2;-6.660467386E-2
2.895855250E0;-2.569706440E-1;-2.468302846E-1;-6.739878096E-3
2.915550250E0;-2.484185249E-1;-1.552004963E-1;9.142617695E-3
2.935558250E0;-3.369939923E-1;-2.508619986E-2;-4.155919701E-2
2.955375250E0;-3.626503348E-1;-6.051638722E-2;-5.866342038E-2
2.975487250E0;-4.157956243E-1;-1.069421396E-1;-1.215825379E-1
2.985577250E0;-4.322889745E-1;-1.490918547E-1;-1.594561934E-1
3.005350250E0;-4.603887796E-1;-1.826894432E-1;-2.046602219E-1
3.015685250E0;-4.518366754E-1;-2.071240544E-1;-2.028276175E-1
3.035357250E0;-3.583742678E-1;-2.877582610E-1;-1.857233942E-1
3.045399250E0;-3.156137168E-1;-2.572149932E-1;-1.845016629E-1
3.056151250E0;-2.765183449E-1;-1.692503989E-1;-1.991624236E-1
3.075379250E0;-2.294816971E-1;4.088724405E-2;-2.284839600E-1
3.095394250E0;-2.484185249E-1;9.097819775E-2;-2.199318558E-1
3.105464250E0;-2.875139117E-1;-9.203704074E-3;-1.918320507E-1
3.126025250E0;-3.626503348E-1;-4.966741800E-1;-9.287187457E-2
3.145604250E0;-4.677191675E-1;-7.532376051E-1;-1.313563883E-1
3.165364250E0;-6.528112888E-1;-5.321043730E-1;-2.901813686E-1
3.185382250E0;-8.085819483E-1;-8.800531924E-2;-3.866980672E-1
3.195505250E0;-7.878125310E-1;5.188281834E-2;-3.964719176E-1
3.215566250E0;-6.350961924E-1;-4.316781648E-3;-3.182811737E-1
3.235422250E0;-4.347324371E-1;-2.834821939E-1;-1.447954178E-1
3.249229250E0;-2.685770988E-1;-3.909944892E-1;-3.606140986E-2
3.265352250E0;1.132137030E-1;-4.642983079E-1;1.496416181E-1
3.275408250E0;2.225585729E-1;-3.964922726E-1;2.174476683E-1
3.285408250E0;2.555452883E-1;-3.054733574E-1;2.589865029E-1
3.295746250E0;2.286672443E-1;-2.107892334E-1;2.614299655E-1
3.315517250E0;-5.721770599E-2;5.127195269E-2;1.178766340E-1
3.335328250E0;-1.793907434E-1;7.204137743E-2;-1.468112785E-2
3.350058250E0;-1.836668104E-1;2.195042372E-2;-6.904813647E-2
3.365329250E0;-8.898270130E-2;-1.173268482E-1;-9.348274022E-2
3.375735250E0;2.891429141E-2;-1.698612720E-1;-7.393505424E-2
3.395315250E0;1.883501261E-1;-1.240463704E-1;2.563598007E-2
3.405469250E0;1.932370514E-1;-7.884234190E-2;8.244644850E-2
3.415829250E0;1.865175366E-1;-7.334455103E-2;1.184874997E-1
3.435356250E0;1.364265829E-1;-1.521461755E-1;1.001615375E-1
3.445429250E0;7.106399536E-2;-2.004045248E-1;7.572692633E-2
3.455520250E0;8.144874126E-3;-2.126218379E-1;4.884885997E-2
3.465682250E0;-5.416338146E-2;-1.802459806E-1;3.602068871E-2
3.485412250E0;-1.861102730E-1;-1.393180043E-1;9.466375411E-2
3.495586250E0;-2.032144964E-1;-1.814677119E-1;1.526959538E-1
3.515452250E0;-6.149376184E-2;-5.082805753E-1;2.883080244E-1
3.535663250E0;-3.461569175E-2;-3.720576763E-1;2.534887195E-1
3.555349250E0;-2.270382345E-1;-1.008334905E-1;2.174476683E-1
3.565704250E0;-3.278310299E-1;-6.295984238E-2;2.168367952E-1
3.585571250E0;-4.029674530E-1;-3.922162056E-1;2.742581069E-1
3.605666250E0;-2.581923604E-1;-1.145413041E0;5.393736362E-1
3.616223250E0;-1.011999995E-1;-1.631661773E0;7.195788622E-1
3.635382250E0;3.105231524E-1;-2.527801037E0;1.056776524E0
3.655360250E0;6.825401187E-1;-3.081855774E0;1.392752409E0
3.665486250E0;7.839437723E-1;-3.248622179E0;1.544857860E0
3.685356250E0;7.863872051E-1;-3.472809553E0;1.790425777E0
3.695408250E0;7.350745201E-1;-3.429438114E0;1.814249516E0
3.715507250E0;4.626286030E-1;-2.117299557E0;1.514925480E0
3.725617250E0;3.581706583E-1;-1.703132987E0;1.452006340E0
3.745373250E0;3.783292174E-1;-1.444737077E0;1.428793550E0
3.755375250E0;5.420411229E-1;-1.588290334E0;1.478273630E0
3.766617250E0;7.503461838E-1;-1.707409143E0;1.522255898E0
3.785514250E0;9.384926558E-1;-1.618833661E0;1.548523068E0
3.805674250E0;9.042842388E-1;-1.290799022E0;1.610220432E0
3.825269250E0;8.804604411E-1;-1.075774431E0;1.631600738E0
3.836032250E0;8.456411362E-1;-1.074552655E0;1.615718246E0
3.855904250E0;7.912741303E-1;-1.068444014E0;1.448341131E0
3.875378250E0;8.169304729E-1;-9.297776222E-1;1.232094884E0
3.895373250E0;9.403252602E-1;-7.593462467E-1;1.081211209E0
3.915496250E0;1.031344175E0;-1.294464231E0;1.133134723E0
3.925943250E0;9.555968642E-1;-1.369600654E0;1.111754417E0
3.945380250E0;1.006298661E0;-1.472836852E0;1.090374112E0
3.965721250E0;1.329446435E0;-1.701300383E0;1.270579338E0
3.985574250E0;1.662978888E0;-1.907772899E0;1.623048663E0
4.005256250E0;1.831577659E0;-1.817364812E0;1.885720730E0
4.016005250E0;1.795536637E0;-1.705576539E0;1.964522362E0
4.026671250E0;1.689856887E0;-1.501547456E0;2.104410410E0
4.037452750E0;1.738115311E0;-1.374487519E0;2.064093113E0
4.047627000E0;1.743002176E0;-1.189395308E0;1.989567757E0
4.067797937E0;1.431460857E0;-3.824423850E-1;1.824634194E0
4.086325671E0;1.356324434E0;-2.822604775E-1;1.711013198E0
4.106462855E0;1.608611822E0;2.559117973E-1;1.211936355E0
4.129252901E0;9.995791912E-1;7.464365959E-1;6.352794766E-1
4.145305250E0;5.536475778E-1;8.405098319E-1;4.074267447E-1
4.155351250E0;2.335541695E-1;6.713001728E-1;2.974709868E-1
4.165410250E0;4.235332832E-2;2.351423949E-1;2.986927330E-1
4.185331250E0;8.572475612E-2;-1.217495203E0;5.894646049E-1
4.195787250E0;4.204789102E-1;-1.807590961E0;8.148738742E-1
4.215390250E0;1.422297955E0;-1.836301684E0;9.865269661E-1
4.225424250E0;1.341052890E0;-1.890668631E0;1.036007166E0
4.239006250E0;3.728314042E-1;-1.086770058E0;4.831740260E-1
4.255401250E0;9.549860656E-2;-9.077864885E-1;3.451184928E-1
4.266014250E0;5.701415241E-3;-1.014687896E0;3.750508726E-1
4.286144250E0;1.840740740E-1;-2.376306534E0;9.773640037E-1
4.298842250E0;4.785111248E-1;-2.593163729E0;1.332276821E0
4.315393250E0;6.464990973E-1;-2.081258535E0;1.341439724E0
4.325468250E0;5.200499892E-1;-1.872953534E0;1.328000784E0
4.345305250E0;-2.545271255E-2;-1.504601836E0;1.429404378E0
4.355350250E0;-3.431026638E-1;-1.322564006E0;1.508206010E0
4.365416250E0;-6.234897971E-1;-1.400143862E0;1.724452257E0
4.385360250E0;-7.444410920E-1;-1.532090783E0;2.099523306E0
4.405302250E0;-6.564764977E-1;-2.670132637E0;3.486798286E0
4.415302250E0;-4.512257874E-1;-2.673187017E0;3.957775593E0
4.435340250E0;6.678794324E-2;-1.976800680E0;4.574749470E0
4.455270250E0;1.364265829E-1;-1.059891939E0;4.625451088E0
4.465367250E0;6.006842479E-2;-1.040344238E0;3.922956228E0
4.485297250E0;1.510873437E-1;-1.106317639E0;1.741556525E0
4.495303250E0;5.945755914E-2;-9.548231363E-1;1.015848637E0
4.505309250E0;-3.205006421E-1;-7.110878825E-1;1.612053037E0
4.525278250E0;-6.772459149E-1;-1.836668327E-2;2.301719904E0
4.535278250E0;-5.923356414E-1;1.117476150E-1;1.918096542E0
4.545384250E0;-4.909320474E-1;2.485814095E-1;1.372593880E0
4.565692250E0;-5.587380528E-1;7.201693654E-1;3.677205145E-1
4.585416250E0;-9.118181467E-1;1.040873647E0;-3.909741342E-1
4.595499250E0;-1.183042288E0;1.089742899E0;-1.924429089E-1
4.615447250E0;-1.657684684E0;1.236350536E0;1.230262280E0
4.635335250E0;-1.826283455E0;4.587190747E-1;2.885706902E0
4.645786250E0;-2.011375666E0;2.546900809E-1;2.984056234E0
4.665375250E0;-2.404162169E0;1.429017335E-1;2.404345274E0
4.675521250E0;-2.177531004E0;-1.900198162E-1;2.452603579E0
4.685864250E0;-1.252070069E0;-6.096842289E-1;2.633419752E0
4.705299250E0;-3.938044608E-1;-2.355537176E0;2.640139103E0
4.715516250E0;-2.850703895E-2;-2.813686132E0;2.640749931E0
4.735735250E0;5.530366898E-1;-3.443488121E0;2.636473894E0
4.755635250E0;1.192612648E0;-4.036638260E0;2.591269970E0
4.775305250E0;1.165734529E0;-6.650530338E0;2.582107067E0
4.785440250E0;1.095485091E-1;-9.532592773E0;3.872254372E0
4.805288250E0;5.505932570E-1;-8.961433411E0;1.051113796E1
4.815690250E0;1.382591724E0;-6.590054989E0;4.749456882E0
4.835343250E0;3.856595755E-1;-5.754758120E-1;-3.280366898E0
4.845414250E0;7.595092058E-2;1.229020119E0;-2.899186850E0
4.865344250E0;-4.976515472E-1;1.934569478E0;-2.248187661E-1
4.885546250E0;-8.165231347E-2;-5.711997151E-1;6.872030497E-1
4.912202250E0;-4.878777266E-1;-1.998791814E0;2.449366003E-1
4.925341250E0;-1.198313951E0;-1.416026354E0;-5.499823391E-2
4.939168250E0;-1.470149040E0;-1.162517309E0;-6.293947995E-2
4.952253750E0;-1.783522844E0;-4.795699418E-1;-6.129014306E-3
4.967080250E0;-1.829337716E0;4.394157231E-2;1.105462462E-1
4.986788250E0;-1.657684684E0;1.263839483E0;1.001615375E-1
5.005334250E0;-1.161662102E0;2.485569954E0;-2.071036845E-1
5.015370250E0;-8.348491192E-1;2.517334938E0;-1.478497535E-1
5.025831250E0;-4.872668386E-1;1.618141294E0;-1.350215822E-1
5.046047250E0;1.449786872E-1;-5.125566721E-1;-1.704517603E-1
5.065458250E0;1.523090750E-1;-5.211088061E-1;-1.649539769E-1
5.086438250E0;-2.447533309E-1;-7.507941127E-1;-1.808364689E-1
5.105691250E0;-4.762712717E-1;-6.109060049E-1;-1.686191708E-1
5.125360250E0;-6.888523698E-1;-3.207449913E-1;-1.264694631E-1
5.145327250E0;-7.114543915E-1;-3.567860425E-1;-9.165014327E-2
5.165566250E0;-5.947790742E-1;-5.711997151E-1;-8.554149419E-2
5.176626250E0;-5.110905766E-1;-7.343007326E-1;-8.187630028E-2
5.196053250E0;-2.123774737E-1;-9.432166815E-1;-1.276911944E-1
5.206481250E0;-6.149376184E-2;-9.096190929E-1;-1.215825379E-1
5.225316250E0;1.199332178E-1;-2.724866271E-1;1.368134469E-1
5.235715250E0;-1.751146466E-2;2.540792227E-1;2.247780561E-1
5.255508250E0;-5.929465294E-1;5.173621178E-1;3.799377978E-1
5.275346250E0;-6.601417065E-1;-5.376021266E-1;7.751676440E-1
5.285359250E0;1.846849322E-1;2.622648142E-2;5.772472620E-1
5.295694250E0;6.648250222E-1;1.095851541E0;1.759088337E-1
5.315316250E0;1.256753445E0;2.935166836E0;-4.325129688E-1
5.325468250E0;1.308066130E0;3.017022610E0;-2.773531973E-1
5.335608250E0;1.237205744E0;2.805052519E0;9.527461976E-2
5.355959250E0;1.446121693E0;2.527108669E0;2.333301604E-1
5.375369250E0;1.900605440E0;2.547267437E0;-7.135109901E-1
5.387037250E0;2.017280579E0;2.331021070E0;-1.077586651E0
5.406140250E0;1.881057739E0;1.392121196E0;-1.072088838E0
5.418037250E0;1.795536637E0;1.052480102E0;-8.973814249E-1
5.435344250E0;1.566462159E0;1.099516749E0;-8.876075745E-1
5.446314250E0;1.370985270E0;1.306599975E0;-8.876075745E-1
5.465334250E0;1.083267689E0;2.020090580E0;-4.740518034E-1
5.485415250E0;1.117476225E0;2.593082190E0;-6.965899467E-2
5.495518250E0;1.092430711E0;2.654168844E0;-1.407026220E-2
5.515642250E0;9.953031540E-1;1.993823528E0;-1.014239937E-1
5.525652250E0;1.044172406E0;1.106236219E0;-1.863342673E-1
5.546785250E0;1.077769995E0;-2.028479874E-1;-2.205427140E-1
5.567001250E0;1.143743396E0;1.563407779E-1;-1.954972446E-1
5.585803250E0;1.308066130E0;7.904189229E-1;-1.612887830E-1
5.605294250E0;1.387478590E0;7.757581472E-1;-1.979406923E-1
5.615722250E0;1.400306821E0;6.218200922E-1;-2.309274226E-1
5.635300250E0;1.407637119E0;3.432655334E-1;-2.064928114E-1
5.645410250E0;1.401528478E0;3.163874745E-1;-1.527366787E-1
5.665383250E0;1.374039531E0;2.082643211E-1;-3.178535402E-2
5.685308250E0;8.407542109E-1;-5.339369774E-1;-3.685551696E-3
5.695365250E0;5.292129517E-1;-3.677816093E-1;4.518366605E-2
5.715324250E0;2.433279902E-1;5.057556629E-1;9.832894802E-2
5.735294250E0;2.873102725E-1;8.667770624E-1;4.396193847E-2
5.745393250E0;1.999565661E-1;8.252382278E-1;6.778568029E-2
5.755709250E0;2.891429141E-2;7.329975367E-1;1.105462462E-1
5.767237250E0;-1.677843183E-1;6.181548834E-1;1.325373948E-1
5.785352250E0;-3.760893643E-1;4.080172479E-1;8.061385155E-2
5.795423250E0;-4.750495553E-1;4.080172479E-1;9.832894802E-2
5.815308250E0;-1.054149747E0;4.306192696E-1;2.217237204E-1
5.825352250E0;-1.393180013E0;3.530393839E-1;1.313156635E-1
5.835470250E0;-1.669291019E0;1.868840307E-1;-3.483967856E-2
5.855372250E0;-2.343686342E0;-6.164037585E-1;-3.317202032E-1
5.865386250E0;-2.680273056E0;-9.578774571E-1;-4.105218053E-1
5.885511250E0;-2.862921953E0;-4.740721583E-1;1.209309548E-1
5.905387250E0;-2.543439388E0;-3.152472079E-1;2.186693996E-1
5.916073250E0;-2.464026928E0;-3.421252668E-1;1.129897088E-1
5.935774250E0;-2.450587749E0;-2.278934717E-1;2.807943895E-2
5.955377250E0;-2.658892870E0;-4.184834361E-1;2.809776366E-1
5.966354250E0;-2.831156969E0;-7.263594866E-1;5.124955773E-1
5.985435250E0;-2.524502516E0;-2.573616028E0;6.242839098E-1
5.995518250E0;-2.322306156E0;-3.500298500E0;4.868392348E-1
6.005581250E0;-2.154929161E0;-4.230282307E0;4.092593491E-1
6.015909250E0;-2.011375666E0;-4.747684956E0;3.677205145E-1
6.031430250E0;-1.913026333E0;-4.882075310E0;4.141462743E-1
6.045964250E0;-2.013208151E0;-4.561982155E0;4.343048036E-1
6.066401250E0;-2.460361719E0;-3.500298500E0;2.423100173E-3
6.087602250E0;-2.443257570E0;-2.586444139E0;-2.394795269E-1
6.105391250E0;-1.720603704E0;-2.224201202E0;-6.721553952E-2
6.116196250E0;-1.154942513E0;-2.149675608E0;6.228789315E-2
6.126423250E0;-5.850052834E-1;-2.061710835E0;1.294830739E-1
6.147224250E0;1.217658222E-1;-1.547973275E0;1.203200966E-1
6.166122250E0;3.618358374E-1;-8.277631402E-1;8.611164242E-2
6.185469250E0;6.892596483E-1;-4.520810246E-1;9.160942584E-2
6.205367250E0;1.061887383E0;1.569516361E-1;-1.179173589E-1
6.219309250E0;1.444289088E0;8.851029873E-1;-4.416759610E-1
6.235419250E0;1.645874619E0;1.147164226E0;-5.748445988E-1
6.255372250E0;1.978796124E0;1.342030168E0;-7.758192420E-1
6.265378250E0;1.931148648E0;9.647598863E-2;-4.392324984E-1
6.275386250E0;1.699630737E0;-7.055900693E-1;-1.728952229E-1
6.285446250E0;1.294627070E0;-1.293242455E0;5.617924407E-2
6.295469250E0;7.656177878E-1;-1.303016305E0;2.705929279E-1
6.315779250E0;-6.241006255E-1;-2.657670975E-1;2.070629597E-1
6.335768250E0;-1.595376372E0;-2.975321114E-1;-7.088072598E-2
6.355377250E0;-1.197703123E0;-3.928270936E-1;-3.422881290E-2
6.365408250E0;-7.578801513E-1;-4.270355403E-1;-1.692300290E-1
6.375460250E0;-2.924008369E-1;-4.783482254E-1;-2.975117564E-1
6.385514250E0;1.260418743E-1;-6.933727860E-1;-3.292767406E-1
6.405469250E0;5.017240047E-1;-4.850677252E-1;-1.356324404E-1
6.415645250E0;4.760676324E-1;-2.401107699E-1;7.450519502E-2
6.435979250E0;6.080145836E-1;-8.729671836E-1;4.666806757E-1
6.455452250E0;-1.775581539E-1;-9.303885102E-1;6.481076479E-1
6.475337250E0;-1.121955812E-1;8.618901372E-1;6.900741160E-2
6.485431250E0;2.488257736E-1;1.915021777E0;-2.651358843E-1
6.505488250E0;9.849184752E-1;3.164241314E0;-5.223101377E-1
6.525338250E0;1.857234001E0;3.410419941E0;-6.902980804E-1
6.535519250E0;2.125403643E0;3.411030769E0;-7.238956690E-1
6.555472250E0;2.307441473E0;3.395759106E0;-6.255463958E-1
6.566308250E0;2.233526945E0;3.669426680E0;-5.003190041E-1
6.585412250E0;1.868840456E0;3.984022379E0;-6.890763640E-1
6.605391250E0;1.802256107E0;3.466619492E0;-6.744155884E-1
6.615878250E0;1.945198536E0;2.765346289E0;-5.577403307E-1
6.637718250E0;1.810197353E0;8.563923240E-1;-7.251174450E-1
6.655458250E0;1.419243574E0;5.448510647E-1;-7.342804074E-1
6.665836250E0;1.390532970E0;5.375207067E-1;-6.102747321E-1
6.685536250E0;1.314785600E0;7.769798636E-1;-5.088711381E-1
6.705359250E0;1.254920840E0;1.090353727E0;-5.137580633E-1
6.730751250E0;1.176119208E0;1.180761814E0;-3.793676794E-1
6.745818250E0;1.356324434E0;1.020104170E0;-1.350215822E-1
6.768875250E0;1.594561934E0;1.048204064E0;-1.069217771E-1
6.785427250E0;1.884722948E0;5.442401767E-1;-2.016058862E-1
6.796058250E0;1.890831590E0;1.276300997E-1;-2.559729218E-1
6.815499250E0;1.431460857E0;-7.672874928E-1;-2.290948331E-1
6.825863250E0;1.170621514E0;-8.845735788E-1;-1.270803362E-1
6.845426250E0;1.255531669E0;2.956180573E-1;4.762712866E-2
6.866006250E0;8.370890617E-1;4.807102084E-1;-2.689843252E-2
6.885466250E0;1.602503210E-1;5.405750275E-1;1.905695945E-1
6.895537250E0;6.312280893E-3;7.733146548E-1;2.351627648E-1
6.915413250E0;-8.104145527E-2;1.101960182E0;2.076738179E-1
6.937148250E0;-1.751146913E-1;1.354247570E0;1.820174903E-1
6.955669250E0;-5.147557855E-1;7.720929384E-1;-1.345939655E-2
6.967615250E0;-6.949610114E-1;5.265251398E-1;-1.527366787E-1
6.981565750E0;-1.309491396E0;2.744821273E-2;-1.105869710E-1
6.995610250E0;-1.775581598E0;-2.016262561E-1;-1.234151423E-1
7.016253250E0;-2.466470242E0;-4.288681448E-1;-3.555439413E-1
7.035519250E0;-3.100548506E0;-7.501832247E-1;-3.280550241E-1
7.055565250E0;-3.010751247E0;1.245757863E-1;3.115209043E-1
7.065996250E0;-2.801224470E0;4.990361929E-1;3.884899318E-1
7.085552250E0;-2.616743088E0;2.834007442E-1;3.829921484E-1
7.105621250E0;-2.421266317E0;-2.407216430E-1;2.009543031E-1
7.125498250E0;-2.326582193E0;-7.489615083E-1;3.127426207E-1
7.135805250E0;-2.217237234E0;-1.569964409E0;3.640553057E-1
7.155406250E0;-1.924632788E0;-3.643241167E0;4.483547211E-1
7.166106250E0;-2.052303791E0;-3.899804354E0;5.967949629E-1
7.185408250E0;-2.064521074E0;-4.569312572E0;5.766364336E-1
7.195486250E0;-2.106670618E0;-4.847867012E0;4.911152720E-1
7.215426250E0;-2.594752073E0;-4.356120586E0;5.137172937E-1
7.235376250E0;-2.780455112E0;-2.908981085E0;5.766364336E-1
7.245376250E0;-2.361401558E0;-1.960918188E0;6.481076479E-1
7.266038250E0;-1.185485840E0;-2.240694523E0;6.517728567E-1
7.289068250E0;-1.745038331E-1;-2.098362923E0;2.479909360E-1
7.305378250E0;2.506583631E-1;-1.682363629E0;-1.345939655E-2
7.315839250E0;3.044145107E-1;-1.364102840E0;-8.370889723E-2
7.335370250E0;3.514511287E-1;-5.650910735E-1;-3.121725023E-1
7.357938250E0;6.929248571E-1;-1.262455247E-3;-4.612236321E-1
7.375333250E0;1.140689015E0;6.065484285E-1;-6.860220432E-1
7.385457250E0;1.377704740E0;8.075231314E-1;-8.711141944E-1
7.405370250E0;1.817527771E0;1.084245086E0;-1.167383790E0
7.416384250E0;1.949474692E0;1.096462369E0;-1.183877110E0
7.436284250E0;1.716124177E0;-5.052262545E-1;-3.842546046E-1
7.455723250E0;8.334238529E-1;-9.419949651E-1;3.438967466E-1
7.465842250E0;2.036217973E-2;-3.806097806E-1;5.699169040E-1
7.485410250E0;-1.719992876E0;1.374039501E-1;4.752327800E-1
7.505453250E0;-2.134770393E0;2.491922975E-1;4.599611461E-1
7.525428250E0;-9.093747139E-1;-5.669236779E-1;4.202549160E-1
7.548041250E0;9.244428575E-2;-6.506122351E-1;1.679675877E-1
7.560761250E0;-6.295984387E-1;-1.155797720E0;5.002782941E-1
7.578735250E0;-1.088969111E0;-2.872940063E0;9.517076612E-1
7.595599250E0;-5.226970315E-1;-1.833247304E0;6.267273426E-1
7.617878250E0;1.664200544E0;4.037778854E0;-1.538179040E0
7.636063250E0;1.728952289E0;1.951062918E0;-1.116071105E0
7.655457250E0;1.587842464E0;1.773301125E0;-3.042312562E-1
7.670086250E0;1.796758294E0;2.947994947E0;-3.689829707E-1
7.685497250E0;1.954972386E0;3.834971189E0;-7.605475783E-1
7.705337250E0;1.577457666E0;2.923560381E0;-5.534642935E-1
7.715708250E0;1.389311194E0;2.326745033E0;-5.210884213E-1
7.738411250E0;1.529810190E0;1.673730016E0;-5.571295023E-1
7.751972250E0;2.050267220E0;2.106833458E0;-9.218160510E-1
7.769767250E0;1.960470200E0;1.885089397E0;-1.005504489E0
7.785379250E0;1.722232819E0;1.568050385E0;-6.683069468E-1
7.795850250E0;1.598837972E0;1.733594894E0;-4.862691164E-1
7.807216250E0;1.485827923E0;1.977940917E0;-3.824220300E-1
7.825445250E0;1.425963163E0;2.225341320E0;-1.747278273E-1
7.837360250E0;1.451619506E0;1.941289067E0;-1.264694631E-1
7.855504250E0;1.573181629E0;7.696495056E-1;-1.582344621E-1
7.866443250E0;1.496823549E0;4.611625373E-1;-1.637322456E-1
7.876650250E0;1.397863269E0;3.432655334E-1;-1.515149474E-1
7.895432250E0;1.398474216E0;3.854152262E-1;-1.612887830E-1
7.905576250E0;1.476054072E0;5.216382146E-1;-1.655648351E-1
7.916276250E0;1.645874619E0;5.931094289E-1;-1.423519552E-1
7.935572250E0;1.965357184E0;5.143077970E-1;-1.887777150E-1
7.955432250E0;1.769880295E0;2.229250818E-1;-2.052710801E-1
7.966450250E0;1.564629555E0;6.287840009E-2;-1.374650449E-1
7.985845250E0;1.586620688E0;1.606168300E-1;-6.739878096E-3
8.005474250E0;1.133969545E0;5.320228934E-1;-1.223766524E-2
8.025429250E0;2.262237817E-1;4.739907086E-1;2.693712115E-1
8.035489250E0;1.852958649E-2;6.016615629E-1;2.785341740E-1
8.055368250E0;-1.030326039E-1;9.858957529E-1;2.540995777E-1
8.065539250E0;-2.135992050E-1;1.282165408E0;3.023579121E-1
8.085612250E0;-4.090760946E-1;9.596285820E-1;2.308866978E-1
8.105304250E0;-7.872016430E-1;5.815029740E-1;1.148223057E-1
8.115496250E0;-1.161051154E0;7.238345742E-1;1.190983653E-1
8.136803250E0;-1.736486197E0;-1.680286676E-1;5.556837842E-2
8.155355250E0;-2.410270691E0;-1.249260187E0;-1.863342673E-1
8.165629250E0;-2.866587162E0;-1.599896789E0;-2.187101245E-1
8.185562250E0;-3.548312664E0;-1.796595454E0;7.817038894E-2
8.205383250E0;-3.084666014E0;-9.578774571E-1;1.917913258E-1
8.215402250E0;-2.772513866E0;-7.984415889E-1;1.184874997E-1
8.235397250E0;-2.597195387E0;-1.145413041E0;1.490307599E-1
8.255517250E0;-2.665001631E0;-1.056837559E0;3.445076346E-1
8.266770250E0;-2.814052582E0;-7.220834494E-1;4.892826974E-1
8.285431250E0;-2.516561270E0;-1.838134289E0;4.184223115E-1
8.305378250E0;-2.303369284E0;-3.792292118E0;3.903225064E-1
8.316616250E0;-2.313143253E0;-4.179580688E0;3.090774417E-1
8.335629250E0;-2.472579002E0;-4.455080509E0;3.296636045E-2
8.355464250E0;-2.758463860E0;-3.474642277E0;-7.332418859E-2
8.365577250E0;-2.707762003E0;-2.824070692E0;-1.747278273E-1
8.385396250E0;-2.158594131E0;-2.386691332E0;-4.496172071E-1
8.395436250E0;-1.674178004E0;-2.640200377E0;-5.461338758E-1
8.409533250E0;-1.178766251E0;-2.894320250E0;-5.662924647E-1
8.425802250E0;-1.158607751E-1;-2.547348738E0;-6.481484175E-1
8.445462250E0;2.048434913E-1;-2.028724194E0;-8.631729484E-1
8.459606250E0;3.447316289E-1;-1.924877167E0;-9.376985431E-1
8.475434250E0;6.367252469E-1;-1.372654915E0;-9.798482060E-1
8.485515250E0;7.869980931E-1;-9.945293665E-1;-9.706852436E-1
8.505369250E0;1.050891876E0;-1.588656902E-1;-1.000006676E0
8.516456250E0;1.238427520E0;1.697798073E-1;-1.089193106E0
8.535482250E0;1.708793759E0;7.580430508E-1;-1.232135534E0
8.546233250E0;1.984294057E0;1.010330439E0;-1.289556861E0
8.565451250E0;2.402125597E0;1.188703060E0;-1.158220768E0
8.586484250E0;1.869451284E0;-1.179377139E-1;-4.325129688E-1
8.605379250E0;4.742350280E-1;-4.093204439E-1;8.061385155E-2
8.615417250E0;-1.453655601E0;4.196237028E-1;3.479895741E-2
8.635381250E0;-2.270382643E0;5.185838342E-1;9.222029150E-2
8.655368250E0;-1.948456526E0;-1.661960781E-1;1.184874997E-1
8.666513250E0;-1.371188879E0;-7.135313153E-1;2.614299655E-1
8.685397250E0;4.858414829E-1;-1.086770058E0;2.027869076E-1
8.695451250E0;9.268862009E-1;-9.737599492E-1;-7.882197946E-2
8.716145250E0;5.793039203E-1;-1.221771240E0;-3.109507859E-1
8.735356250E0;-2.691879570E-1;-3.073059618E-1;-2.419229895E-1
8.745400250E0;-6.638067961E-2;-1.503135860E-1;-1.930537820E-1
8.755816250E0;1.859066635E-1;-5.013167858E-2;-1.704517603E-1
8.775389250E0;1.342274547E0;2.285816908E0;-3.439375162E-1
8.785697250E0;1.786373615E0;3.132476330E0;-3.506570160E-1
8.795796250E0;1.859677434E0;3.087882996E0;-1.899994463E-1
8.816000250E0;1.411302328E0;3.114150286E0;-1.454062909E-1
8.836957250E0;1.959859371E0;4.726223946E0;-5.601838231E-1
8.855411250E0;2.119295120E0;5.048150063E0;-4.105218053E-1
8.866018250E0;2.265291929E0;4.436673641E0;-4.703866243E-1
8.886841250E0;2.662354231E0;2.306586504E0;-5.455230474E-1
8.905322250E0;1.803477883E0;4.587190747E-1;-2.694119513E-1
8.916403250E0;1.207884192E0;6.181548834E-1;-2.578054965E-1
8.935798250E0;8.401433825E-1;1.938234687E0;-5.229210258E-1
8.955346250E0;1.472388864E0;2.208848000E0;-3.146159649E-1
8.965454250E0;1.663589716E0;2.357899189E0;-1.411302388E-1
8.986313250E0;1.458949804E0;2.720752954E0;-4.583525285E-2
9.005437250E0;1.208495140E0;2.191743851E0;-1.319672465E-1
9.025390250E0;1.438791275E0;4.910949171E-1;4.457280040E-2
9.045412250E0;1.731395721E0;3.096679449E-1;6.350962073E-2
9.065435250E0;1.621440053E0;9.571850896E-1;5.862270296E-2
9.075513250E0;1.538973212E0;1.132503390E0;8.550077677E-2
9.085823250E0;1.496212602E0;1.066529989E0;1.062701941E-1
9.105417250E0;1.422297955E0;1.587842405E-1;8.183558285E-2
9.125860250E0;8.089892268E-1;2.622648142E-2;2.423100173E-3
9.145400250E0;2.970841229E-1;7.873645425E-1;9.466375411E-2
9.157036250E0;2.011782974E-1;9.553524852E-1;7.084000856E-2
9.175421250E0;-5.843943357E-2;8.930442333E-1;1.105462462E-1
9.185507250E0;-2.154317945E-1;9.852849245E-1;1.832392067E-1
9.205402250E0;-5.941682458E-1;9.657372236E-1;1.068810597E-1
9.215432250E0;-8.629489541E-1;6.804631352E-1;1.331482530E-1
9.235517250E0;-1.712662458E0;5.436293483E-1;-1.741169542E-1
9.245557250E0;-2.090788126E0;1.911600977E-1;-4.282369018E-1
9.255914250E0;-2.540995836E0;-4.600222707E-1;-6.475375295E-1
9.275379250E0;-3.288084030E0;-1.216273427E0;-8.973814249E-1
9.285810250E0;-3.512882471E0;-1.439239264E0;-7.678779960E-1
9.305386250E0;-3.590462446E0;-1.139915228E0;5.923356861E-2
9.315447250E0;-3.488447905E0;-7.116987705E-1;4.367482662E-1
9.335448250E0;-3.379102945E0;-7.517714798E-2;5.503692031E-1
9.355453250E0;-3.294192791E0;-1.344310790E-1;4.581285715E-1
9.365740250E0;-3.230662823E0;-2.126218379E-1;4.471329749E-1
9.385384250E0;-2.867808819E0;-1.258423090E0;6.163426638E-1
9.395385250E0;-2.340021133E0;-2.901650667E0;5.295997858E-1
9.405527250E0;-1.792075038E0;-5.662761211E0;4.795088470E-1
9.426061250E0;-2.078570843E0;-6.139847279E0;7.311853170E-1
9.445475250E0;-2.721201181E0;-4.665218353E0;6.511619687E-1
9.467105250E0;-3.073670387E0;-2.734273672E0;9.283115715E-2
9.485328250E0;-2.681494951E0;-2.600494146E0;-6.047769785E-1
9.495396250E0;-2.384614468E0;-2.714114904E0;-6.988502145E-1
9.505415250E0;-2.038864613E0;-2.732440948E0;-5.821749568E-1
9.525372250E0;-1.069421411E0;-2.447166920E0;-2.498642355E-1
9.535747250E0;-4.939863682E-1;-2.251079082E0;-2.113797367E-1
9.548396250E0;7.350745797E-2;-2.194879532E0;-2.852944434E-1
9.565437250E0;7.705047131E-1;-1.632883549E0;-4.997081161E-1
9.585397250E0;9.238318801E-1;-8.741889000E-1;-7.355021238E-1
9.605377250E0;1.506597400E0;-2.065131813E-1;-8.869966865E-1
9.615527250E0;1.786984444E0;5.371541530E-2;-9.822916985E-1
9.635531250E0;2.341039181E0;6.303722262E-1;-1.109351635E0
9.657001250E0;2.664186954E0;8.667770624E-1;-1.125234127E0
9.675524250E0;1.888998985E0;1.502321213E-1;-1.790038794E-1
9.685565250E0;1.356935382E0;-5.296608806E-1;3.048013747E-1
9.695611250E0;9.091711044E-1;-6.634404063E-1;5.234911442E-1
9.715445250E0;-6.845762730E-1;7.959166765E-1;3.237382174E-1
9.725478250E0;-1.612480640E0;1.057366967E0;7.206173986E-2
9.745546250E0;-2.341243029E0;7.134498954E-1;2.685770951E-2
9.757198250E0;-1.487864137E0;3.292156458E-1;1.966782510E-1
9.775403250E0;-6.711372733E-1;-5.852496624E-1;2.516561151E-1
9.786584250E0;6.703228354E-1;-3.854967058E-1;-2.523077130E-1
9.796932250E0;7.986045480E-1;-5.009502172E-1;-3.060638607E-1
9.815748250E0;-6.729698777E-1;-2.687847853E0;-1.857233942E-1
9.835541250E0;-9.069312215E-1;-1.260866642E0;-6.049601734E-2
9.855361250E0;9.024516344E-1;1.765359879E0;-6.066095829E-1
9.866293250E0;1.692300320E0;2.340183973E0;-7.098457813E-1
9.877945250E0;2.000176430E0;2.453194141E0;-7.055697441E-1
9.895367250E0;5.738061070E-1;2.339206636E-1;-2.140064538E-2
9.915836250E0;1.087543726E0;1.836831093E0;1.618589312E-1
9.935375250E0;2.288504839E0;4.114136696E0;-9.780156612E-1
9.946408250E0;2.579887390E0;4.294342041E0;-1.227859497E0
9.966276250E0;2.343482494E0;3.861849308E0;-7.049588561E-1
9.985526250E0;2.024000168E0;2.968153477E0;-3.879198134E-1
9.996126250E0;2.259183168E0;2.203350306E0;-1.594561934E-1
1.001971225E1;1.744223952E0;1.858211398E0;-2.272622287E-1
1.003268025E1;1.131526113E0;1.787351012E0;-3.262224197E-1
1.004536725E1;7.149159908E-1;2.175250292E0;-3.298875988E-1
1.005539725E1;8.847365379E-1;2.227174044E0;-2.248187661E-1
1.006630225E1;1.105258822E0;2.145318031E0;-1.478497535E-1
1.008892825E1;1.440013051E0;1.672508359E0;-1.337998509E-1
1.010554525E1;1.500488639E0;1.198476911E0;-1.270803362E-1
1.011601525E1;1.543860078E0;1.174653172E0;-4.278092831E-2
1.013549525E1;1.808364749E0;1.398840666E0;1.997325718E-1
1.015534225E1;2.013004541E0;1.215581059E0;1.649132520E-1
1.016631225E1;2.047823906E0;1.006054282E0;9.771808237E-2
1.018826625E1;1.834631920E0;4.721581042E-1;1.245961487E-1
1.020545425E1;1.692911267E0;3.017266989E-1;1.997325718E-1
1.021583425E1;1.514538646E0;3.481524587E-1;2.259997874E-1
1.023564725E1;7.637851834E-1;5.283576846E-1;2.828102410E-1
1.025543025E1;3.593923748E-1;6.432003975E-1;2.119498849E-1
1.026618025E1;2.500475049E-1;5.753943324E-1;1.936239153E-1
1.028559725E1;-5.660684034E-2;6.969565153E-1;2.388279438E-1
1.030576925E1;-3.064507246E-1;9.608502984E-1;2.040086389E-1
1.031631725E1;-4.011348486E-1;7.415496707E-1;1.282613426E-1
1.033552725E1;-8.996008635E-1;5.833355784E-1;-1.838908046E-1
1.034554225E1;-1.081027865E0;2.748486400E-1;-3.976936638E-1
1.035750425E1;-1.429831862E0;-3.537317216E-1;-4.966537952E-1
1.037050725E1;-2.419433594E0;-1.081272244E0;-6.848003268E-1
1.038551025E1;-3.060231447E0;-1.481999874E0;-8.033081889E-1
1.040541525E1;-3.504330397E0;-1.391591787E0;-1.765604168E-1
1.041645225E1;-3.479895830E0;-7.941655517E-1;1.649132520E-1
1.043558625E1;-3.169576168E0;5.088100433E-1;3.194621503E-1
1.045546225E1;-3.057787895E0;2.760703564E-1;2.131716162E-1
1.046616425E1;-3.015027285E0;-5.929465592E-2;1.398677826E-1
1.048635925E1;-2.774346352E0;-4.936198592E-1;1.789631546E-1
1.050542425E1;-2.236784935E0;-2.354315281E0;5.161607862E-1
1.051645925E1;-2.137824774E0;-3.489913940E0;4.446895123E-1
1.053535825E1;-2.007099628E0;-5.385428429E0;4.190331697E-1
1.054566025E1;-2.002212763E0;-5.926044464E0;4.257526994E-1
1.056593125E1;-2.518393993E0;-5.292576790E0;3.249599338E-1
1.058547625E1;-3.057177067E0;-2.461216688E0;4.029674456E-2
1.059573025E1;-2.866587162E0;-2.257187843E0;-6.232861429E-2
1.061641725E1;-2.099340439E0;-2.610878706E0;1.525127050E-2
1.063543225E1;-8.855509758E-1;-2.783753633E0;1.807957590E-1
1.064549225E1;-3.272201419E-1;-2.552235842E0;7.755952328E-2
1.066575125E1;3.477859497E-1;-2.031778574E0;-2.028276175E-1
1.068547225E1;5.676974654E-1;-1.463673830E0;-4.111326933E-1
1.070537325E1;7.240789533E-1;-8.772432208E-1;-5.925596356E-1
1.071643225E1;9.152798057E-1;-6.328971386E-1;-6.664743423E-1
1.074188125E1;1.769880295E0;5.802812576E-1;-1.122790694E0
1.075536325E1;2.088140965E0;1.073860407E0;-1.221139908E0
1.076666825E1;2.411899567E0;1.593095779E0;-1.185098886E0
1.078609725E1;1.919542193E0;6.181548834E-1;-5.271970630E-1
1.080577925E1;1.154128075E0;-8.845735788E-1;4.599611461E-1
1.081645625E1;6.593272686E-1;-4.227594733E-1;6.572706103E-1
1.083549425E1;-9.283115268E-1;4.880405962E-1;3.500054181E-1
1.085699125E1;-2.123164177E0;8.914560080E-2;6.350962073E-2
1.086751825E1;-2.113390207E0;-4.673526287E-1;1.264287382E-1
1.088062625E1;-1.002226233E0;-8.039394021E-1;4.972239435E-1
1.089535125E1;-4.799364805E-1;-1.313767582E-1;3.854355812E-1
1.090556325E1;3.624467924E-2;3.267721832E-1;1.539176852E-1
1.092542425E1;-9.631308168E-2;-1.377541900E0;2.345518917E-1
1.093593525E1;-8.666141629E-1;-2.566285610E0;4.147571325E-1
1.095642925E1;-1.390736550E-1;7.384953499E-1;-3.592091501E-1
1.097533925E1;2.170607805E0;3.006027222E0;-1.244963646E0
1.098549525E1;2.344093561E0;3.066502810E0;-1.192429304E0
1.100537525E1;3.972660303E-1;4.269540906E-1;1.380351782E-1
1.101771725E1;1.058833674E-2;4.196237028E-1;6.316142678E-1
1.103067875E1;1.041728854E0;3.576575279E0;-4.888957739E-2
1.104538125E1;1.482162714E0;4.523416519E0;-5.693467855E-1
1.105803525E1;1.839518905E0;4.676133156E0;-8.295753598E-1
1.106970425E1;1.996511340E0;4.294952869E0;-8.448470235E-1
1.108538625E1;2.479705572E0;1.989547372E0;-5.986683369E-1
1.110602325E1;2.890817881E0;7.476583123E-1;-3.695938587E-1
1.112272325E1;2.659910917E0;1.195422530E0;-5.290296674E-1
1.113766125E1;1.835242867E0;1.943121672E0;-7.568824291E-1
1.115536025E1;1.546914458E0;2.119661570E0;-5.888944864E-1
1.116684225E1;1.280577183E0;2.300477743E0;-6.355034560E-2
1.118544625E1;1.725897908E0;1.484972715E0;1.019941345E-1
1.119548325E1;1.903048873E0;9.455786943E-1;4.090761021E-2
1.121873625E1;1.794925690E0;3.377677500E-1;-1.283020675E-1
1.123546525E1;1.759495497E0;5.063665509E-1;-7.882197946E-2
1.124548225E1;1.936646461E0;7.079520822E-1;-1.956804842E-2
1.126589625E1;2.166942596E0;6.432003975E-1;-2.689843252E-2
1.128541225E1;1.994067788E0;-3.974696621E-2;-6.904813647E-2
1.130541925E1;1.607390165E0;4.917057753E-1;-4.827871174E-2
1.132540225E1;1.133969545E0;8.576141000E-1;4.457280040E-2
1.133540725E1;8.920668960E-1;7.226128578E-1;6.778568029E-2
1.134543525E1;6.452773213E-1;7.103955746E-1;1.166549027E-1
1.136628425E1;6.006842479E-2;1.092186332E0;3.939877152E-1
1.138545925E1;-9.020443261E-2;7.604864836E-1;3.872681856E-1
1.140543925E1;-3.101159334E-1;6.822957397E-1;2.394388169E-1
1.141614425E1;-4.328998327E-1;6.279287338E-1;2.339410335E-1
1.143558525E1;-1.048651934E0;8.105774522E-1;-1.887777150E-1
1.145540325E1;-1.795129299E0;2.137621045E-1;-2.205427140E-1
1.146546625E1;-2.248391390E0;-2.877582610E-1;-3.127833903E-1
1.148543325E1;-2.969823360E0;-9.560448527E-1;-6.945741773E-1
1.149557525E1;-3.336342335E0;-1.390370011E0;-5.901162028E-1
1.151620925E1;-3.590462446E0;-1.148467422E0;-8.554149419E-2
1.153555025E1;-3.236771345E0;2.100969106E-1;2.685770951E-2
1.155535725E1;-2.991814375E0;6.383134723E-1;-2.384410426E-2
1.156541025E1;-2.853758812E0;-3.115819991E-1;1.081027910E-1
1.157583325E1;-2.826269865E0;-8.210436106E-1;2.369953543E-1
1.159534025E1;-2.597195387E0;-1.901053429E0;5.039434433E-1
1.160541625E1;-2.201965570E0;-3.017104149E0;4.746219218E-1
1.161562925E1;-1.919745803E0;-4.028697014E0;3.231273293E-1
1.163546425E1;-1.953343391E0;-5.105652332E0;4.029674456E-2
1.165535325E1;-2.694933891E0;-4.098335266E0;-1.637322456E-1
1.166552825E1;-2.964936256E0;-3.243124247E0;-2.419229895E-1
1.168541925E1;-2.982040644E0;-2.390356541E0;-3.787568212E-1
1.169648225E1;-2.795115948E0;-2.492981911E0;-3.366071284E-1
1.171537925E1;-2.004656076E0;-3.233350515E0;-1.735060960E-1
1.172565125E1;-1.410284162E0;-3.442877293E0;-9.836966544E-2
1.175191625E1;-7.004587352E-2;-2.337821960E0;-3.653177917E-1
1.176580325E1;2.915863395E-1;-1.811256170E0;-5.919488072E-1
1.178899025E1;4.962262213E-1;-1.010411859E0;-6.652526259E-1
1.180683325E1;8.144870400E-1;-4.410854280E-1;-7.727649212E-1
1.182536725E1;1.269581676E0;1.435126066E-1;-1.070256233E0
1.183556025E1;1.497434378E0;6.554176807E-1;-1.243131042E0
1.184557225E1;1.716124177E0;1.343251944E0;-1.373245358E0
1.185567825E1;1.855401397E0;1.980995297E0;-1.416616797E0
1.186636125E1;1.903659701E0;2.203961134E0;-1.293832898E0
1.188539025E1;1.868840456E0;1.182594419E0;-7.214522362E-1
1.189552125E1;1.838908076E0;2.186490297E-1;-3.176703155E-1
1.191779425E1;1.245757937E0;-1.044620275E0;3.561140597E-1
1.193141625E1;-1.694336534E0;1.991013438E-1;2.272215039E-1
1.194534825E1;-1.694336534E0;1.991013438E-1;2.272215039E-1
1.195542825E1;-2.307034492E0;7.024543285E-1;2.901406288E-1
1.196672225E1;-1.931352258E0;5.344663858E-1;3.292360008E-1
1.198585025E1;-4.212934077E-1;-7.691200972E-1;2.388279438E-1
1.199627225E1;3.306817114E-1;-1.213829994E0;7.206173986E-2
1.201537025E1;6.770423651E-1;-1.456343532E0;-3.091181815E-1
1.203534125E1;-3.553199470E-1;-5.259957314E-1;-3.359962702E-1
1.204546725E1;-3.241658211E-1;1.422908753E-1;-5.927428603E-2
1.205635325E1;1.852958053E-1;2.724051774E-1;2.522669733E-1
1.206701625E1;4.901175201E-1;3.279938996E-1;3.939877152E-1
1.208541425E1;6.745988727E-1;1.150218487E0;-6.538294256E-2
1.210539325E1;7.173594236E-1;1.794681311E0;-7.874256968E-1
1.211677225E1;8.169304729E-1;1.996266842E0;-8.906618953E-1
1.213548425E1;1.470556259E0;3.294966459E0;-8.234667182E-1
1.215537625E1;2.348369598E0;4.455610752E0;-9.706852436E-1
1.216576125E1;2.391741037E0;4.178888798E0;-7.348912358E-1
1.218544225E1;2.661743402E0;2.614462614E0;-4.642779529E-1
1.219553425E1;2.739934206E0;1.878369927E0;-3.036203980E-1
1.221718225E1;2.297056913E0;1.491081357E0;6.717481464E-2
1.223543525E1;1.377093911E0;2.028031826E0;-1.936646402E-1
1.224546225E1;1.052724481E0;2.318803787E0;-4.435085356E-1
1.226581925E1;1.308066130E0;2.326134205E0;-2.315382808E-1
1.228543125E1;1.819971204E0;2.672494650E0;9.222029150E-2
1.230544325E1;1.974520087E0;3.100711346E0;2.247780561E-1
1.232534225E1;1.932981253E0;2.282151937E0;2.461583316E-1
1.233837225E1;1.523090720E0;1.139222980E0;9.222029150E-2
1.235623725E1;1.357546210E0;6.664132476E-1;2.258165181E-2
1.237533325E1;1.736282706E0;-1.775581762E-2;-4.888957739E-2
1.238548125E1;1.716124177E0;3.817500472E-1;-7.515678555E-2
1.239570825E1;1.644042015E0;8.991529346E-1;-2.445496991E-2
1.241550625E1;1.405804634E0;1.340197563E0;1.074919254E-1
1.242760525E1;1.060054898E0;1.067140818E0;1.649132520E-1
1.244538025E1;3.612249792E-1;4.196237028E-1;1.893478632E-1
1.245538925E1;2.494366616E-1;5.906659365E-1;1.520850807E-1
1.246602125E1;2.158390582E-1;9.785653949E-1;1.374243200E-1
1.248544925E1;-7.248933613E-2;1.340808511E0;2.076738179E-1
1.250960425E1;-6.045529246E-1;8.906008005E-1;5.251405016E-2
1.252547225E1;-9.307549596E-1;6.199874878E-1;-2.873102576E-2
1.253552525E1;-1.340034723E0;5.717291236E-1;-2.339817435E-1
1.255536825E1;-2.506176472E0;-2.388890386E-1;-7.348912358E-1
1.256935125E1;-2.949053764E0;-4.771264791E-1;-9.419745803E-1
1.258560825E1;-3.561140776E0;-8.784649372E-1;-6.982393265E-1
1.260550625E1;-3.577634096E0;-5.070588589E-1;1.337591261E-1
1.262541725E1;-3.507384777E0;3.035593033E-1;5.314323902E-1
1.264543025E1;-3.330844641E0;3.536502421E-1;4.599611461E-1
1.266606625E1;-3.060842276E0;1.156571507E-2;2.522669733E-1
1.268543025E1;-2.854980707E0;-1.303627133E0;4.202549160E-1
1.270535025E1;-2.230676413E0;-4.334740162E0;4.459112585E-1
1.271538725E1;-2.216626406E0;-5.075719833E0;4.544633627E-1
1.272547725E1;-2.296038866E0;-5.423302174E0;3.628335893E-1
1.273841225E1;-2.601471663E0;-4.815491199E0;6.778568029E-2
1.275086225E1;-2.820161343E0;-3.808785439E0;-5.683083087E-2
1.276541425E1;-2.842152357E0;-2.351871967E0;-2.828509808E-1
1.277556025E1;-2.638123512E0;-2.343930721E0;-3.402723074E-1
1.279568525E1;-2.011375666E0;-3.242513418E0;-1.863342673E-1
1.281545125E1;-1.125620961E0;-3.202807188E0;3.174463287E-2
1.283547225E1;-1.683951765E-1;-2.682960987E0;-6.904813647E-2
1.285576925E1;3.917682469E-1;-1.908994675E0;-3.133942485E-1
1.287540725E1;6.929248571E-1;-1.122811079E0;-5.455230474E-1
1.288545225E1;8.645779490E-1;-7.862243056E-1;-6.084421873E-1
1.289547725E1;1.055167913E0;-4.844568670E-1;-6.915198565E-1
1.290548925E1;1.272025108E0;-1.955176145E-1;-8.417927027E-1
1.291578325E1;1.537751436E0;9.403252602E-2;-1.038491249E0
1.293628525E1;2.398460388E0;1.488637924E0;-1.492974997E0
1.295530625E1;2.300722122E0;1.299880505E0;-1.098356009E0
1.296557225E1;1.921985745E0;2.913419902E-1;-5.681250691E-1
1.298545825E1;1.245146990E0;-1.727567673E0;6.151209474E-1
1.300546125E1;-2.471967936E-1;-1.680286676E-1;9.101688266E-1
1.301553325E1;-1.219083428E0;2.326989323E-1;5.992384553E-1
1.303543525E1;-2.362623215E0;4.519995451E-1;2.956384122E-1
1.304545925E1;-2.178141832E0;2.626313269E-1;3.420641720E-1
1.306601525E1;-9.643525481E-1;-7.892786264E-1;2.956384122E-1
1.308586425E1;1.889609993E-1;-1.249260187E0;9.142617695E-3
1.310538025E1;-7.206173539E-1;-2.259020329E0;-6.232861429E-2
1.311639625E1;-1.049873710E0;-2.054380655E0;1.769473031E-2
1.313546125E1;7.796676755E-1;6.242635250E-1;-4.117435515E-1
1.314549325E1;8.993973136E-1;1.205196381E0;-4.771061242E-1
1.315762525E1;9.397143722E-1;1.527122378E0;-5.455230474E-1
1.317537725E1;7.912741303E-1;1.130059958E0;-6.188268661E-1
1.318761225E1;1.196277738E0;1.588208914E0;-5.540751815E-1
1.320542025E1;2.155946970E0;3.359107256E0;-8.533990979E-1
1.321845325E1;2.294002533E0;4.329161644E0;-1.063536763E0
1.323549125E1;2.516968250E0;4.908872604E0;-8.399600983E-1
1.325533225E1;2.306830645E0;4.314500809E0;-2.040493488E-1
1.326593825E1;2.415564775E0;3.514266968E0;-8.554149419E-2
1.328532725E1;2.501696587E0;2.313916922E0;1.362025887E-1
1.329538625E1;2.237802982E0;2.081788063E0;1.948456466E-1
1.331539925E1;1.444899917E0;2.045747042E0;-6.560896635E-1
1.333539925E1;9.079493880E-1;1.539339662E0;-2.425338477E-1
1.335542625E1;1.334944248E0;1.235739708E0;-7.821111381E-2
1.336548125E1;1.563407779E0;1.309043527E0;-8.370889723E-2
1.338535325E1;1.944587708E0;1.577824235E0;-1.289129257E-1
1.339540225E1;2.119905949E0;1.550946116E0;-1.240260005E-1
1.340776525E1;2.268957138E0;1.276667595E0;-8.920668811E-2
1.341791325E1;2.327600002E0;8.618901372E-1;-5.438736826E-2
1.343090025E1;2.118073225E0;2.516357601E-1;-1.313563883E-1
1.344594325E1;2.036217451E0;8.364781737E-2;-1.680082977E-1
1.346532025E1;1.940311670E0;4.855971336E-1;-1.551801264E-1
1.347750425E1;1.779654145E0;1.057977915E0;-7.760024816E-2
1.349539925E1;1.357546210E0;1.304156542E0;1.313156635E-1
1.351539725E1;7.301875949E-1;6.242635250E-1;2.198911309E-1
1.353540125E1;7.167486846E-2;9.571850896E-1;3.634444475E-1
1.354735325E1;2.891429141E-2;8.741074204E-1;3.359555006E-1
1.356545725E1;-2.606357820E-2;8.765509129E-1;1.392569095E-1
1.357551625E1;-9.875653684E-2;7.849211097E-1;1.386460513E-1
1.359535325E1;-5.275839567E-1;3.909130394E-1;-6.739878096E-3
1.360542725E1;-9.185376763E-1;4.843754172E-1;-7.698938251E-2
1.361548025E1;-1.322930455E0;6.083810329E-1;-1.191390902E-1
1.363544325E1;-2.131716251E0;-3.659490049E-1;-3.323310614E-1
1.365531625E1;-2.939890862E0;-1.212608218E0;-8.393492103E-1
1.366644825E1;-3.286251545E0;-1.417248130E0;-7.880365252E-1
1.368558325E1;-3.558086634E0;-9.994162917E-1;-1.698409021E-1
1.370535125E1;-3.277088404E0;2.656856477E-1;5.477426574E-3
1.371537125E1;-3.225164890E0;6.584720016E-1;-7.210245728E-2
1.372544325E1;-3.186680555E0;5.778377652E-1;-1.728952229E-1
1.373618125E1;-3.098104954E0;2.742377520E-1;-1.319672465E-1
1.375044925E1;-3.015027285E0;-1.283224225E-1;1.525127050E-2
1.376539425E1;-2.748690128E0;-1.938927054E0;3.646661639E-1
1.377599125E1;-2.412714243E0;-3.542448282E0;4.758436382E-1
1.379538325E1;-2.311310530E0;-5.216829777E0;5.882428288E-1
1.380556925E1;-2.295428038E0;-5.645657063E0;5.051652193E-1
1.382545025E1;-2.634458303E0;-5.309681416E0;3.298468590E-1
1.383590525E1;-2.974710226E0;-4.235780239E0;2.809776366E-1
1.384644125E1;-3.122539520E0;-3.163711786E0;1.783522964E-1
1.386543225E1;-2.934393167E0;-2.136847258E0;-3.685551696E-3
1.388541125E1;-2.206852674E0;-2.799025297E0;1.417003721E-1
1.389544625E1;-1.701666951E0;-3.071471214E0;2.113390118E-1
1.391544825E1;-1.109738499E-1;-2.285287619E0;8.550077677E-2
1.393551925E1;6.599380970E-1;-1.768495560E0;-2.773531973E-1
1.395555125E1;9.934705496E-1;-1.141137004E0;-6.395962834E-1
1.396598025E1;1.091208935E0;-7.532376051E-1;-8.130820394E-1
1.398549025E1;1.418632746E0;-6.479243934E-2;-1.072699666E0
1.400537225E1;1.972076774E0;4.330627322E-1;-1.423947215E0
1.401573125E1;2.326989174E0;6.884043813E-1;-1.600487232E0
1.403548625E1;2.669073820E0;9.101485014E-1;-1.644469500E0
1.405540325E1;1.816916943E0;4.333070666E-2;-6.664743423E-1
1.406608125E1;1.222545028E0;-6.463361382E-1;-3.117448837E-2
1.408545825E1;2.842559516E-1;6.959791481E-2;9.706444740E-1
1.410536225E1;-1.396234274E0;4.263432026E-1;7.867740393E-1
1.411557225E1;-2.459140062E0;3.341025710E-1;3.225164711E-1
1.413540625E1;-1.352862835E0;-3.292970955E-1;5.992384553E-1
1.415561525E1;-2.465859205E-1;-1.362636834E-1;4.471329749E-1
1.417536525E1;-2.930116951E-1;-1.582792640E0;9.437664151E-1
1.418544525E1;-8.385143280E-1;-3.572991610E0;1.152682424E0
1.419558025E1;-7.523823380E-1;-3.568104744E0;1.070826411E0
1.421554225E1;5.823582411E-1;1.458705425E0;-8.417927027E-1
1.423537025E1;1.912822723E0;4.381695747E0;-1.834448695E0
1.424625625E1;2.181603432E0;3.489221573E0;-1.689062715E0
1.426534725E1;1.115032673E0;4.177910984E-1;-6.554787755E-1
1.428574725E1;1.843184114E0;3.011524916E0;-4.954320788E-1
1.430539625E1;1.857844830E0;4.215540409E0;-7.202305198E-1
1.431549325E1;1.709404588E0;3.255260229E0;-5.094819665E-1
1.433589425E1;1.601892352E0;2.304753780E0;-3.353853822E-1
1.435548625E1;2.012393713E0;2.387220621E0;-2.779640555E-1
1.437574425E1;2.133344889E0;2.571702003E0;-9.254812002E-1
1.438602025E1;1.669087529E0;1.962058425E0;-1.054373741E0
1.440548125E1;1.216436386E0;1.949230313E0;-6.041660905E-1
1.441586125E1;1.137634754E0;2.318192959E0;-4.447302818E-1
1.443542125E1;1.154738903E0;2.688377142E0;-3.005660772E-1
1.444550825E1;1.223155856E0;2.525887012E0;-2.009950280E-1
1.445551825E1;1.298903108E0;2.153259277E0;-8.187630028E-2
1.447543025E1;1.542027473E0;1.097073197E0;7.755952328E-2
1.448552225E1;1.695965528E0;8.154643774E-1;3.785328567E-2
1.450538025E1;2.112575531E0;7.562104464E-1;-9.531533718E-2
1.451542125E1;2.090584278E0;6.853500605E-1;-9.959139675E-2
1.452552525E1;2.029497862E0;6.096028090E-1;-8.493062854E-2
1.454534925E1;2.050878048E0;5.839464664E-1;-6.538294256E-2
1.455556925E1;2.052099943E0;6.480873227E-1;-5.560909957E-2
1.457532825E1;1.712458968E0;6.945130825E-1;4.823799431E-2
1.458547225E1;1.364265680E0;8.997637630E-1;1.594154686E-1
1.460541825E1;6.715445518E-1;9.871175289E-1;3.194621503E-1
1.462529925E1;1.663589776E-1;5.387424231E-1;2.534887195E-1
1.463543225E1;-2.362011746E-2;4.654385746E-1;2.705929279E-1
1.465559525E1;-2.643010318E-1;7.238345742E-1;2.516561151E-1
1.466623025E1;-3.027855456E-1;9.419134855E-1;1.991217136E-1
1.468548025E1;-4.493932128E-1;6.969565153E-1;1.398677826E-1
1.470544325E1;-1.628973961E0;4.715472460E-1;-1.496823430E-1
1.471549925E1;-1.985108376E0;-1.118290648E-1;-3.555439413E-1
1.473552725E1;-2.914845467E0;-1.178399801E0;-8.185797930E-1
1.475618325E1;-3.566638708E0;-1.477112889E0;-8.088059425E-1
1.477548325E1;-3.730961323E0;-1.393424392E0;3.296636045E-2
1.478706025E1;-3.537317038E0;-8.668585420E-1;2.486017942E-1
1.480602125E1;-3.192178249E0;-2.046805918E-1;2.418822795E-1
1.482542625E1;-3.041294575E0;-5.626476407E-1;1.649132520E-1
1.483544425E1;-2.851315498E0;-8.705236912E-1;1.050484627E-1
1.485531425E1;-2.358958006E0;-2.093475819E0;2.602082193E-1
1.486584025E1;-1.956397772E0;-3.465479374E0;2.516561151E-1
1.488532225E1;-1.811622620E0;-5.222938538E0;6.273382306E-1
1.489536225E1;-1.985719323E0;-5.390926361E0;8.997841477E-1
1.490542325E1;-2.379727364E0;-5.265088081E0;8.338106871E-1
1.491549325E1;-2.475022554E0;-5.356718063E0;5.662516952E-1
1.493599825E1;-2.956995010E0;-4.036638260E0;-9.714793414E-2
1.495548125E1;-2.963103771E0;-2.566896439E0;-4.276260436E-1
1.497549225E1;-2.342464685E0;-2.479542732E0;-3.500461578E-1
1.499529425E1;-1.128064513E0;-2.594385386E0;-9.653706849E-2
1.500556125E1;-4.903211892E-1;-2.248024940E0;-1.130304337E-1
1.501936325E1;8.511389792E-2;-2.133182049E0;-2.345926166E-1
1.503532625E1;8.706866503E-1;-1.981076717E0;-5.785097480E-1
1.504539125E1;1.092430711E0;-1.758110881E0;-7.159544230E-1
1.506537525E1;1.369763494E0;-1.197336555E0;-8.961597085E-1
1.508540425E1;1.755830407E0;-3.891618848E-1;-9.706852436E-1
1.510555625E1;2.527353048E0;6.004397869E-1;-1.303606749E0
1.511575325E1;2.724662542E0;7.262780666E-1;-1.487477183E0
1.513536325E1;2.353867292E0;4.593299329E-1;-9.138748050E-1
1.515603125E1;1.037452817E0;-6.890967488E-1;3.151860833E-1
1.517578125E1;-8.470664173E-2;2.895093858E-1;6.572706103E-1
1.519534425E1;-1.909361124E0;1.127005696E0;3.506162763E-1
1.520539225E1;-2.460972548E0;7.348301411E-1;3.170186877E-1
1.521552725E1;-2.497013569E0;2.308663279E-1;3.579466641E-1
1.522559825E1;-2.008321285E0;-5.015611053E-1;4.068158865E-1
1.523567825E1;-1.132951379E0;-1.070276618E0;4.642372131E-1
1.525546125E1;3.600032330E-1;-5.852496624E-1;-2.140064538E-2
1.527543625E1;7.839438319E-2;-7.269703746E-1;-1.197499484E-1
1.529540125E1;-1.136005759E0;-1.947479129E0;2.074905671E-2
1.530542525E1;-7.187847048E-2;-9.105964750E-2;-4.624453783E-1
1.532533225E1;2.183435917E0;2.324301481E0;-1.318267465E0
1.533850725E1;2.671517134E0;2.454415798E0;-1.466707826E0
1.535603725E1;1.606168389E0;8.991529346E-1;-5.424687266E-1
1.537532525E1;5.890777707E-1;7.446039915E-1;4.654589295E-1
1.538579825E1;1.078991652E0;2.163033009E0;8.855509758E-2
1.540534925E1;1.895107627E0;3.627887964E0;-9.199834466E-1
1.541580925E1;1.979406953E0;3.632164001E0;-9.358659387E-1
1.543634925E1;1.782708406E0;2.925392866E0;-6.731938720E-1
1.545536025E1;2.075923681E0;2.263215065E0;-5.131471753E-1
1.546538125E1;2.277509212E0;1.866152644E0;-5.846183896E-1
1.548535325E1;1.758273840E0;1.609589219E0;-7.379456162E-1
1.550552725E1;1.323948622E0;2.288871288E0;-2.596381009E-1
1.552537925E1;1.618996501E0;2.079955339E0;7.939212024E-2
1.553557425E1;1.755830407E0;1.725042701E0;1.197092310E-1
1.555577325E1;1.767436743E0;9.944479465E-1;7.511606067E-2
1.557556525E1;1.851125360E0;8.545597196E-1;5.617924407E-2
1.559540825E1;2.165720940E0;8.637227416E-1;-8.572475053E-3
1.560560925E1;2.187711954E0;7.898080349E-1;-4.094833136E-2
1.562537825E1;2.053932428E0;4.361170530E-1;-6.660467386E-2
1.563560325E1;1.975130916E0;1.618385613E-1;-5.683083087E-2
1.565544025E1;1.640376806E0;-6.906849891E-2;1.708386652E-2
1.566547025E1;1.485217094E0;7.876089215E-2;6.167703122E-2
1.568558525E1;1.040507197E0;9.296962023E-1;1.539176852E-1
1.570534225E1;3.942117095E-1;6.908478737E-1;1.704110503E-1
1.571640025E1;1.975131035E-1;3.780848682E-1;2.003434449E-1
1.573560625E1;-8.409577608E-2;8.914560080E-2;2.540995777E-1
1.575533425E1;-4.182390869E-1;7.006217241E-1;2.437148690E-1
1.576539525E1;-4.890994430E-1;7.836993933E-1;2.308866978E-1
1.578576525E1;-9.637417197E-1;5.356881022E-1;7.084000856E-2
1.580727625E1;-1.665014982E0;1.697798073E-1;-2.681902051E-1
1.582621825E1;-2.498235226E0;-9.462710023E-1;-5.876727700E-1
1.584533425E1;-3.245323420E0;-1.332948685E0;-9.578570724E-1
1.585582325E1;-3.502497673E0;-1.422745943E0;-8.033081889E-1
1.586600125E1;-3.678426981E0;-1.184508443E0;-4.777169824E-1
1.588563625E1;-3.256319046E0;4.055737853E-1;3.188512921E-1
1.590533925E1;-3.057787895E0;-2.569706552E-2;3.677205145E-1
1.591544925E1;-2.947832108E0;-4.190942943E-1;3.487836719E-1
1.593544925E1;-2.738916159E0;-9.285559058E-1;3.707748353E-1
1.595552725E1;-2.382170916E0;-2.451442957E0;4.110919237E-1
1.597568125E1;-1.976556301E0;-4.712865829E0;2.748689950E-1
1.599585925E1;-2.259997845E0;-5.142914772E0;3.011361957E-1
1.601543225E1;-2.604525805E0;-5.305405140E0;-9.470447153E-2
1.603535825E1;-3.068783522E0;-3.808174610E0;-4.196847975E-1
1.604547925E1;-3.080389977E0;-3.039706230E0;-5.724011064E-1
1.606628925E1;-2.137213945E0;-3.203418016E0;-4.642779529E-1
1.608533025E1;-9.869545698E-1;-2.871718168E0;-1.276911944E-1
1.610542425E1;8.450302482E-2;-2.143566847E0;-1.337998509E-1
1.611548525E1;4.681263864E-1;-2.028724194E0;-2.455881983E-1
1.613551525E1;8.041023016E-1;-1.576073050E0;-6.322659254E-1
1.615594725E1;9.409361482E-1;-9.487144351E-1;-8.075842261E-1
1.616710125E1;1.135191321E0;-5.742540359E-1;-8.668381572E-1
1.618542225E1;1.728952289E0;2.247576863E-1;-1.164329529E0
1.620564125E1;2.350202084E0;9.773436785E-1;-1.340869546E0
1.622533425E1;2.634254456E0;1.218024611E0;-1.351254225E0
1.623533925E1;2.341650009E0;9.070941806E-1;-9.615222812E-1
1.625536525E1;1.059443951E0;-8.729671836E-1;2.644842863E-1
1.626587525E1;-1.506800391E-2;-9.289223701E-2;6.426098347E-1
1.628537425E1;-1.743205786E0;8.130208850E-1;2.510452569E-1
1.629551625E1;-2.394999027E0;8.050796390E-1;1.245961487E-1
1.631550825E1;-2.288097620E0;3.878586888E-1;1.869044006E-1
1.632556525E1;-1.581937313E0;-1.106073335E-1;2.376062274E-1
1.634602725E1;4.174245894E-1;-1.210164785E0;-6.232861429E-2
1.636534725E1;1.007520437E0;-1.578516483E0;-6.224920750E-1
1.637550725E1;2.897537351E-1;-2.069652081E0;-7.904800177E-1
1.639539625E1;-9.985610247E-1;-1.174734592E0;-7.251174450E-1
1.640547325E1;-2.618575692E-1;-1.099964678E-1;-4.758844078E-1
1.642533225E1;8.676322699E-1;8.111883402E-1;-3.799785674E-1
1.643587425E1;1.261029482E0;1.269337296E0;-5.345274806E-1
1.645536525E1;1.673363566E0;1.363410473E0;-5.876727700E-1
1.646561125E1;1.116865277E0;5.882225037E-1;-3.775351048E-1
1.647570725E1;9.091711044E-1;1.372573495E0;-2.840727270E-1
1.649542025E1;1.865175247E0;3.128200293E0;-1.072088838E0
1.650549825E1;2.230472565E0;3.458067417E0;-1.408675551E0
1.652530425E1;2.220698595E0;3.218608141E0;-1.218696475E0
1.653535325E1;2.109521151E0;2.789170027E0;-1.001228452E0
1.654538325E1;2.067371607E0;2.266880274E0;-7.593258619E-1
1.655542025E1;1.957415938E0;2.019479752E0;-4.282369018E-1
1.656556225E1;1.832799435E0;1.847826600E0;-9.836966544E-2
1.658542125E1;1.105258822E0;1.909524083E0;4.428569376E-1
1.659565025E1;8.285369277E-1;2.143485308E0;4.031506777E-1
1.661544825E1;9.287188053E-1;2.429370403E0;1.410895139E-1
1.662584525E1;1.244536161E0;2.488624334E0;2.119498849E-1
1.663606025E1;1.632435560E0;2.569869280E0;2.424931377E-1
1.665531025E1;2.159001350E0;2.386609793E0;2.107281536E-1
1.666543425E1;2.234137774E0;1.874093890E0;1.410895139E-1
1.668575025E1;2.072258472E0;1.002389193E0;-1.032565832E-1
1.670536925E1;1.794925690E0;6.151005626E-1;-1.582344621E-1
1.671543425E1;1.845627546E0;4.794884920E-1;-1.063109115E-1
1.672553025E1;1.918931365E0;4.678820372E-1;-5.866342038E-2
1.674538225E1;1.738726139E0;7.482692003E-1;2.624684572E-2
1.675542225E1;1.609833598E0;9.712350368E-1;8.611164242E-2
1.676556025E1;1.468723655E0;1.183205247E0;1.276504695E-1
1.678648025E1;9.549860358E-1;8.692204952E-1;1.710219085E-1
1.680536825E1;4.601851404E-1;1.483995169E-1;6.717481464E-2
1.681542925E1;2.805907726E-1;1.706350222E-2;6.534221768E-2
1.682576625E1;1.003855318E-1;-6.540330499E-2;1.105462462E-1
1.683641625E1;-1.036434621E-1;4.271984100E-2;8.672250807E-2
1.685542125E1;-2.905682325E-1;7.989709973E-1;3.785328567E-2
1.687530025E1;-2.520837188E-1;7.849211097E-1;-1.796147376E-1
1.688642525E1;-4.897103012E-1;6.871826649E-1;-2.144340575E-1
1.690530525E1;-1.356528044E0;3.591480255E-1;-1.221934110E-1
1.691566425E1;-1.647299886E0;-1.142725274E-1;-2.321491539E-1
1.693544125E1;-2.446311712E0;-1.268807888E0;-4.569475651E-1
1.695535025E1;-3.247156143E0;-1.419080734E0;-4.545041323E-1
1.696676125E1;-3.487837076E0;-8.308174610E-1;-3.518787622E-1
1.698556625E1;-3.416365862E0;8.777726293E-1;-9.531533718E-2
1.700535125E1;-3.046181440E0;1.269948125E0;-1.618996561E-1
1.701602425E1;-3.030909777E0;8.912116885E-1;-1.276911944E-1
1.703548725E1;-3.051679134E0;-3.705916461E-3;1.337591261E-1
1.705554125E1;-2.658282042E0;-7.465180755E-1;7.000312209E-1
1.707550625E1;-2.259997845E0;-4.434311390E0;5.992384553E-1
1.708551925E1;-2.394999027E0;-4.600466728E0;7.049181461E-1
1.710555225E1;-2.647286415E0;-4.298088551E0;6.914790869E-1
1.712547625E1;-2.630793095E0;-4.284649372E0;2.675386071E-1
1.713555025E1;-2.680884123E0;-3.900415421E0;1.221526861E-1
1.715565925E1;-2.702875137E0;-2.376917362E0;-4.766784981E-2
1.716640925E1;-2.525724173E0;-2.097141027E0;-1.026457250E-1
1.718545225E1;-1.776192546E0;-2.557733536E0;-6.355034560E-2
1.719579825E1;-1.260622263E0;-2.731219292E0;-3.728314117E-2
1.721568825E1;-2.325360328E-1;-2.411736727E0;-1.906103194E-1
1.723607525E1;5.591453314E-1;-1.722069860E0;-4.355672896E-1
1.725306125E1;1.026457310E0;-9.896424413E-1;-7.403890491E-1
1.727051825E1;1.275079370E0;-2.645453811E-1;-9.083769917E-1
1.728629225E1;1.806532145E0;3.921347558E-1;-1.147836089E0
1.730539025E1;2.655023813E0;1.172820568E0;-1.566889644E0
1.731552925E1;2.965954304E0;1.367075682E0;-1.706777811E0
1.732879525E1;2.983058453E0;1.393342853E0;-1.674401999E0
1.734536125E1;1.730174065E0;5.216382146E-1;-6.035552621E-1
1.735637125E1;9.678142071E-1;-5.339369774E-1;1.166549027E-1
1.737537425E1;-2.765183449E-1;1.483995169E-1;6.200078726E-1
1.738559025E1;-1.202589989E0;8.154643774E-1;5.149390101E-1
1.740180625E1;-2.175087690E0;9.993348122E-1;4.727893174E-1
1.741568325E1;-2.895908594E0;6.370916963E-1;5.748038292E-1
1.743600425E1;-1.319876194E0;-6.616078019E-1;2.748689950E-1
1.745540025E1;9.751446247E-1;-1.107539415E0;-3.164485693E-1
1.746653625E1;4.333070815E-1;-1.882116556E0;-4.477846026E-1
1.748855725E1;-1.242907166E0;-1.904718518E0;-5.265862346E-1
1.750558525E1;3.062471151E-1;4.006868601E-1;-3.604308665E-1
1.752551925E1;1.289129257E0;1.204585552E0;-4.642779529E-1
1.754537025E1;1.639155149E0;1.547891855E0;-6.035552621E-1
1.756537625E1;8.810713291E-1;6.743544936E-1;-5.369709134E-1
1.757561925E1;1.276301146E0;1.714047194E0;-4.160196185E-1
1.759528325E1;2.282396078E0;3.445850134E0;-1.028106570E0
1.760544725E1;2.461990356E0;3.726237297E0;-1.132564425E0
1.761604325E1;2.411899567E0;3.758613110E0;-1.030550003E0
1.763594925E1;1.764382482E0;2.903401852E0;-4.826039076E-1
1.765554425E1;1.579901218E0;2.612629890E0;-5.866342038E-2
1.766934425E1;1.297681451E0;2.722585678E0;7.694865763E-2
1.768546825E1;6.361143589E-1;2.202739239E0;2.327193022E-1
1.770557425E1;6.935356855E-1;2.239391327E0;1.484199017E-1
1.771566525E1;9.507099390E-1;2.447696209E0;6.900741160E-2
1.773545025E1;1.451619506E0;2.668829441E0;-1.863342673E-1
1.775547425E1;1.585398912E0;2.390275002E0;-2.016058862E-1
1.776602825E1;1.581733823E0;2.040249109E0;-1.468112785E-2
1.778558825E1;1.540805817E0;1.239404798E0;2.296649665E-1
1.780550025E1;1.623272657E0;7.763689756E-1;1.154331714E-1
1.782547225E1;1.917709708E0;3.768631220E-1;3.235549852E-2
1.783557425E1;1.966578841E0;2.882876694E-1;-3.300708160E-2
1.785534225E1;1.902438045E0;1.070195198E0;3.663155437E-2
1.786534325E1;1.644652843E0;1.244291782E0;1.447547078E-1
1.788609625E1;8.071566224E-1;4.495560825E-1;3.719965518E-1
1.790530025E1;2.879211605E-1;1.367930770E-1;3.591683805E-1
1.791551825E1;1.706350297E-1;5.497379899E-1;3.469510972E-1
1.793534025E1;-8.409577608E-2;1.222911477E0;2.993035913E-1
1.794575425E1;-2.032144964E-1;1.070195198E0;2.070629597E-1
1.796539325E1;-2.722422779E-1;4.733798206E-1;8.061385155E-2
1.797556225E1;-3.137811124E-1;4.581082165E-1;-2.567670122E-2
1.799532225E1;-7.829256058E-1;7.751472592E-1;-1.136412919E-1
1.800542725E1;-1.190983534E0;7.592647672E-1;-6.355034560E-2
1.801561825E1;-1.575217843E0;3.096679449E-1;-1.101593580E-2
1.803556825E1;-2.321084499E0;-8.210436106E-1;-4.007479846E-1
1.805579225E1;-3.492723942E0;-1.315233588E0;-2.529186010E-1
1.807547925E1;-3.377881289E0;-3.018081486E-1;1.728544980E-1
1.808556425E1;-3.232495308E0;1.667254865E-1;1.960673779E-1
1.810596025E1;-3.206839085E0;5.796703696E-1;6.778568029E-2
1.812540125E1;-3.088331223E0;6.138788462E-1;-7.961609401E-3
1.814560525E1;-2.937447548E0;-3.119485267E-2;9.832894802E-2
1.816538425E1;-2.616743088E0;-1.994515777E0;2.156150788E-1
1.817540925E1;-2.015651703E0;-3.932791233E0;1.227635518E-1
1.818560825E1;-1.627141356E0;-5.500882149E0;5.801183730E-2
1.819578025E1;-1.570330858E0;-6.414736271E0;5.495751277E-2
1.821543825E1;-2.274047852E0;-5.607783318E0;1.972891092E-1
1.823550125E1;-2.870252371E0;-2.338432789E0;7.145087421E-2
1.825533825E1;-2.566652298E0;-1.757500052E0;-8.126543462E-2
1.826539125E1;-2.239228487E0;-2.038498163E0;-5.194390565E-2
1.827580325E1;-1.764586091E0;-2.488094807E0;-5.499823391E-2
1.828636625E1;-1.169603348E0;-2.761762619E0;-1.392976344E-1
1.830557325E1;-9.325875342E-2;-2.364700079E0;-3.237789571E-1
1.831616425E1;2.775364518E-1;-2.052547932E0;-4.441193938E-1
1.833545625E1;6.532185674E-1;-1.428854585E0;-5.888944864E-1
1.834551425E1;6.996443272E-1;-1.056837559E0;-5.888944864E-1
1.836533025E1;9.702576399E-1;-5.382130146E-1;-6.322659254E-1
1.837541225E1;1.272635937E0;-2.590475976E-1;-7.623801827E-1
1.838550225E1;1.602503181E0;8.425868303E-2;-9.706852436E-1
1.839604125E1;1.943976879E0;4.721581042E-1;-1.213809609E0
1.841537225E1;2.573778868E0;1.203363776E0;-1.453879595E0
1.842547725E1;2.699617147E0;1.462370634E0;-1.362860680E0
1.844530825E1;1.691689491E0;2.088751793E-1;-9.348274022E-2
1.845549125E1;1.157182455E0;-6.842098236E-1;4.532416463E-1
1.847545825E1;8.450302482E-2;-4.539135993E-1;6.395555139E-1
1.849562325E1;-1.676010609E0;2.400293052E-1;2.070629597E-1
1.851578325E1;-2.518393993E0;5.210273266E-1;1.447547078E-1
1.853578525E1;-1.163494587E0;-4.526918828E-1;2.143933475E-1
1.855545325E1;6.129015088E-1;-6.212906837E-1;-2.078977972E-2
1.856575725E1;9.183341265E-1;-2.150653005E-1;-2.272622287E-1
1.858558625E1;-8.287404478E-2;-1.298740268E0;-1.930537820E-1
1.860538825E1;-7.749843597E-1;-2.078204393E0;-7.961609401E-3
1.861580125E1;-3.889175355E-1;-1.031181216E0;-1.631213874E-1
1.863541725E1;1.576846838E0;1.883867741E0;-1.269398332E0
1.864542525E1;1.892664194E0;2.226562977E0;-1.423336387E0
1.865555825E1;1.755219460E0;2.083620548E0;-1.327430487E0
1.866562225E1;1.261029482E0;1.601647973E0;-9.230377674E-1
1.867577825E1;1.211549401E0;1.689001679E0;-4.545041323E-1
1.869534825E1;1.703295946E0;2.645005703E0;-4.276260436E-1
1.870552025E1;1.828523278E0;2.898514748E0;-4.703866243E-1
1.871621025E1;1.840740681E0;2.951660156E0;-4.147978723E-1
1.874079925E1;1.670920134E0;2.562538862E0;-2.926248312E-1
1.875427175E1;1.542638421E0;2.365229607E0;-3.463809788E-1
1.876545125E1;1.542638421E0;2.365229607E0;-3.463809788E-1
1.878546025E1;1.264083862E0;2.288260460E0;-4.306803644E-1
1.880562825E1;8.157087564E-1;2.766567945E0;-2.254296392E-1
1.882550825E1;1.340441942E0;2.663942575E0;8.611164242E-2
1.884534125E1;1.832799435E0;2.070181608E0;-1.712458581E-2
1.886539625E1;1.895107627E0;1.469701052E0;-2.689843252E-2
1.887622325E1;1.854790568E0;1.244291782E0;5.477426574E-3
1.888635325E1;1.788206220E0;1.159381509E0;-5.518148653E-3
1.890545225E1;1.722232819E0;1.002389193E0;-3.667227551E-2
1.892540925E1;1.818749428E0;5.863898993E-1;-3.422881290E-2
1.893555525E1;1.881668568E0;4.629951119E-1;-4.278092831E-2
1.895611725E1;1.816916943E0;4.293975234E-1;-2.750929445E-2
1.897530325E1;1.478497505E0;2.009339333E-1;1.769473031E-2
1.898591825E1;1.196277738E0;9.158906341E-2;4.762712866E-2
1.900537325E1;5.347107649E-1;1.380148083E-1;1.752979606E-1
1.902555125E1;7.778351009E-2;7.348301411E-1;2.492126673E-1
1.904549725E1;-1.934406459E-1;9.803979993E-1;2.241671830E-1
1.905590725E1;-3.406592011E-1;9.125919342E-1;1.887370050E-1
1.907546825E1;-6.088290215E-1;4.526104033E-1;5.477426574E-3
1.909537625E1;-9.692394733E-1;5.921320617E-2;-2.437555939E-1
1.910568225E1;-1.348586798E0;5.921320617E-2;-2.083254158E-1
1.911686625E1;-1.790242434E0;-3.791437298E-2;-1.857233942E-1
1.913594525E1;-2.506176472E0;-1.973502040E-1;-3.628743291E-1
1.915544025E1;-3.195843458E0;-8.845735788E-1;-2.132123262E-1
1.917534025E1;-3.642385960E0;-9.163386226E-1;3.316794634E-1
1.918541725E1;-3.469511032E0;-1.918524206E-1;3.933768570E-1
1.919590025E1;-3.163467646E0;4.923166633E-1;3.524488807E-1
1.921581325E1;-2.908736706E0;-9.814568795E-3;6.961827725E-2
1.923555025E1;-2.639345169E0;-7.526267171E-1;5.740097165E-2
1.925534225E1;-2.081625223E0;-2.866831303E0;5.631973743E-1
1.927547225E1;-1.834224701E0;-4.679879189E0;8.545801044E-1
1.928569125E1;-2.140879154E0;-4.464854717E0;1.060441732E0
1.930535125E1;-2.373008013E0;-4.031140327E0;8.503040671E-1
1.931535625E1;-2.443257570E0;-3.821002722E0;6.670444608E-1
1.933543425E1;-2.611245394E0;-2.941356897E0;3.377881050E-1
1.934559425E1;-2.580091238E0;-2.573616028E0;1.930130571E-1
1.936896625E1;-1.828726888E0;-2.522303343E0;-2.445496991E-2
1.938580525E1;-1.331482530E0;-2.469157934E0;-3.667227551E-2
1.940539025E1;-3.687590063E-1;-1.982298493E0;-1.899994463E-1
1.942546925E1;3.826052547E-1;-1.129530549E0;-4.202956557E-1
1.944529925E1;6.862053275E-1;-7.489615083E-1;-4.251825809E-1
1.945552025E1;8.902342916E-1;-5.308826566E-1;-5.125362873E-1
1.946578725E1;1.141299963E0;-3.109711409E-1;-6.567004919E-1
1.948543225E1;1.755219460E0;2.241468132E-1;-1.032382607E0
1.949680425E1;2.112575531E0;5.705074072E-1;-1.209533453E0
1.951533825E1;2.625091553E0;8.508945704E-1;-1.407453895E0
1.953541925E1;2.205427170E0;1.007520407E-1;-7.538281083E-1
1.954551825E1;1.581733823E0;-8.766323328E-1;-1.405193657E-1
1.956545025E1;4.937827289E-1;-9.707056284E-1;5.552561283E-1
1.958537125E1;-1.216029048E0;3.878586888E-1;3.915442526E-1
1.960539225E1;-2.446311712E0;5.698965192E-1;2.589865029E-1
1.961545825E1;-1.807346582E0;-1.503135860E-1;4.000963569E-1
1.963558025E1;-2.618575692E-1;-5.296608806E-1;3.139643669E-1
1.965643225E1;2.341650277E-1;-7.489615083E-1;2.852537036E-1
1.966687325E1;-4.426736832E-1;-1.991461396E0;4.996674061E-1
1.968561925E1;-4.683300257E-1;-3.036651850E0;1.838500798E-1
1.969562225E1;9.305514395E-2;-1.308514118E0;-4.172413349E-1
1.971632425E1;1.445510864E0;1.659069300E0;-1.335371733E0
1.972674325E1;1.688024282E0;1.842939734E0;-1.335371733E0
1.974657225E1;1.250644803E0;9.553524852E-1;-7.196196318E-1
1.976589425E1;1.529810190E0;1.664567113E0;-4.722191989E-1
1.977618725E1;1.706961155E0;2.404324770E0;-7.257282734E-1
1.978943325E1;1.639155149E0;3.886283875E0;-9.016574621E-1
1.980541125E1;1.912211895E0;3.511212587E0;-6.469266415E-1
1.981541625E1;1.882890344E0;3.068946362E0;-4.050240219E-1
1.983533425E1;1.667254925E0;2.706092358E0;-3.274441361E-1
1.984543625E1;1.819360375E0;2.677381754E0;-5.296405554E-1
1.985545225E1;1.981850505E0;2.599190950E0;-8.356840014E-1
1.986589125E1;1.895107627E0;2.368894577E0;-1.017721772E0
1.988578725E1;1.434515238E0;2.051244736E0;-6.670852304E-1
1.990540225E1;1.303790092E0;2.259549856E0;-1.081435084E-1
1.991758725E1;1.336165905E0;2.197241545E0;3.296636045E-2
1.993533425E1;1.472388864E0;1.904026270E0;9.099856019E-2
1.994543925E1;1.532253623E0;1.676173449E0;4.518366605E-2
1.996559225E1;1.669698358E0;1.048204064E0;-1.197499484E-1
1.998582925E1;1.983072162E0;5.723400116E-1;-1.533475369E-1
2.000543825E1;2.089973450E0;3.347134292E-1;-3.598200083E-1
2.001553825E1;2.025221825E0;4.904840589E-1;-3.048421443E-1
2.003541125E1;1.967800498E0;7.800341845E-1;-2.113797367E-1
2.005612825E1;1.889609814E0;8.704422712E-1;-1.961081028E-1
2.007534425E1;1.435737014E0;8.417315483E-1;-6.171774864E-2
2.008573925E1;1.026457310E0;8.020253181E-1;-6.312262267E-4
2.010542225E1;4.534656405E-1;4.831536710E-1;1.032158658E-1
2.012539425E1;1.608612388E-2;6.377025843E-1;1.954565197E-1
2.013552525E1;-2.245947719E-1;9.938369989E-1;2.107281536E-1
2.014568225E1;-4.035783112E-1;1.284608841E0;2.278323770E-1
2.015698625E1;-4.994841516E-1;1.197865963E0;2.143933475E-1
2.017533725E1;-9.777916074E-1;4.697146416E-1;2.074905671E-2
2.018541925E1;-1.351030231E0;3.047810197E-1;-2.419229895E-1
2.020554025E1;-2.592919350E0;-7.727852464E-1;-7.941451669E-1
2.022530025E1;-3.132924318E0;-8.949583173E-1;-1.010391474E0
2.023595225E1;-3.274645090E0;-1.116091490E0;-7.666562796E-1
2.025570725E1;-3.477452278E0;-8.827410340E-1;1.221526861E-1
2.027548625E1;-3.354668379E0;2.626313269E-1;6.029036045E-1
2.029537725E1;-3.284418821E0;2.699617147E-1;6.383337975E-1
2.030543225E1;-3.305799246E0;-3.363831341E-2;5.668625832E-1
2.031618225E1;-3.241047382E0;-4.135965109E-1;4.770653844E-1
2.033540825E1;-2.823826551E0;-1.793541074E0;5.833559632E-1
2.035547425E1;-2.387668610E0;-3.565050364E0;6.261165142E-1
2.037534125E1;-2.346740723E0;-4.389107227E0;6.438316107E-1
2.038558825E1;-2.421266317E0;-4.448361397E0;6.407772899E-1
2.040535025E1;-2.642399549E0;-3.836274385E0;3.542814553E-1
2.041557225E1;-2.831767797E0;-2.843618393E0;3.359555006E-1
2.043570825E1;-2.829935074E0;-1.887614369E0;2.797559202E-1
2.044578525E1;-2.600249767E0;-2.039719820E0;2.699820697E-1
2.046548725E1;-1.753590465E0;-2.062932730E0;3.799377978E-1
2.048542525E1;-4.836016595E-1;-1.585236073E0;4.117028117E-1
2.049546725E1;1.339831203E-1;-1.538810253E0;2.302758396E-1
2.050548925E1;6.245079041E-1;-1.519873500E0;-6.312262267E-4
2.051551025E1;9.598729610E-1;-1.467949867E0;-2.162666619E-1
2.052559725E1;1.157182455E0;-1.297518492E0;-3.836437464E-1
2.053602125E1;1.296459675E0;-1.055004954E0;-5.296405554E-1
2.055555225E1;1.588453293E0;-5.828061700E-1;-8.619512320E-1
2.056576325E1;1.789427996E0;-3.262427747E-1;-1.067201853E0
2.058543725E1;2.338595629E0;3.371568918E-1;-1.406842947E0
2.059548425E1;2.747875452E0;5.711182952E-1;-1.560781002E0
2.061557625E1;1.921374798E0;4.367279112E-1;-7.080131769E-1
2.063552525E1;4.699589908E-1;-6.072407961E-1;3.866573274E-1
2.065556925E1;-7.865908146E-1;8.252382278E-1;7.818871140E-1
2.066563525E1;-1.460986018E0;3.823609054E-1;5.809124708E-1
2.068546425E1;-2.393777370E0;-6.051638722E-2;1.704110503E-1
2.070605225E1;-1.354084611E0;-7.831699848E-1;4.239200950E-1
2.072545925E1;-1.439605653E-1;-3.793880343E-1;6.230621934E-1
2.074060925E1;6.006842479E-2;-1.808568388E-1;4.074267447E-1
2.075573025E1;-5.911139250E-1;-1.908383727E0;8.038783073E-1
2.077541525E1;-8.434012532E-1;-3.084910154E0;7.464569807E-1
2.078556725E1;-3.925827444E-1;-1.495438814E0;-8.540099859E-1
2.079597825E1;1.426573992E0;2.438533306E0;-1.587659121E0
2.080669225E1;1.986126542E0;3.105598211E0;-1.651799917E0
2.082537825E1;1.567683816E0;1.186870456E0;-6.542570591E-1
2.083543125E1;1.377093911E0;9.199223518E-1;-1.692300290E-1
2.085537925E1;1.700241566E0;2.732970476E0;-2.620815635E-1
2.087559625E1;1.744223952E0;3.877731800E0;-6.347093582E-1
2.089530825E1;1.640376806E0;3.733567715E0;-5.607946515E-1
2.090581925E1;1.730784893E0;3.447682619E0;-5.858401656E-1
2.092548725E1;2.253685474E0;2.763513565E0;-8.234667182E-1
2.094540525E1;2.820568323E0;2.747020245E0;-1.240076780E0
2.096573225E1;2.228639841E0;2.491067648E0;-1.191207528E0
2.098551225E1;1.027678967E0;2.237558603E0;-3.408831954E-1
2.100728225E1;9.580403566E-1;2.161811352E0;-7.961609401E-3
2.101998025E1;9.959139824E-1;1.976719260E0;6.900741160E-2
2.103541125E1;1.125417471E0;1.222300649E0;-1.773545146E-2
2.105546925E1;1.232318878E0;4.947600961E-1;-1.942755133E-1
2.107531325E1;1.673974395E0;5.534031987E-1;-1.588453203E-1
2.108534625E1;1.966578841E0;8.533380032E-1;-1.496823430E-1
2.109552825E1;2.127236366E0;1.164879322E0;-1.686191708E-1
2.111535325E1;2.075923681E0;1.371351719E0;-1.509040743E-1
2.112544525E1;2.052710772E0;1.178929210E0;-1.319672465E-1
2.114533425E1;2.064928055E0;8.661661744E-1;-1.399085075E-1
2.115534325E1;2.010560989E0;8.087448478E-1;-1.276911944E-1
2.116542925E1;1.879225135E0;7.867537141E-1;-8.309803158E-2
2.117599025E1;1.222545028E0;9.975022078E-1;1.123788431E-1
2.119541625E1;5.347107649E-1;1.120896935E0;2.211128622E-1
2.121541825E1;7.717265189E-2;4.709363878E-1;2.712037861E-1
2.122603725E1;-9.997826815E-2;4.012977481E-1;2.657060027E-1
2.124530625E1;-2.911790907E-1;8.307359815E-1;2.052303553E-1
2.125536625E1;-2.862921953E-1;8.954877257E-1;2.052303553E-1
2.126537225E1;-2.991203666E-1;7.665951252E-1;1.386460513E-1
2.128536025E1;-7.700974345E-1;5.094208717E-1;1.380351782E-1
2.130540425E1;-1.551394105E0;4.336735904E-1;-2.016058862E-1
2.131542825E1;-1.884926558E0;-2.730974853E-1;-3.885306716E-1
2.132713225E1;-2.296649694E0;-1.059281111E0;-5.271970630E-1
2.134539325E1;-3.145141602E0;-1.821030021E0;-6.157725453E-1
2.136541225E1;-3.572747231E0;-1.630440116E0;-2.750929445E-2
2.137541925E1;-3.330844641E0;-1.036679029E0;3.726074100E-1
2.138543925E1;-3.184237003E0;2.805907466E-2;3.347337842E-1
2.139571425E1;-3.074892044E0;1.202997342E-1;3.096882999E-1
2.140621625E1;-2.988760233E0;-1.262455247E-3;2.736472487E-1
2.142535425E1;-2.812830925E0;-3.103602827E-1;1.484199017E-1
2.143547325E1;-2.777400732E0;-5.076697469E-1;2.492126673E-1
2.145538125E1;-2.869030476E0;-1.463673830E0;6.493293643E-1
2.147533525E1;-2.393777370E0;-3.560163498E0;6.713205576E-1
2.148538925E1;-2.004045248E0;-4.773341656E0;4.953913391E-1
2.150565425E1;-1.928908825E0;-5.886949062E0;1.001615375E-1
2.152539825E1;-2.612467051E0;-4.365894318E0;-1.564018577E-1
2.153549825E1;-2.887967348E0;-2.980452299E0;-2.669684887E-1
2.154566125E1;-2.947832108E0;-2.061100006E0;-3.873089552E-1
2.156553425E1;-2.530611277E0;-1.976800680E0;-4.270151854E-1
2.158540725E1;-1.209309578E0;-2.370197773E0;7.145087421E-2
2.160533525E1;-2.557489276E-1;-2.212594748E0;7.084000856E-2
2.161537125E1;1.510873437E-1;-2.054991484E0;-1.295237988E-1
2.163542425E1;6.275622249E-1;-1.610892415E0;-5.546860099E-1
2.164546025E1;7.906633019E-1;-1.351274610E0;-7.037371397E-1
2.166558325E1;1.127250075E0;-7.953872681E-1;-8.711141944E-1
2.168546425E1;1.626937747E0;-2.217848152E-1;-1.155166507E0
2.170549325E1;2.311717510E0;4.819319546E-1;-1.488088012E0
2.172541425E1;2.760703564E0;9.773436785E-1;-1.596822023E0
2.173865225E1;1.726508856E0;4.027637839E-2;-5.662924647E-1
2.175640525E1;6.196209788E-1;-8.289848566E-1;6.878138781E-1
2.177543725E1;-6.699155569E-1;3.939673603E-1;9.694227576E-1
2.178858825E1;-1.613702297E0;5.375207067E-1;6.768183112E-1
2.180550225E1;-2.687603474E0;2.540792227E-1;4.605720341E-1
2.182551225E1;-1.542231083E0;-1.123421907E0;6.334468722E-1
2.184538125E1;2.390519530E-1;-8.644150496E-1;2.431040108E-1
2.185565825E1;5.945755243E-1;-1.655852050E-1;1.276504695E-1
2.187537925E1;-8.745554090E-1;-2.036665440E0;4.428569376E-1
2.188549725E1;-1.288722038E0;-2.811853409E0;5.283780694E-1
2.189561125E1;-9.582439065E-1;-1.963361621E0;3.451184928E-1
2.191534425E1;8.584693074E-1;1.634023786E0;-8.118602633E-1
2.192574425E1;1.643431187E0;2.585751772E0;-1.106297255E0
2.194581225E1;1.502321243E0;1.558887362E0;-7.324478030E-1
2.196550825E1;1.727730513E0;2.825821877E0;-1.344107091E-1
2.198542425E1;2.063706398E0;4.897266388E0;-6.102747321E-1
2.200550425E1;2.110131979E0;4.773871422E0;-4.575584531E-1
2.201615425E1;2.045380354E0;4.112915039E0;-2.932356894E-1
2.203561225E1;2.391741037E0;2.081177235E0;-3.188920319E-1
2.205604925E1;2.525520563E0;1.739703536E0;-7.147327065E-1
2.207535425E1;1.682526588E0;1.772079349E0;-1.113627672E0
2.208546025E1;1.253699183E0;1.709160209E0;-8.411818147E-1
2.209551525E1;1.001411796E0;1.877148151E0;-4.874908328E-1
2.211593125E1;1.082046032E0;2.211291552E0;-4.827871174E-2
2.213539025E1;1.563407779E0;2.142263651E0;7.206173986E-2
2.214553025E1;1.737504363E0;1.924795628E0;3.907501325E-2
2.215604325E1;1.934203029E0;1.300491333E0;1.952732727E-2
2.217576625E1;2.107077837E0;1.171598792E0;1.019941345E-1
2.219611725E1;2.196264029E0;8.252382278E-1;3.663155437E-2
2.221540425E1;2.072869301E0;4.715472460E-1;-4.907283001E-3
2.223699425E1;1.821192980E0;2.901202738E-1;5.312491581E-2
2.225536125E1;1.572570801E0;6.810740232E-1;7.755952328E-2
2.226574525E1;1.438791275E0;8.008036017E-1;1.209309548E-1
2.228576925E1;9.244427681E-1;8.631118536E-1;2.290541083E-1
2.230541225E1;4.870631993E-1;8.704422712E-1;2.620408237E-1
2.231543425E1;2.824233472E-1;5.075882673E-1;3.011361957E-1
2.233637125E1;-1.506800950E-1;-2.936225757E-2;1.936239153E-1
2.235595625E1;-2.276491076E-1;2.082643211E-1;1.936239153E-1
2.237539025E1;-7.700974345E-1;1.783319265E-1;-1.026457250E-1
2.238547825E1;-1.133562207E0;2.021556646E-1;-2.229861766E-1
2.240535025E1;-1.974723697E0;-7.587353587E-1;-3.879198134E-1
2.241553325E1;-2.434094429E0;-1.188784480E0;-5.669032931E-1
2.243546625E1;-3.283807993E0;-1.761165261E0;-6.365419626E-1
2.245558425E1;-3.595960140E0;-1.431298018E0;-5.499823391E-2
2.247566025E1;-3.316183805E0;1.056389660E-1;2.828102410E-1
2.248643525E1;-3.191567421E0;4.923166633E-1;2.693712115E-1
2.250580825E1;-3.038851023E0;2.149838358E-1;1.997325718E-1
2.251595025E1;-2.906904221E0;-4.341215640E-2;1.026050001E-1
2.253562125E1;-2.787785530E0;-5.925800204E-1;2.339410335E-1
2.255568925E1;-2.307645321E0;-3.665843010E0;5.289888978E-1
2.257533725E1;-1.916080594E0;-5.437963009E0;2.870862782E-1
2.258549825E1;-2.004045248E0;-5.678032875E0;1.691893190E-1
2.260555825E1;-2.701653481E0;-4.097113609E0;-2.036150545E-5
2.262543125E1;-3.109100580E0;-1.785599828E0;-2.009950280E-1
2.263556425E1;-2.987538338E0;-1.560190558E0;-3.213354945E-1
2.265548325E1;-2.476855040E0;-2.140512466E0;-2.584163845E-1
2.266608925E1;-2.126829147E0;-2.331102610E0;-1.270803362E-1
2.268547825E1;-1.208087802E0;-1.866234064E0;1.911804676E-1
2.269576525E1;-6.271549463E-1;-1.864401460E0;1.862935424E-1
2.271546425E1;3.972660303E-1;-1.805758357E0;-1.887777150E-1
2.272565925E1;6.972008944E-1;-1.598675132E0;-3.537113667E-1
2.273844025E1;1.043561459E0;-1.108761191E0;-6.047769785E-1
2.275599525E1;1.462615013E0;-7.532376051E-1;-8.350731730E-1
2.277583325E1;2.000787258E0;-1.167159826E-1;-1.141116619E0
2.279536825E1;2.579887390E0;6.236526966E-1;-1.471594691E0
2.280549725E1;2.824233532E0;7.867537141E-1;-1.606595874E0
2.281552225E1;2.895093918E0;7.769798636E-1;-1.598654628E0
2.283540125E1;1.797369242E0;-7.945320755E-2;-5.284188390E-1
2.285539325E1;1.211549491E-1;-4.624657333E-1;6.774291992E-1
2.287546025E1;-1.449990392E0;6.658023596E-1;8.918429017E-1
2.288547225E1;-2.241672039E0;7.030651569E-1;7.348505259E-1
2.289553425E1;-2.793894053E0;7.531561255E-1;6.291708350E-1
2.291534025E1;-1.850107193E0;-5.876930952E-1;6.102340221E-1
2.292544525E1;-8.391252160E-1;-1.312179327E0;6.670444608E-1
2.293567025E1;7.350745797E-2;-1.375709295E0;5.350975990E-1
2.295535525E1;-8.470664173E-2;-9.389405847E-1;2.675386071E-1
2.296538825E1;-8.959356546E-1;-1.905940294E0;2.522669733E-1
2.297581225E1;-9.057095051E-1;-1.739174128E0;1.575828791E-1
2.299533025E1;5.383759141E-1;4.232888818E-1;-2.981226146E-1
2.300534525E1;1.173675776E0;1.204585552E0;-5.699576735E-1
2.301542325E1;1.487049699E0;1.431827426E0;-5.760663152E-1
2.303644125E1;9.953031540E-1;8.075231314E-1;-2.755205929E-1
2.305544425E1;1.395419836E0;2.216789246E0;-2.431447357E-1
2.306546225E1;1.691078663E0;3.163019419E0;-5.290296674E-1
2.308543025E1;1.976963639E0;4.935750484E0;-8.485121727E-1
2.310565125E1;2.191377163E0;5.175820827E0;-3.983045220E-1
2.311711425E1;2.363030195E0;4.536244869E0;-2.541403174E-1
2.313546725E1;2.849889994E0;2.439144135E0;-4.929886460E-1
2.315554025E1;2.088140965E0;1.738481760E0;-7.996429801E-1
2.316561725E1;1.592118502E0;1.873482943E0;-1.061093211E0
2.318540825E1;9.397143722E-1;1.933347821E0;-5.094819665E-1
2.319549325E1;9.000081420E-1;1.756807685E0;-6.739878096E-3
2.320580925E1;1.013018250E0;1.561330795E0;2.302758396E-1
2.322554025E1;1.322116017E0;1.646852016E0;1.453655660E-1
2.324546625E1;1.648318052E0;1.527733207E0;-2.449773103E-1
2.326547325E1;1.927483439E0;9.180897474E-1;-1.215825379E-1
2.327559025E1;1.981239676E0;6.749653816E-1;-2.934189141E-2
2.329535625E1;1.948252916E0;6.731327772E-1;-9.592620283E-2
2.330561625E1;1.950085521E0;6.853500605E-1;-1.203608066E-1
2.332562325E1;1.862120867E0;6.676349640E-1;-6.843727082E-2
2.334543225E1;1.587231517E0;6.370916963E-1;1.337591261E-1
2.335553625E1;1.515760303E0;6.248744130E-1;1.557502747E-1
2.337601725E1;9.659816027E-1;7.830885053E-1;2.461583316E-1
2.339536425E1;4.516330361E-1;8.075231314E-1;2.870862782E-1
2.341538525E1;9.855294228E-2;3.224961162E-1;3.164078295E-1
2.342544425E1;-9.448048472E-2;3.658675551E-1;2.553212941E-1
2.343562025E1;-2.227621824E-1;5.772269368E-1;2.137824744E-1
2.345534225E1;-2.643010318E-1;4.501669407E-1;8.672250807E-2
2.346552125E1;-4.872668386E-1;4.190128148E-1;2.869030461E-2
2.347645025E1;-8.214101195E-1;5.094208717E-1;-3.178535402E-2
2.349543325E1;-1.300939322E0;3.487633169E-1;-3.133942485E-1
2.351552125E1;-2.145766020E0;-1.124032736E0;-3.866980672E-1
2.353638125E1;-3.244101763E0;-1.556525350E0;-3.671503961E-1
2.355533225E1;-3.583132029E0;-9.755925536E-1;3.518379927E-1
2.356542525E1;-3.525099754E0;-3.573969007E-1;5.619756579E-1
2.357550725E1;-3.380935669E0;2.027665377E-1;5.112738609E-1
2.358556625E1;-3.226997614E0;5.118643641E-1;3.194621503E-1
2.359570625E1;-3.111544132E0;6.004397869E-1;2.107281536E-1
2.361531725E1;-2.924008369E0;1.645263657E-2;1.007724032E-1
2.362543325E1;-2.868419647E0;-2.761518359E-1;2.003434449E-1
2.363555825E1;-2.837265491E0;-7.007031441E-1;3.762726188E-1
2.365572325E1;-2.927062750E0;-1.568131804E0;6.707096696E-1
2.367538625E1;-2.023592949E0;-3.825889826E0;3.652770519E-1
2.369534225E1;-1.277726412E0;-6.139847279E0;-1.429628283E-1
2.370539325E1;-1.478701115E0;-6.291341782E0;-2.407012731E-1
2.371565625E1;-1.966171622E0;-5.333505154E0;-2.895705104E-1
2.373547925E1;-2.764572620E0;-1.682363629E0;-5.510208011E-1
2.374653125E1;-2.581312895E0;-1.912659764E0;-5.155906677E-1
2.376594825E1;-1.968004227E0;-2.449610472E0;-1.759495437E-1
2.378548425E1;-1.049262881E0;-2.168612242E0;6.839654595E-2
2.379591725E1;-5.117014647E-1;-2.039108992E0;1.219694410E-2
2.380644525E1;1.242093369E-2;-1.929153204E0;-1.661757082E-1
2.382574625E1;8.175413609E-1;-1.637159586E0;-6.481484175E-1
2.384533525E1;1.117476225E0;-1.116091490E0;-9.205942750E-1
2.385537725E1;1.215214610E0;-8.802975416E-1;-9.236486554E-1
2.386547125E1;1.329446435E0;-5.950234532E-1;-9.260920882E-1
2.388542425E1;1.701463342E0;1.209105924E-1;-1.091636539E0
2.390537025E1;2.214590073E0;7.604864836E-1;-1.238855004E0
2.391561025E1;2.461990356E0;1.043317080E0;-1.297498107E0
2.393542925E1;1.485827923E0;6.532185525E-2;-2.498642355E-1
2.394543925E1;9.281079769E-1;-6.884858608E-1;2.974709868E-1
2.395544425E1;4.308636189E-1;-6.157928705E-1;6.597141027E-1
2.396544425E1;-1.628973931E-1;-6.357070804E-2;7.256875634E-1
2.398538225E1;-1.687617064E0;6.700784564E-1;5.729712248E-1
2.400538125E1;-2.635069132E0;1.276300997E-1;5.021108985E-1
2.401573425E1;-2.248391390E0;-6.469470263E-1;4.679023921E-1
2.403616725E1;-2.734639943E-1;-1.728789330E0;3.200730085E-1
2.405541925E1;1.063109159E0;-1.469171643E0;-2.461990565E-1
2.406559825E1;7.375180125E-1;-1.376930952E0;-3.812002838E-1
2.408547025E1;-1.165938139E0;-1.717182994E0;-3.604308665E-1
2.410557525E1;-4.652757049E-1;-1.277115643E-1;-3.347745240E-1
2.412559325E1;1.818749428E0;1.678006053E0;-5.491882563E-1
2.414543925E1;1.609222651E0;1.511850715E0;-1.270803362E-1
2.416561825E1;7.912741303E-1;1.546059251E0;2.846428156E-1
2.418543625E1;1.176730156E0;3.871012211E0;-1.722843647E-1
2.420541525E1;1.868229508E0;5.269283295E0;-6.890763640E-1
2.421545625E1;2.052099943E0;5.131227493E0;-6.872437596E-1
2.422567725E1;2.301332951E0;4.247916222E0;-7.342804074E-1
2.424537425E1;2.813237906E0;1.667010546E0;-8.515665531E-1
2.425616225E1;2.653802156E0;1.189924717E0;-6.835786104E-1
2.427537425E1;1.764382482E0;1.178318381E0;-3.347745240E-1
2.428558425E1;1.250033975E0;1.591263175E0;-3.219463527E-1
2.430546125E1;7.167485952E-1;2.250386715E0;-6.090530157E-1
2.431572725E1;1.033787608E0;1.789794445E0;-8.798495680E-2
2.433545125E1;1.484606147E0;1.716490626E0;4.212934151E-2
2.435573425E1;1.580512047E0;1.778187990E0;-7.332418859E-2
2.437534425E1;1.705739379E0;1.792237878E0;-4.907283001E-3
2.438539125E1;1.856623173E0;1.652960658E0;1.038267314E-1
2.440534725E1;1.969022393E0;1.155716300E0;8.305731416E-2
2.441574525E1;1.918320537E0;8.906008005E-1;-4.296417348E-3
2.443552425E1;1.903659701E0;5.650095940E-1;-7.026986033E-2
2.445536025E1;1.854179621E0;6.719110608E-1;-4.461352155E-2
2.446550725E1;1.766215086E0;7.959166765E-1;-1.529199164E-2
2.448541925E1;1.466280222E0;9.596285820E-1;6.900741160E-2
2.450548325E1;8.016588688E-1;9.694024324E-1;1.734653711E-1
2.452538825E1;3.563381359E-2;5.051448345E-1;2.467692047E-1
2.453568125E1;-1.885537356E-1;6.670241356E-1;2.492126673E-1
2.455540625E1;-3.247766793E-1;9.706241488E-1;2.205019891E-1
2.457531825E1;-6.216571927E-1;4.088724405E-2;9.649635106E-2
2.458539825E1;-9.869545698E-1;-2.822604775E-1;-1.221934110E-1
2.460541725E1;-1.927687049E0;-4.820134044E-1;-3.873089552E-1
2.462535925E1;-2.718757629E0;-9.432166815E-1;-8.766120076E-1
2.463545825E1;-3.118874311E0;-1.065389752E0;-9.835134149E-1
2.464594825E1;-3.425528765E0;-1.212608218E0;-7.904800177E-1
2.466534325E1;-3.613064289E0;-7.984415889E-1;4.457280040E-2
2.467535425E1;-3.532430172E0;-2.566041350E-1;3.438967466E-1
2.468540025E1;-3.460348129E0;3.172426671E-2;4.801197052E-1
2.469544825E1;-3.431637526E0;7.265224308E-2;5.442605615E-1
2.470551225E1;-3.365664005E0;1.523090526E-2;5.247128606E-1
2.472552425E1;-2.892854214E0;-3.292970955E-1;2.712037861E-1
2.474567725E1;-2.951497316E0;-1.365324497E0;6.310034394E-1
2.475683525E1;-2.685160160E0;-2.657915354E0;7.226331830E-1
2.477529525E1;-2.156761646E0;-4.974316120E0;6.584923863E-1
2.478551725E1;-2.073683977E0;-5.605340004E0;4.923370183E-1
2.480555125E1;-2.454252958E0;-5.032348156E0;1.716327667E-1
2.482556425E1;-2.905682325E0;-2.392189026E0;-3.483967856E-2
2.484533425E1;-2.625295401E0;-1.684807062E0;-1.936646402E-1
2.485571325E1;-2.294817209E0;-2.192435980E0;-1.594561934E-1
2.487538925E1;-1.490307570E0;-2.772758007E0;5.312491581E-2
2.488632625E1;-1.049873710E0;-2.439225674E0;1.471981704E-1
2.490548625E1;3.868818283E-3;-1.946257353E0;2.685770951E-2
2.492535425E1;1.170010567E0;-1.400143862E0;-4.752735496E-1
2.493541725E1;1.306844354E0;-1.082493901E0;-7.080131769E-1
2.494544725E1;1.378315687E0;-8.210436106E-1;-9.273138046E-1
2.495553025E1;1.433293462E0;-5.669236779E-1;-1.051930308E0
2.496572225E1;1.528588533E0;-2.675997019E-1;-1.097745180E0
2.497580825E1;1.725897908E0;1.462004147E-2;-1.152723074E0
2.499537225E1;2.339206457E0;4.306192696E-1;-1.290778637E0
2.500553025E1;2.629367590E0;5.650095940E-1;-1.338426113E0
2.502546825E1;2.342871666E0;4.416148365E-1;-8.741685152E-1
2.504546525E1;8.297586441E-1;-7.819482684E-1;3.848247230E-1
2.506544225E1;-2.972877026E-2;6.462547183E-1;1.039672375E0
2.507558125E1;-8.476772904E-1;1.122729540E0;8.307563663E-1
2.508682325E1;-2.412714243E0;6.450329423E-1;4.819523096E-1
2.510542325E1;-1.834224701E0;-2.474411577E-1;6.933116913E-1
2.511543425E1;-9.313658476E-1;-9.774250984E-1;7.336288095E-1
2.513532825E1;2.451605946E-1;-2.694323063E-1;2.736472487E-1
2.515539125E1;-4.958189726E-1;-2.273070335E0;6.542162895E-1
2.517528625E1;-1.151888251E0;-4.078176975E0;6.426098347E-1
2.518562125E1;-7.670431137E-1;-2.054991484E0;-5.518148653E-3
2.520536725E1;1.900605440E0;4.188051701E0;-2.005491018E0
2.522531025E1;3.235956669E0;4.186830044E0;-1.629808784E0
2.523541225E1;2.187711954E0;1.623639107E0;-6.389853954E-1
2.525543725E1;6.965900064E-1;9.077050090E-1;7.385157347E-1
2.526697225E1;1.160236716E0;2.723807335E0;4.019289613E-1
2.528537125E1;1.915266156E0;4.162395477E0;-7.055697441E-1
2.530545225E1;1.688024282E0;3.084828854E0;-7.409999371E-1
2.531649625E1;1.613498807E0;2.409822702E0;-6.793025136E-1
2.533592125E1;1.919542193E0;1.627304316E0;-5.888944864E-1
2.535546125E1;1.808364749E0;1.569272041E0;-9.034900665E-1
2.537547925E1;1.238427520E0;1.974886656E0;-8.240776062E-1
2.539765125E1;1.141910791E0;2.742744207E0;-3.323310614E-1
2.540983525E1;1.198110342E0;2.857586861E0;-1.765604168E-1
2.543544125E1;1.259196877E0;1.448320746E0;4.151847586E-2
2.545564025E1;1.099761128E0;2.314772010E-1;-2.750929445E-2
2.547582925E1;1.338609457E0;1.942144185E-1;-4.094833136E-2
2.549530725E1;1.962302804E0;9.376374483E-1;-7.698938251E-2
2.550538925E1;1.986126542E0;1.470311880E0;-8.493062854E-2
2.551589625E1;1.912211895E0;1.443433881E0;-5.133304000E-2
2.553529725E1;1.981239676E0;7.329975367E-1;-3.728314117E-2
2.554539325E1;2.047823906E0;3.817500472E-1;-6.843727082E-2
2.555555225E1;2.045991182E0;2.443053722E-1;-1.105869710E-1
2.556898925E1;1.890831590E0;3.762522638E-1;-1.203608066E-1
2.558378775E1;1.075326443E0;1.245513558E0;1.270396113E-1
2.559548925E1;7.344636917E-1;1.436714292E0;2.510452569E-1
2.561561125E1;2.329432815E-1;8.227947354E-1;4.037615657E-1
2.563536625E1;-2.801835239E-1;5.961637497E-1;3.921551108E-1
2.564793025E1;-3.046181500E-1;7.421605587E-1;4.037615657E-1
2.566534325E1;-3.993022442E-1;6.004397869E-1;3.610009849E-1
2.567550325E1;-7.364998460E-1;5.381315351E-1;1.679675877E-1
2.569532025E1;-1.899587274E0;3.188309371E-1;-2.804075181E-1
2.570896125E1;-2.322916985E0;-8.076046109E-1;-5.424687266E-1
2.572533525E1;-3.042516232E0;-1.532090783E0;-8.314079642E-1
2.573536225E1;-3.298468828E0;-1.773382545E0;-5.950031281E-1
2.575563825E1;-3.363831282E0;-1.316455364E0;1.661349833E-1
2.576565425E1;-3.176906586E0;-6.463361382E-1;4.257526994E-1
2.578557625E1;-2.904460669E0;2.992832363E-1;5.124955773E-1
2.580554925E1;-2.859256744E0;-1.283224225E-1;3.664987683E-1
2.582843525E1;-2.765794277E0;-9.407731891E-1;3.414532840E-1
2.584546125E1;-2.810998440E0;-1.505823612E0;6.438316107E-1
2.585587825E1;-2.719368458E0;-1.899220824E0;7.366831303E-1
2.587534525E1;-2.052303791E0;-3.491135597E0;5.338758230E-1
2.588661525E1;-1.566054821E0;-5.144747734E0;-2.140064538E-2
2.590538425E1;-2.228843689E0;-3.965167046E0;-3.054530025E-1
2.592538325E1;-2.613688946E0;-1.983520150E0;-5.687358975E-1
2.593542325E1;-2.552602291E0;-1.747115374E0;-6.793025136E-1
2.595534925E1;-2.165313721E0;-2.315830946E0;-5.137580633E-1
2.596545425E1;-1.829948664E0;-2.558344364E0;-4.196847975E-1
2.598534325E1;-8.953248262E-1;-2.329880714E0;-3.164485693E-1
2.600541525E1;7.595092058E-2;-1.948700905E0;-4.960429668E-1
2.601544225E1;4.644612074E-1;-1.821030021E0;-6.750264764E-1
2.603551525E1;8.896234632E-1;-1.346998572E0;-1.029328227E0
2.604590025E1;9.727010727E-1;-1.040955067E0;-1.085527897E0
2.606540125E1;1.163291097E0;-5.223305225E-1;-1.166162014E0
2.608569725E1;1.720400214E0;-1.490918547E-1;-1.477703333E0
2.610534125E1;2.298278570E0;1.141055584E0;-1.750149250E0
2.611545925E1;2.119905949E0;1.411057949E0;-1.542455077E0
2.613540925E1;1.124195695E0;5.381315351E-1;-4.899343252E-1
2.615530225E1;7.900524139E-2;-1.600874215E-1;2.046194971E-1
2.616533425E1;-5.996659994E-1;-4.463388771E-2;1.991217136E-1
2.617539525E1;-1.326595664E0;-1.002226248E-1;3.744400144E-1
2.618576825E1;-2.026647329E0;-6.906849891E-2;5.503692031E-1
2.620533525E1;-2.655227661E0;-1.246572360E-1;5.546452403E-1
2.621591625E1;-2.329025745E0;-4.282572567E-1;5.662516952E-1
2.623612325E1;-2.740748823E-1;-1.491773605E0;3.524488807E-1
2.624845325E1;8.205956817E-1;-1.764830470E0;1.172657683E-1
2.626551925E1;1.018516064E0;-1.953587770E0;-3.292767406E-1
2.627559525E1;-9.142616391E-2;-1.778880358E0;-2.993443310E-1
2.629571725E1;-3.137811124E-1;2.681291103E-1;-1.105869710E-1
2.630609925E1;6.080145836E-1;4.874297380E-1;-1.356324404E-1
2.632534425E1;1.771101952E0;1.841107130E0;-4.813821912E-1
2.633541125E1;1.818749428E0;1.786129236E0;-4.997081161E-1
2.635547025E1;8.169304729E-1;1.205807209E0;5.984443426E-2
2.637561625E1;1.246368766E0;3.624222755E0;-3.366071284E-1
2.639550725E1;2.101579905E0;4.798305988E0;-1.061093211E0
2.641538025E1;2.367917299E0;3.907053471E0;-1.033604264E0
2.643540225E1;2.358143330E0;1.896695852E0;-7.495520115E-1
2.644547725E1;2.204816103E0;1.362188816E0;-5.192558169E-1
2.645564325E1;1.843184114E0;1.415333986E0;-2.877379060E-1
2.647551925E1;8.969538212E-1;2.338962317E0;-6.599380821E-2
2.648568825E1;7.240789533E-1;3.018855333E0;-5.438736826E-2
2.650532725E1;1.104647994E0;2.487402439E0;5.617924407E-2
2.651538525E1;1.316007376E0;2.416542292E0;1.258178800E-1
2.653576625E1;1.487660527E0;2.568647623E0;1.423112452E-1
2.655597625E1;1.502321243E0;2.484959126E0;1.050484627E-1
2.657540925E1;1.882890344E0;1.811174750E0;2.314975709E-1
2.658544825E1;2.056986809E0;1.425718784E0;2.999144495E-1
2.659555125E1;2.100969076E0;1.123951316E0;3.109100461E-1
2.660572725E1;2.016669750E0;9.437460899E-1;2.876971662E-1
2.662534225E1;1.954361558E0;8.319577575E-1;2.504343688E-1
2.663582725E1;2.113186359E0;8.081339598E-1;2.278323770E-1
2.665583425E1;2.196874857E0;7.195585370E-1;1.478090286E-1
2.667532325E1;1.383202553E0;1.088521123E0;2.840319574E-1
2.668540725E1;8.102109432E-1;1.029267192E0;3.677205145E-1
2.669585125E1;6.251187921E-1;6.761870980E-1;3.640553057E-1
2.671592025E1;9.672033787E-2;5.986071825E-1;3.567249179E-1
2.674003825E1;-1.763364226E-1;6.389243007E-1;3.011361957E-1
2.675550725E1;-5.605706573E-1;1.655037552E-1;1.942347884E-1
2.676676525E1;-9.307549596E-1;2.345315218E-1;4.255695269E-3
2.678544525E1;-1.573385239E0;6.226753443E-2;-4.361781478E-1
2.680536525E1;-2.468302965E0;-1.076385260E0;-7.843713760E-1
2.681547325E1;-2.864754438E0;-1.461230397E0;-9.486941099E-1
2.683567825E1;-3.507384777E0;-1.762386918E0;-4.984863997E-1
2.685530825E1;-3.649105549E0;-8.992343545E-1;3.487836719E-1
2.686538025E1;-3.533041000E0;-2.504954636E-1;4.947804809E-1
2.687543325E1;-3.418809175E0;-2.569706552E-2;5.980166793E-1
2.689550125E1;-3.234938860E0;-3.470121920E-1;3.542814553E-1
2.691595425E1;-3.093828917E0;-6.634404063E-1;3.432858884E-1
2.693544625E1;-3.054122686E0;-1.563855767E0;6.566597819E-1
2.695586025E1;-2.347962379E0;-3.774577141E0;6.090122461E-1
2.697544225E1;-2.038864613E0;-5.362215519E0;2.962492704E-1
2.699544325E1;-2.578869581E0;-4.466076374E0;-1.759495437E-1
2.700572525E1;-2.889799833E0;-3.089186192E0;-3.781459630E-1
2.702542925E1;-2.885523796E0;-1.532701612E0;-7.849822044E-1
2.703547025E1;-2.630793095E0;-1.742228389E0;-8.564534783E-1
2.705557225E1;-1.783522844E0;-2.576059580E0;-6.536461711E-1
2.707540625E1;-2.807943821E-1;-2.098362923E0;-2.681902051E-1
2.709544225E1;5.218825936E-1;-1.725124240E0;-4.117435515E-1
2.711690825E1;1.010574818E0;-1.299351096E0;-7.092349529E-1
2.713602125E1;1.207273364E0;-8.754106164E-1;-1.015889168E0
2.715536325E1;1.587842464E0;-5.571498275E-1;-1.151501298E0
2.716546125E1;1.869451284E0;-3.439578712E-1;-1.260846138E0
2.718557025E1;2.429003716E0;2.693508565E-1;-1.373856306E0
2.720561325E1;2.650747776E0;7.678169012E-1;-1.274896026E0
2.722553425E1;1.479719281E0;-1.820785701E-1;-3.915849924E-1
2.723606125E1;9.409361482E-1;-6.090734005E-1;7.511606067E-2
2.725543525E1;-3.730350435E-1;8.111883402E-1;2.815884948E-1
2.727574825E1;-2.569095612E0;7.623190880E-1;4.807305634E-1
2.729554825E1;-2.303369284E0;-5.675345659E-1;7.024746537E-1
2.731616825E1;-1.189150959E-1;-1.280414343E0;6.138991714E-1
2.733583625E1;7.912741303E-1;-5.333260894E-1;7.084000856E-2
2.735539325E1;-1.019330502E0;-2.422732353E0;4.274020717E-2
2.737558925E1;-8.635597825E-1;-5.589824319E-1;-2.211535722E-1
2.739549025E1;1.877392530E0;2.316360235E0;-9.865677953E-1
2.741583725E1;2.667852163E0;2.397605419E0;-8.546208739E-1
2.743549125E1;5.053892136E-1;8.692204952E-1;7.592851520E-1
2.744557125E1;5.542584062E-1;2.291314840E0;1.016459465E0
2.745564525E1;1.013018250E0;3.739065409E0;5.558670163E-1
2.747537025E1;1.722232819E0;4.302283287E0;-5.901162028E-1
2.748541225E1;1.644652843E0;3.343835592E0;-6.176051497E-1
2.749571625E1;1.739947915E0;1.982827902E0;-6.664743423E-1
2.751576825E1;2.149838209E0;1.679472178E-1;-7.745975256E-1
2.753598625E1;2.070425749E0;7.122281194E-1;-8.876075745E-1
2.755544025E1;1.352048397E0;2.473963499E0;-5.772880316E-1
2.756559925E1;1.149852037E0;3.166073799E0;-3.494352996E-1
2.758561225E1;1.067385197E0;4.040222168E0;7.939212024E-2
2.760534525E1;1.596394539E0;3.254649401E0;3.909333944E-1
2.761547525E1;1.785151839E0;2.651114464E0;3.377881050E-1
2.763556025E1;1.947642088E0;1.703662395E0;1.655241251E-1
2.765536625E1;2.029497862E0;1.206418157E0;2.840319574E-1
2.766539725E1;1.889609814E0;6.413677931E-1;2.314975709E-1
2.768565525E1;1.809586525E0;3.793065846E-1;1.099353805E-1
2.770556525E1;2.007506609E0;4.648277164E-1;7.450519502E-2
2.771576325E1;2.056986809E0;6.334265471E-1;6.412048638E-2
2.773633425E1;1.853568792E0;7.965275645E-1;1.105462462E-1
2.775537225E1;1.212160349E0;9.040398598E-1;2.363844961E-1
2.776541825E1;8.780170083E-1;9.419134855E-1;2.693712115E-1
2.777552225E1;6.483316422E-1;7.727038264E-1;2.602082193E-1
2.779539525E1;1.315396577E-1;2.980615199E-1;2.418822795E-1
2.780540925E1;-1.451822966E-1;3.420438170E-1;2.791450322E-1
2.782537925E1;-3.870849609E-1;7.879754305E-1;3.139643669E-1
2.783545325E1;-3.321070671E-1;5.497379899E-1;2.479909360E-1
2.785541925E1;-9.881763458E-1;3.689218760E-1;6.961827725E-2
2.786591025E1;-1.238631129E0;5.308011770E-1;-6.355034560E-2
2.788551425E1;-1.817120433E0;-6.084625125E-1;-2.834618390E-1
2.790536025E1;-2.649119139E0;-1.243151546E0;-5.351383090E-1
2.791541725E1;-3.030909777E0;-1.291409850E0;-4.997081161E-1
2.793587525E1;-3.583132029E0;-1.135028362E0;2.156150788E-1
2.795536225E1;-3.561140776E0;3.646458089E-1;5.961840749E-1
2.796549125E1;-3.451796055E0;9.504656196E-1;4.721784592E-1
2.798538925E1;-3.336953402E0;6.969565153E-1;2.577647567E-1
2.800576225E1;-3.071837902E0;-2.511063516E-1;-4.644611850E-2
2.802542325E1;-2.919732332E0;-1.213829994E0;2.522669733E-1
2.803542525E1;-3.015638113E0;-1.774604321E0;4.825631678E-1
2.804545825E1;-2.988149166E0;-2.395854235E0;5.552561283E-1
2.806550725E1;-1.635693431E0;-5.767830372E0;-1.529199164E-2
2.808553525E1;-2.206852674E0;-4.371392250E0;-2.077145427E-1
2.810536225E1;-2.472579002E0;-1.726345897E0;-4.227391183E-1
2.811594225E1;-2.326582193E0;-1.395867825E0;-5.497990847E-1
2.813543825E1;-1.730377555E0;-1.701911330E0;-3.824220300E-1
2.814553725E1;-1.417614579E0;-1.879062176E0;-2.168775201E-1
2.815581825E1;-1.121955752E0;-1.728789330E0;-1.386867762E-1
2.817649525E1;-4.072434902E-1;-1.700078726E0;-1.221934110E-1
2.819531625E1;3.422881663E-1;-2.071484804E0;-3.292767406E-1
2.820542125E1;5.585345030E-1;-1.902275085E0;-4.728300869E-1
2.821552825E1;7.326310873E-1;-1.586457729E0;-6.316550374E-1
2.823557225E1;1.132136941E0;-1.009190083E0;-8.259102106E-1
2.825589125E1;1.793704033E0;-2.675997019E-1;-1.109962463E0
2.827579825E1;2.389908314E0;1.477886587E-1;-1.373245358E0
2.829576825E1;2.706336498E0;3.909130394E-1;-1.373856306E0
2.831551625E1;1.625716090E0;-3.424917907E-2;-3.915849924E-1
2.833541925E1;-1.445713826E-2;-2.242282778E-1;7.641720176E-1
2.835539225E1;-1.291776299E0;-7.371108048E-3;9.162774682E-1
2.836541225E1;-1.838500738E0;-1.344310790E-1;7.336288095E-1
2.837582025E1;-2.271604300E0;-1.185485795E-1;6.407772899E-1
2.839535925E1;-1.763364315E0;-1.059281111E0;7.183571458E-1
2.840543625E1;-9.093747139E-1;-1.252925396E0;7.886066437E-1
2.842550625E1;1.669698954E-2;-1.081272244E0;5.412062407E-1
2.843603625E1;-1.080416918E0;-2.387912989E0;7.892175317E-1
2.845532225E1;-7.884233594E-1;-2.137458324E0;1.380351782E-1
2.846537125E1;1.413135082E-1;-6.176254749E-1;-6.359310746E-1
2.847542525E1;1.212771177E0;1.012773871E0;-1.334760904E0
2.849538525E1;2.326378345E0;2.321247101E0;-1.188153267E0
2.851551725E1;1.418021917E0;1.727486134E0;4.013181031E-1
2.853592625E1;1.042950630E0;3.131865263E0;8.716843128E-1
2.855548525E1;1.201775551E0;4.809912682E0;1.636915207E-1
2.856586525E1;1.390532970E0;5.075027943E0;-2.358143479E-1
2.858569125E1;1.786373615E0;4.103141308E0;-8.998248577E-1
2.860536425E1;2.276287317E0;1.521013737E0;-1.110573292E0
2.862564225E1;2.285450459E0;8.912116885E-1;-8.595077991E-1
2.864543125E1;1.474832296E0;1.939456463E0;-5.730119944E-1
2.865554525E1;1.284242392E0;2.183191538E0;-3.665395081E-1
2.867550325E1;1.294016242E0;2.107444286E0;-8.187630028E-2
2.869533425E1;1.523090720E0;1.706716776E0;-1.759495437E-1
2.870550625E1;1.680083036E0;1.365853906E0;-2.345926166E-1
2.872551725E1;1.748499990E0;5.656204820E-1;-1.460171491E-1
2.874222425E1;1.650761485E0;3.817500472E-1;-9.592620283E-2
2.875558725E1;1.620829105E0;3.231069744E-1;-1.020348594E-1
2.877536125E1;1.949474692E0;6.810740232E-1;-1.814473420E-1
2.878774525E1;2.066149712E0;9.810088277E-1;-1.777821481E-1
2.880551625E1;2.087530136E0;1.418999195E0;-4.461352155E-2
2.882539925E1;2.022778273E0;1.413501501E0;1.019941345E-1
2.883553225E1;1.901216269E0;1.223522305E0;1.905695945E-1
2.885535125E1;1.366709232E0;2.888985276E-1;2.137824744E-1
2.886537025E1;9.348274469E-1;2.412510365E-1;2.534887195E-1
2.888544025E1;1.822414696E-1;4.110715687E-1;3.866573274E-1
2.889589925E1;-7.432193309E-2;3.347134292E-1;4.361374080E-1
2.891537225E1;-2.447533309E-1;3.646458089E-1;3.402315676E-1
2.892585625E1;-2.368120849E-1;4.300084114E-1;3.493945599E-1
2.893611825E1;-2.337577641E-1;3.988542855E-1;3.664987683E-1
2.894847125E1;-2.508620024E-1;2.589661479E-1;3.188512921E-1
2.896548025E1;-4.432845414E-1;6.593272090E-2;1.539176852E-1
2.897581125E1;-6.631960273E-1;4.699590057E-2;4.255695269E-3
2.899546925E1;-1.233744144E0;-8.155458570E-1;-2.437555939E-1
2.901588325E1;-2.061466694E0;-1.880283952E0;-2.523077130E-1
2.903540225E1;-2.908736706E0;-1.751391411E0;-1.197499484E-1
2.905557825E1;-3.296025276E0;-1.379985332E0;3.610009849E-1
2.907538125E1;-3.016248941E0;-4.707735032E-2;5.008891225E-1
2.908546125E1;-2.722422838E0;6.578611135E-1;3.512271345E-1
2.910546425E1;-2.569706440E0;4.984253049E-1;-8.572475053E-3
2.911558425E1;-2.609412909E0;3.172426671E-2;-1.209716797E-1
2.913530825E1;-2.724255562E0;-7.514050007E-1;1.349808574E-1
2.915614125E1;-2.812220097E0;-1.592566371E0;4.856174886E-1
2.917535025E1;-2.017484426E0;-3.950506210E0;2.657060027E-1
2.918543425E1;-1.619810939E0;-5.235766411E0;6.228789315E-2
2.919559825E1;-1.606982827E0;-5.998737335E0;-6.477207690E-2
2.921581325E1;-2.453031301E0;-5.387871742E0;-2.388686687E-1
2.923540225E1;-3.088942051E0;-2.186327457E0;-9.230377674E-1
2.924561125E1;-2.853147984E0;-2.157616854E0;-1.069034457E0
2.925587525E1;-2.486017942E0;-2.367143631E0;-9.963416457E-1
2.927577325E1;-1.347975969E0;-2.670132637E0;-6.078312993E-1
2.929541825E1;-2.423098311E-2;-2.317052603E0;-5.516316891E-1
2.930555925E1;3.343469203E-1;-2.162503719E0;-6.188268661E-1
2.932569825E1;6.049602628E-1;-1.736730576E0;-8.448470235E-1
2.934532825E1;5.475388765E-1;-9.762033820E-1;-8.772228956E-1
2.935541325E1;5.725843906E-1;-6.897075772E-1;-8.014755845E-1
2.937585025E1;9.745336771E-1;-3.152472079E-1;-8.515665531E-1
2.939572025E1;1.526144981E0;2.504140139E-1;-1.060482383E0
2.941544725E1;1.910379291E0;9.883392453E-1;-1.089803934E0
2.942559025E1;2.071036816E0;1.218635440E0;-9.712961316E-1
2.944591125E1;1.570127368E0;-9.839002788E-2;-1.845016629E-1
2.946555725E1;4.742350280E-1;-6.799337268E-1;1.624697894E-1
2.948537925E1;-1.338202119E0;4.086281061E-1;3.602068871E-2
2.950563025E1;-2.638734341E0;4.483343661E-1;1.661349833E-1
2.952547225E1;-2.506176472E0;-7.801156640E-1;3.579466641E-1
2.953613525E1;-1.700445175E0;-1.386704803E0;5.717495084E-1
2.955536525E1;6.342817545E-1;-1.298740268E0;5.210476518E-1
2.956539125E1;1.100982785E0;-8.790758252E-1;1.899587363E-1
2.958597125E1;-2.074905485E-1;-2.191214323E0;1.765196919E-1
2.960541225E1;-1.184874892E0;-1.695802689E0;1.313156635E-1
2.961598725E1;6.287840009E-1;1.286441445E0;-6.890763640E-1
2.963538525E1;2.391130209E0;3.133087158E0;-1.018943548E0
2.964570825E1;2.304387331E0;2.764735460E0;-5.406361222E-1
2.966532525E1;9.384926558E-1;1.665177941E0;7.275201082E-1
2.967552225E1;1.100982785E0;2.742744207E0;6.407772899E-1
2.968554725E1;1.356324434E0;3.863070965E0;2.259997874E-1
2.969618025E1;1.582344651E0;4.701178551E0;-2.095471323E-1
2.971638625E1;1.984904885E0;4.951022148E0;-4.221282601E-1
2.973943725E1;2.271400452E0;2.780617952E0;-3.738698959E-1
2.975154775E1;2.356310844E0;3.023375571E-1;-4.654996991E-1
2.976599425E1;2.006895781E0;1.215214655E-1;-4.093000889E-1
2.978546725E1;1.239038348E0;1.125783920E0;-5.595729351E-1
2.980540125E1;1.021570325E0;2.437922478E0;-6.621983051E-1
2.981547025E1;1.019126892E0;2.886297464E0;-2.907922268E-1
2.983584925E1;1.330057263E0;2.831319571E0;1.172657683E-1
2.985589825E1;1.426573992E0;2.530773878E0;3.274033964E-1
2.987572925E1;1.491936564E0;2.248554230E0;2.742581069E-1
2.989610425E1;1.815695167E0;1.626693368E0;1.337591261E-1
2.991556025E1;1.880446911E0;7.262780666E-1;3.418809175E-2
2.992556425E1;1.781486750E0;4.306192696E-1;9.142617695E-3
2.994532025E1;1.679472208E0;5.094208717E-1;5.129231885E-2
2.996537725E1;1.802256107E0;8.838812709E-1;6.106616557E-2
2.997539225E1;1.878614306E0;8.881573081E-1;8.977682889E-2
2.998578025E1;1.907324910E0;8.582249284E-1;1.581937373E-1
3.000544225E1;1.538973212E0;6.884043813E-1;3.249599338E-1
3.002545225E1;5.536475778E-1;4.941492677E-1;3.408424258E-1
3.004535225E1;1.999565661E-1;4.819319546E-1;2.284432352E-1
3.005552225E1;1.242093369E-2;5.106425881E-1;1.930130571E-1
3.007539325E1;-1.549561471E-1;7.672060132E-1;1.728544980E-1
3.009546425E1;-3.363831341E-1;4.074063897E-1;1.508633494E-1
3.011704825E1;-1.087747335E0;2.589661479E-1;1.252070069E-1
3.013545925E1;-1.727934122E0;-1.435940564E-1;-3.934175968E-1
3.014550425E1;-2.161037683E0;-9.236689806E-1;-5.778989196E-1
3.015560725E1;-2.573982716E0;-1.442293525E0;-7.532172203E-1
3.017574325E1;-3.165300131E0;-1.526592970E0;-7.074023485E-1
3.019532025E1;-3.478063107E0;-1.164349914E0;1.097521372E-2
3.020547125E1;-3.438967705E0;-5.620367527E-1;2.821993828E-1
3.021582225E1;-3.189123869E0;1.905492246E-1;3.390098214E-1
3.023544725E1;-3.134145975E0;-7.456628233E-2;3.591683805E-1
3.025554925E1;-3.035185814E0;-4.331441820E-1;2.834210992E-1
3.026580725E1;-3.025412083E0;-4.685743749E-1;3.561140597E-1
3.028535625E1;-2.726698875E0;-1.769717336E0;5.784690380E-1
3.029582825E1;-2.451809645E0;-2.927306890E0;4.831740260E-1
3.030654725E1;-2.271604300E0;-3.902858734E0;3.774943352E-1
3.032636025E1;-2.159816027E0;-5.086715221E0;1.636915207E-1
3.033644025E1;-2.110335827E0;-5.657263756E0;-9.287187457E-2
3.035636525E1;-2.695544720E0;-4.581529617E0;-6.463158131E-1
3.037531325E1;-3.009529591E0;-2.024448156E0;-9.841243029E-1
3.038533425E1;-2.805500507E0;-1.843631983E0;-1.083695292E0
3.040533425E1;-1.990606189E0;-2.569950819E0;-7.367238402E-1
3.041534625E1;-1.007724047E0;-2.375695705E0;-5.278079510E-1
3.042542425E1;-5.117014647E-1;-1.948089957E0;-3.830328882E-1
3.043542625E1;-1.628973335E-2;-1.819808245E0;-4.025805593E-1
3.045529925E1;8.016588688E-1;-1.729400277E0;-6.878546476E-1
3.046541525E1;1.062498331E0;-1.632272720E0;-8.106385469E-1
3.047580625E1;1.218268991E0;-1.507656097E0;-9.144856334E-1
3.049539125E1;1.436347842E0;-8.576955199E-1;-9.346442223E-1
3.050539625E1;1.644042015E0;-5.064480305E-1;-9.682418108E-1
3.052566525E1;2.195653200E0;1.630602926E-1;-1.099577785E0
3.054534925E1;2.691064835E0;7.861428261E-1;-1.216863871E0
3.055571325E1;2.749707937E0;1.117231846E0;-1.132564425E0
3.057566625E1;1.762549877E0;5.698965192E-1;-3.127833903E-1
3.059572725E1;-3.993022442E-1;-4.215377569E-1;1.410895139E-1
3.061531025E1;-1.891646028E0;4.061846435E-1;2.125607431E-1
3.062544325E1;-2.415157557E0;1.950696297E-2;3.316794634E-1
3.064545325E1;-2.538552523E0;-1.225803047E-2;4.226983786E-1
3.066538525E1;-5.953899622E-1;-1.429465413E0;1.649132520E-1
3.067555025E1;6.904813647E-1;-1.818586588E0;-1.020348594E-1
3.069537625E1;1.471778035E0;-2.334156752E0;-8.259102106E-1
3.070544825E1;9.293296933E-1;-2.484429598E0;-1.207700849E0
3.071635725E1;-1.647299826E-1;-1.254147053E0;-1.294443727E0
3.073599125E1;6.862053275E-2;5.998289585E-1;-2.278731018E-1
3.075560900E1;1.062498331E0;-3.115819991E-1;-2.463822253E-3
3.077611719E1;7.405723333E-1;6.645806432E-1;3.292360008E-1
3.078651822E1;2.072869539E-1;9.559633732E-1;2.938058078E-1
3.080566924E1;9.580403566E-1;2.999918461E0;-9.287187457E-2
3.082567950E1;2.148616552E0;4.740884781E0;-6.829677224E-1
3.084542731E1;2.796744585E0;4.493484020E0;-1.022608757E0
3.086537177E1;2.690454006E0;2.601023436E0;-7.776518464E-1
3.088535413E1;1.719178438E0;1.474587917E0;-1.979406923E-1
3.089542419E1;1.222545028E0;1.475809693E0;1.514742225E-1
3.090545622E1;8.004370928E-1;1.720766664E0;4.575176835E-1
3.091555073E1;5.945755243E-1;2.054299116E0;6.029036045E-1
3.093558162E1;7.790568471E-1;2.519167423E0;3.023579121E-1
3.095553684E1;1.315396547E0;2.612019062E0;1.966782510E-1
3.096600505E1;1.513316870E0;2.711590052E0;9.710721672E-2
3.097602515E1;1.536529779E0;2.542380333E0;5.923356861E-2
3.099579547E1;1.772323728E0;1.720766664E0;1.661349833E-1
3.101549656E1;1.902438045E0;1.108068824E0;3.335120380E-1
3.102550440E1;1.816305995E0;7.604864836E-1;2.834210992E-1
3.104547754E1;1.791871428E0;2.504140139E-1;1.600263268E-1
3.106542357E1;2.020334959E0;4.593299329E-1;1.441438347E-1
3.107549641E1;1.973909259E0;6.285396218E-1;1.374243200E-1
3.109557904E1;1.380148292E0;9.687915444E-1;2.406605482E-1
3.111579070E1;8.273152113E-1;9.596285820E-1;2.846428156E-1
3.113583086E1;4.381940067E-1;7.329975367E-1;2.919732034E-1
3.115554040E1;3.563381359E-2;6.578611135E-1;2.980818748E-1
3.117643204E1;-2.948442996E-1;1.581733674E-1;2.223345935E-1
3.119584445E1;-1.045597672E0;2.522466183E-1;-2.694119513E-1
3.121543955E1;-1.834224701E0;-3.073059618E-1;-3.726481795E-1
3.123547707E1;-2.738916159E0;-7.410202622E-1;-6.970176101E-1
3.125535621E1;-3.469511032E0;-1.185730219E0;-4.893234372E-1
3.126535923E1;-3.642385960E0;-1.293853283E0;-8.981755376E-2
3.127545424E1;-3.667431355E0;-1.103874207E0;2.406605482E-1
3.129657750E1;-3.538538933E0;-1.307658851E-1;4.281961620E-1
3.131569981E1;-3.409646273E0;3.365460336E-1;2.993035913E-1
3.133551914E1;-3.097494125E0;3.964108229E-1;4.335107282E-2
3.135544772E1;-2.881247759E0;-1.234355047E-1;2.125607431E-1
3.136575399E1;-2.905682325E0;-6.078516245E-1;4.013181031E-1
3.138719443E1;-1.907528520E0;-4.001818657E0;4.123136699E-1
3.140615430E1;-1.737097144E0;-5.421469688E0;7.878125459E-2
3.142574751E1;-2.401107788E0;-3.627358675E0;-1.588453203E-1
3.144550207E1;-2.544050217E0;-1.748947978E0;-3.616526127E-1
3.146608195E1;-2.133548737E0;-1.810645342E0;-3.243898153E-1
3.148574118E1;-1.245350599E0;-2.448388577E0;-8.554149419E-2
3.150552148E1;-1.836668104E-1;-2.161892891E0;-1.698409021E-1
3.152546756E1;4.724024236E-1;-1.892501235E0;-3.915849924E-1
3.153571490E1;5.902994871E-1;-1.609059811E0;-5.076494217E-1
3.155585841E1;6.220644712E-1;-8.381478190E-1;-5.778989196E-1
3.157573579E1;1.297681451E0;-3.421252668E-1;-7.874256968E-1
3.159549914E1;2.036828279E0;1.312952936E-1;-1.161885977E0
3.161544972E1;2.595159054E0;1.064086556E0;-1.385462642E0
3.162548198E1;2.617761135E0;1.371351719E0;-1.323765278E0
3.164541593E1;1.980628848E0;8.435641527E-1;-7.770409584E-1
3.165604209E1;1.339220285E0;6.593272090E-2;-1.667865664E-1
3.167561521E1;-9.020443261E-2;-6.939836740E-1;7.317962050E-1
3.169542924E1;-1.644245625E0;1.276300997E-1;2.858645618E-1
3.170574024E1;-2.195246220E0;4.208454192E-1;2.394388169E-1
3.172554375E1;-2.165313721E0;-5.559281111E-1;4.507981837E-1
3.173931950E1;-7.682648301E-1;-1.444737077E0;5.179933310E-1
3.175542425E1;-7.682648301E-1;-1.444737077E0;5.179933310E-1
3.176548525E1;2.036225051E-3;-1.299961925E0;4.049832821E-1
3.177603825E1;-9.814567864E-2;-1.548584104E0;2.247780561E-1
3.179542725E1;-1.189761877E0;-1.606616378E0;2.595973611E-1
3.180585325E1;-5.074253678E-1;-5.504302979E-1;5.129231885E-2
3.182547325E1;1.024013758E0;7.775907516E-1;-6.408179998E-1
3.183571325E1;1.322726846E0;9.987239838E-1;-5.931705236E-1
3.184677025E1;1.222545028E0;9.235875010E-1;-3.372179866E-1
3.186538525E1;8.163195848E-1;8.337903023E-1;-3.178535402E-2
3.188570925E1;1.769269347E0;2.798332930E0;-5.656815767E-1
3.190533225E1;2.001398087E0;3.844134331E0;-9.664092064E-1
3.191552525E1;1.965357184E0;3.610172987E0;-8.753902912E-1
3.192563625E1;1.887777209E0;3.112317801E0;-7.226739526E-1
3.194535525E1;1.947642088E0;2.183802605E0;-4.966537952E-1
3.195562425E1;2.224363804E0;1.921741366E0;-4.233499765E-1
3.197555525E1;1.706961155E0;2.254662991E0;-4.196847975E-1
3.199535725E1;1.094263315E0;2.013982058E0;-2.877379060E-1
3.201540725E1;1.204219103E0;2.150204897E0;-1.246368736E-1
3.202548725E1;1.359378815E0;2.491678715E0;-7.454591990E-2
3.204537925E1;1.835242867E0;2.431813717E0;1.812234521E-3
3.206541625E1;1.868840456E0;1.732983947E0;1.341867447E-2
3.208548525E1;1.848070979E0;1.004832625E0;6.473135203E-2
3.210530225E1;1.885944605E0;3.328808248E-1;-5.518148653E-3
3.211556425E1;1.871894717E0;3.050253727E-2;-6.232861429E-2
3.213569525E1;1.841351509E0;8.670213819E-2;-9.165014327E-2
3.215538625E1;1.809586525E0;9.535199404E-1;-8.309803158E-2
3.216542125E1;1.741780519E0;1.367686510E0;-6.355034560E-2
3.218538625E1;8.578584790E-1;1.158770680E0;1.814066172E-1
3.220538725E1;3.459533453E-1;5.106425881E-1;3.133535087E-1
3.221539125E1;1.620829254E-1;5.130860806E-1;3.756617606E-1
3.223540725E1;-2.013819069E-1;8.771617413E-1;4.599611461E-1
3.225531225E1;-2.869030535E-1;6.847392321E-1;4.324722290E-1
3.226539825E1;-3.504330218E-1;3.744196594E-1;3.115209043E-1
3.228531125E1;-9.081529975E-1;2.394184470E-1;1.708386652E-2
