"Time (s)";"Linear Acceleration x (m/s^2)";"Linear Acceleration y (m/s^2)";"Linear Acceleration z (m/s^2)"
2.865993700E-2;-2.752196789E-2;4.894113541E-2;1.493797302E-1
4.009209300E-2;-7.353425026E-2;1.281037331E-1;4.032897949E-1
5.086717100E-2;-5.700385571E-2;1.069943905E-1;3.450803757E-1
6.121121000E-2;-2.954542637E-2;5.710697174E-2;1.800260544E-1
7.137073000E-2;-1.783430576E-2;3.469991684E-2;1.030912399E-1
8.143949000E-2;-2.897381783E-3;5.805969238E-3;1.697158813E-2
9.171687000E-2;3.644347191E-3;-7.403612137E-3;-2.122497559E-2
1.017940600E-1;1.045107841E-2;-2.099514008E-2;-5.975341797E-2
1.216142020E-1;1.430952549E-2;-2.760148048E-2;-7.965755463E-2
1.415804880E-1;-2.304625511E-2;4.107499123E-2;1.343936920E-1
1.515953690E-1;-4.857265949E-2;8.749032021E-2;2.824344635E-1
1.616528090E-1;-4.965817928E-2;9.716224670E-2;2.978534698E-1
1.717495290E-1;-1.756501198E-2;3.850102425E-2;1.123209000E-1
1.923130690E-1;1.641035080E-3;-4.754543304E-3;-1.402664185E-2
2.117747040E-1;-5.527043343E-2;1.368572712E-1;4.233474731E-1
2.316506130E-1;-3.380763531E-2;8.311581612E-2;2.463035583E-1
2.417214310E-1;8.816242218E-3;-1.941132545E-2;-5.680751801E-2
2.616785450E-1;1.592588425E-2;-2.920579910E-2;-9.168624878E-2
2.816038230E-1;-3.080582619E-2;5.587959290E-2;1.850643158E-1
3.017041430E-1;-4.899215698E-2;1.446824074E-1;4.526243210E-1
3.215772230E-1;-4.015552998E-2;1.028215885E-1;3.210468292E-1
3.418152430E-1;-3.354597092E-2;6.191825867E-2;2.119026184E-1
3.618217480E-1;-4.260528088E-2;7.033514977E-2;2.444038391E-1
3.817073740E-1;-1.607263088E-2;3.132271767E-2;1.061258316E-1
4.016652810E-1;6.234848499E-2;-1.460072994E-1;-4.515676498E-1
4.215772570E-1;6.116104126E-2;-1.238791943E-1;-3.721418381E-1
4.315977530E-1;-3.297019005E-2;6.914925575E-2;2.212610245E-1
4.516166250E-1;-6.040519476E-2;3.048799038E-1;8.628416061E-1
4.717198430E-1;1.677668095E-2;-5.998921394E-2;-2.034320831E-1
4.817300460E-1;8.886110783E-2;-2.440493107E-1;-9.216547012E-1
5.017989490E-1;1.313693523E-1;-2.506375313E-1;-8.205862045E-1
5.217424240E-1;2.870905399E-2;-6.578230858E-2;-1.944684982E-1
5.317528370E-1;-4.007804394E-2;9.032678604E-2;2.755155563E-1
5.516671460E-1;-7.122385502E-2;1.813962460E-1;6.149816513E-1
5.618366980E-1;1.098287106E-2;-3.232026100E-2;-1.356201172E-1
5.718649740E-1;3.788524866E-2;-1.450058222E-1;-7.050104141E-1
5.917431810E-1;1.059635878E-1;-3.515508175E-1;-1.452159882E0
6.115917320E-1;1.379101276E-1;-1.880764961E-1;-9.177274704E-1
6.217729910E-1;-5.311866999E-1;1.047448874E0;-5.139760971E-1
6.417869350E-1;-4.942286015E-2;2.515596151E-2;8.984956741E-1
6.616104210E-1;9.424649179E-3;-1.291006804E-1;1.668229103E0
6.815880420E-1;-7.858678699E-2;-4.466055334E-2;2.045825958E0
6.916106460E-1;-4.070420563E-2;-2.063810825E-2;1.973052979E0
7.016129480E-1;5.882583559E-3;-5.871806294E-3;2.396655083E0
7.217766740E-1;-1.560354978E-2;-8.952182531E-2;1.726609230E0
7.317954620E-1;-8.825972676E-3;-6.134849787E-2;6.063156128E-1
7.516903030E-1;-6.698153913E-3;1.309323311E-1;-8.807659149E-1
7.715867630E-1;1.138865352E-1;8.226004243E-2;-1.462198257E0
7.816275060E-1;5.983862281E-2;1.409981400E-3;-1.133171082E0
7.916283780E-1;1.523870230E-2;-2.901032567E-2;-9.845762253E-1
8.115740320E-1;1.073583961E-3;5.127906799E-3;7.825374603E-2
8.315584450E-1;-9.099267423E-3;5.063867569E-2;2.373759270E0
8.416538470E-1;-4.043291509E-2;6.785701960E-3;2.280864716E0
8.617576490E-1;-1.919215918E-2;-3.152105212E-2;6.433725357E-1
8.817018490E-1;7.292568684E-2;1.841118336E-1;-1.166498184E0
9.017621490E-1;1.517888308E-1;1.063286066E-1;-9.101133347E-1
9.216524740E-1;5.455696583E-2;1.065132022E-2;-2.786655426E-1
9.316648620E-1;2.699577808E-2;4.607319832E-3;-1.777486801E-1
9.418870560E-1;-1.011478901E-2;-3.608167171E-3;6.506061554E-2
9.617157010E-1;-2.656712383E-2;1.166310310E-1;2.794625282E0
9.817593620E-1;-1.227297783E-1;7.653161883E-2;1.941270828E0
1.001598528E0;4.930335283E-2;-2.892347574E-1;-1.802296638E0
1.021561819E0;-6.773387194E-1;-1.525388479E0;-3.407569408E0
1.031578534E0;-9.310703278E-1;-9.510989785E-1;-1.328925133E0
1.041592392E0;-1.450347006E-1;-5.280272961E-1;-1.749620438E-1
1.061796035E0;-2.545189261E-1;-1.473288536E-1;5.237674713E-1
1.081691196E0;6.642026305E-1;-3.873240948E-2;5.142822266E-1
1.101934486E0;-9.270681441E-2;-6.831029654E-1;-2.521429062E-1
1.121705809E0;-7.850930691E-1;-1.269734383E0;-1.388580322E0
1.141774889E0;-1.531915665E0;-1.049604416E0;9.697885513E-1
1.161619909E0;-5.808165073E-1;-1.327909708E0;1.034307480E0
1.181602664E0;3.099080324E-1;-8.566761017E-1;3.431730270E-1
1.191782957E0;2.231657505E-1;-3.945350647E-1;4.993906021E-1
1.201794603E0;-2.514696121E-1;-4.291265011E-1;1.807651520E-1
1.222668588E0;-1.225623131E0;-4.841815233E-1;-4.696035385E-1
1.232715919E0;-1.396095634E0;-7.514249086E-1;-1.553659439E-1
1.251976667E0;-3.203586340E-1;-1.439049125E0;8.390607834E-1
1.273238854E0;-3.294639587E-1;-4.212796688E-1;1.579274178E0
1.292028401E0;-3.489122391E-1;-4.764772654E-1;4.467840195E-1
1.311771037E0;-4.652512074E-2;-6.668913364E-2;-3.670969009E-1
1.321966643E0;-3.179302216E-1;-6.969702244E-2;-5.238666534E-1
1.341677848E0;-4.319631457E-1;-2.842427492E-1;-6.687803268E-1
1.361610399E0;3.166970015E-1;-4.132390022E-2;8.492078781E-1
1.381959037E0;2.349600792E-1;-6.620061398E-2;6.276760101E-1
1.392069643E0;-9.653890133E-2;-7.446951866E-1;-1.136178970E-1
1.411678598E0;-3.474564552E-1;-1.275784492E0;-5.021915436E-1
1.421783924E0;1.510739326E-2;-1.410694599E0;9.996566772E-1
1.441611668E0;-9.470058680E-1;-1.683558822E0;-1.293543816E0
1.461646604E0;8.440241814E-1;7.062572241E-1;1.716647148E0
1.481592088E0;5.011799335E-1;-7.487237453E-2;8.865613937E-1
1.491602169E0;-1.783416271E-1;2.009249926E-1;-9.336948395E-2
1.501603209E0;-2.046580315E-1;-1.321405172E-1;-9.936056137E-1
1.511606729E0;-7.601261139E-3;-4.823896885E-1;-1.393389702E0
1.521610989E0;-3.071942329E-1;-9.760071635E-1;-1.300246239E0
1.541595184E0;-2.238433361E-1;-7.949051857E-1;7.940635681E-1
1.551718717E0;-1.552922726E-1;-4.395951033E-1;1.175505638E0
1.571585366E0;-2.816705704E-1;-7.435532212E-1;9.712123871E-1
1.581683308E0;-3.192520142E-1;-5.126235485E-1;2.777156830E-1
1.601696764E0;-3.104953766E-1;-1.384230852E-1;-8.890104294E-1
1.621670628E0;2.615005970E-1;-1.549559832E-1;1.732495308E0
1.641668844E0;7.209587097E-2;1.601696014E-3;7.956533432E-1
1.661605398E0;-4.538631439E-1;-2.821279168E-1;8.262348175E-2
1.681671537E0;-1.432950497E-1;5.069804192E-2;3.170557022E-1
1.693733393E0;2.957558632E-2;2.058200836E-1;9.085607529E-1
1.711539250E0;2.213761806E-1;4.370099306E-1;1.823699951E0
1.721583250E0;4.094350338E-1;5.001744032E-1;1.770581245E0
1.731615250E0;4.062614441E-1;5.659787655E-1;1.289821625E0
1.751525250E0;-3.335187435E-1;1.690120101E-1;3.598852158E-1
1.762174250E0;-5.268502235E-1;-6.875693798E-3;2.930316925E-1
1.772532250E0;-7.244539261E-1;-1.523017883E-1;4.940452576E-1
1.791675250E0;-1.097548604E0;-4.884887636E-1;2.818479538E-1
1.811576250E0;-7.528886795E-1;3.604835272E-2;9.706134796E-1
1.831535250E0;-6.252455711E-2;5.140338540E-1;6.254053116E-1
1.841657250E0;-7.270979881E-2;4.450474977E-1;3.238677979E-1
1.861550250E0;-2.352240086E-1;3.983722925E-1;-4.676923752E-1
1.871612250E0;-3.101048470E-1;3.739655614E-1;-7.165355682E-1
1.891527250E0;-5.429983139E-1;3.412592411E-2;-5.169744492E-1
1.901585250E0;-4.589133263E-1;-5.257767439E-2;1.434545517E-1
1.921555250E0;-1.352572441E-1;1.089900136E-1;7.749023438E-1
1.931706250E0;-1.210582256E-1;1.438163519E-1;5.667228699E-1
1.951646250E0;-1.143081188E-1;2.447134256E-1;1.265468597E-1
1.971562250E0;-3.589017391E-1;8.963012695E-2;-5.922050476E-1
1.991629250E0;7.800102234E-3;3.992986679E-1;-4.140548706E-1
2.011830250E0;-2.139520645E-1;1.144493818E-1;-2.816228867E-1
2.031582250E0;-2.286677361E-1;9.235614538E-2;-2.844057083E-1
2.041614250E0;-1.697149277E-1;1.184456348E-1;-1.156501770E-1
2.061578250E0;-6.159710884E-2;2.071670294E-1;1.628370285E-1
2.081693250E0;9.747862816E-2;4.046302438E-1;1.875171661E-1
2.101761250E0;9.842419624E-2;5.267308950E-1;-2.255191803E-1
2.121578250E0;-2.009725571E-2;5.864789486E-1;-7.403383255E-1
2.141920250E0;-1.927025318E-1;3.302366138E-1;-6.224870682E-1
2.161512250E0;-1.518299580E-1;3.979127407E-1;-5.038490295E-1
2.171707250E0;1.345367432E-1;5.099146962E-1;5.257892609E-2
2.191781250E0;-1.208386421E-1;1.542178988E-1;5.341405869E-1
2.211743250E0;-7.003545761E-2;4.004927278E-1;1.964788437E-1
2.225720250E0;5.413722992E-2;5.705493093E-1;1.164112091E-1
2.241542250E0;-4.186177254E-2;5.921174288E-1;-2.446441650E-1
2.251590250E0;-4.844331741E-2;3.944559693E-1;-5.204992294E-1
2.271581250E0;3.795459270E-1;4.476279020E-1;-1.802654266E-1
2.281616250E0;6.925444603E-1;5.556951165E-1;3.948564529E-1
2.291657250E0;7.769746780E-1;5.029237270E-1;7.716894150E-1
2.311591250E0;6.785418987E-1;2.116748691E-1;1.782218933E0
2.331632250E0;4.600300789E-1;-1.818512678E-1;2.708274841E0
2.341970250E0;3.552613258E-1;-2.583209276E-1;2.570013046E0
2.361598250E0;-1.212732792E-1;-3.992218375E-1;1.640406609E0
2.371784250E0;-3.487799168E-1;-4.777629673E-1;1.293223381E0
2.391637250E0;-6.828490496E-1;-6.566953659E-1;6.225576401E-1
2.411616250E0;-1.117738008E0;-7.922357321E-1;-5.146875381E-1
2.431729250E0;-7.237962484E-1;-4.309762716E-1;-7.644605637E-1
2.451537250E0;-2.981276512E-1;-2.585580945E-1;-5.554180145E-1
2.461550250E0;-2.520024776E-1;-4.772889614E-1;-4.362297058E-1
2.481816250E0;-2.766281366E-1;-8.396244049E-1;-1.105289459E-1
2.501548250E0;-2.478502989E-1;-1.058876753E0;2.242193222E-1
2.521704250E0;-7.971346378E-2;-1.100160241E0;7.946548462E-1
2.541762250E0;1.932315826E-1;-9.524805546E-1;1.535721779E0
2.551766250E0;4.065763950E-1;-8.683621883E-1;1.868533134E0
2.571596250E0;5.272387266E-1;-7.283373475E-1;1.670752525E0
2.581617250E0;3.254390955E-1;-7.148795128E-1;1.020714760E0
2.591866250E0;2.023291588E-1;-5.939632654E-1;3.030738831E-1
2.611553250E0;-3.210663795E-2;-3.397189379E-1;-1.793977737E0
2.621723250E0;-1.620410681E-1;-3.738191128E-1;-2.302522182E0
2.641615250E0;-3.131934404E-1;-7.192625403E-1;-1.946511269E0
2.662013250E0;-3.473809958E-1;-9.444774985E-1;-1.047556877E0
2.683032250E0;-4.481314421E-1;-1.135051370E0;-7.956743240E-1
2.701625250E0;-1.365027428E-1;-8.151910901E-1;-7.338590622E-1
2.721705250E0;9.264266491E-2;-4.755555391E-1;-8.601646423E-1
2.741646250E0;1.366465092E-1;-3.057575822E-1;-8.319826126E-1
2.751973250E0;1.686029434E-1;-2.864884734E-1;-1.012084961E0
2.771844250E0;-1.112580299E-2;-6.032456756E-1;-7.959823608E-1
2.791630250E0;-3.150928020E-1;-1.083274484E0;-4.210624695E-1
2.811494250E0;5.002688169E-1;-3.931676745E-1;9.723758698E-2
2.821567250E0;5.521937609E-1;-1.424933076E-1;-2.263736725E-1
2.831764250E0;4.368739128E-1;-1.298914552E-1;-5.112161636E-1
2.851526250E0;3.980970383E-2;-1.795418262E-1;-1.186316490E0
2.861655250E0;-1.310830116E-1;-2.567188740E-1;-1.380215645E0
2.871693250E0;-2.212721109E-1;-3.924346566E-1;-1.255951881E0
2.891691250E0;-1.821720600E-2;-2.517417669E-1;-1.515998840E-1
2.901705250E0;1.839641333E-1;4.027968645E-2;-2.686977386E-2
2.911783250E0;2.311726809E-1;2.708150148E-1;-7.249450684E-2
2.921872250E0;1.977361441E-1;3.475044966E-1;-2.282228470E-1
2.941560250E0;-3.180623055E-2;4.406870604E-1;-2.665309906E-1
2.951577250E0;-2.417314053E-2;4.182010889E-1;-2.487545013E-1
2.961600250E0;1.386228800E-1;5.324496627E-1;-2.761392593E-1
2.971635250E0;2.893677950E-1;7.687070370E-1;-2.302036285E-1
2.991886250E0;1.884727478E-1;5.478324890E-1;1.921463013E-1
3.011693250E0;2.637481689E-2;2.798897922E-1;4.057826996E-1
3.031805250E0;2.138221264E-1;1.974476576E-1;9.226150513E-1
3.051589250E0;4.159972668E-1;3.165445924E-1;1.538334846E0
3.061685250E0;3.874478340E-1;3.533802032E-1;1.320905685E0
3.071867250E0;1.996703148E-1;3.705144823E-1;7.982568741E-1
3.091541250E0;-4.807329178E-2;7.422852516E-2;-6.759843826E-1
3.101723250E0;-9.880471230E-2;-1.286028475E-1;-1.122673035E0
3.121620250E0;9.085702896E-2;-8.448226750E-2;-7.551088333E-1
3.141650250E0;5.201313496E-1;9.216149151E-2;-3.514299393E-1
3.151693250E0;1.009512901E0;1.793620735E-1;6.272182465E-1
3.171732250E0;1.048469305E0;-1.950399727E-1;1.828667641E0
3.191808250E0;-3.538188934E-1;-1.125992894E0;1.740474701E0
3.211558250E0;-9.891591072E-1;-1.354394674E0;1.147624016E0
3.231521250E0;-1.111127496E0;-1.790958881E0;1.999382019E0
3.241576250E0;-9.060083628E-1;-1.753491402E0;2.483542442E0
3.261678250E0;-3.632385731E-1;-1.462351441E0;2.005085945E0
3.271778250E0;-1.062633991E-1;-1.127157927E0;1.255905151E0
3.291829250E0;5.406572819E-1;-3.656090796E-1;-3.632545471E-3
3.311506250E0;5.800516605E-1;3.399351239E-2;-7.843084335E-1
3.321577250E0;5.272204876E-1;1.332069337E-1;-9.087295532E-1
3.331901250E0;3.468213081E-1;1.448168457E-1;-8.849639893E-1
3.351638250E0;-1.391661167E-1;-1.123310626E-1;-6.949739456E-1
3.371550250E0;-6.075966358E-1;-5.574904680E-1;1.555299759E-1
3.381605250E0;-8.253661394E-1;-7.023031712E-1;3.775968552E-1
3.401570250E0;-8.275438547E-1;-5.595288277E-1;-8.600997925E-1
3.411611250E0;-5.407619476E-1;-2.508300245E-1;-1.244976997E0
3.421691250E0;-2.483897209E-1;-2.893468738E-2;-1.659626007E0
3.432033250E0;-1.855640411E-1;1.083156466E-2;-1.887727261E0
3.451748250E0;-1.278452873E-1;-1.585015059E-1;-1.254459381E0
3.471854250E0;-4.130532742E-1;-5.992909074E-1;-1.255423546E0
3.491986250E0;-5.435380936E-1;-7.858680487E-1;-1.354228020E0
3.512131250E0;-2.476387024E-1;-5.523691177E-1;-9.888782501E-1
3.531654250E0;3.871347904E-1;4.116004705E-2;-3.877286911E-1
3.551640250E0;3.474116325E-1;3.182773590E-1;-1.172217369E0
3.561805250E0;1.338009834E-1;3.673107624E-1;-1.617766857E0
3.581631250E0;-5.337874889E-1;2.219410837E-1;-2.204452515E0
3.591926250E0;-1.582081556E0;-7.806743383E-1;-2.177443027E0
3.611554250E0;-1.525616527E0;-8.006720543E-1;-1.627154350E0
3.621599250E0;-1.178163528E0;-7.699125409E-1;-1.128016472E0
3.631946250E0;-9.900588989E-1;-7.823650837E-1;-6.618804932E-1
3.651560250E0;-5.761830807E-1;-4.221526384E-1;-8.994741440E-1
3.661750250E0;-3.292484283E-1;-1.902051568E-1;-1.315651894E0
3.681626250E0;8.176631927E-1;8.232283592E-1;-1.159034729E0
3.691824250E0;1.988212585E0;1.330377817E0;3.037691116E-1
3.711607250E0;2.258058071E0;1.511180401E0;1.521180153E0
3.732259250E0;1.289719105E0;1.059709430E0;1.212797165E0
3.751802250E0;1.220803261E-1;3.207406998E-1;8.489823341E-1
3.771537250E0;1.015574932E0;5.209943056E-1;1.638983250E0
3.791507250E0;1.255834103E0;4.501131177E-1;1.241386890E0
3.801872250E0;1.266595364E0;5.062485337E-1;1.132558823E0
3.821487250E0;1.217983723E0;7.241606712E-1;-2.055706978E-1
3.831543250E0;1.622933865E0;8.311745524E-1;-3.380570412E-1
3.853312250E0;2.473808289E0;1.035079241E0;6.296257973E-1
3.871534250E0;2.763254166E0;8.357961774E-1;1.993886471E0
3.891644250E0;1.727663517E0;1.368476152E-1;4.129819870E-1
3.911498250E0;1.570013046E0;-2.824579477E-1;-1.123507023E0
3.931726250E0;1.276891708E0;-2.442487478E-1;-4.577612877E-1
3.951647250E0;-1.717185974E-2;-1.244882941E0;1.075496674E0
3.971649250E0;-2.452149391E0;-2.369649887E0;1.110497952E0
3.991518250E0;-3.413411140E0;-1.732334971E0;1.123173714E0
4.011459250E0;-3.991957903E0;-2.119801998E0;-3.539299965E-1
4.024028750E0;-3.383555889E0;-1.725460172E0;5.338349342E-1
4.034583000E0;-3.478264809E0;-1.862806916E0;4.640827179E-1
4.055438187E0;-2.742539406E0;-9.701445103E-1;6.506991386E-1
4.066302718E0;-2.165294170E0;-1.859019279E0;2.700805664E-3
4.083154250E0;-2.111035824E0;-1.763818026E0;-3.164005280E-2
4.094825250E0;-6.417984962E-1;-1.445118427E0;1.585492134E0
4.112722250E0;3.546489239E0;2.741279602E-1;9.175181389E-1
4.131746250E0;4.812759399E0;1.528167725E-1;-2.730181932E0
4.142714250E0;4.203942299E0;2.333343029E-1;-4.177025795E0
4.161510250E0;-9.632778168E-2;-3.935105801E-1;-4.964276314E0
4.171714250E0;-1.966686249E0;-6.843388081E-1;-5.387067318E0
4.192280250E0;-1.067730904E0;-1.761136293E0;3.755993366E0
4.211526250E0;2.176049709E0;6.212093830E-1;6.168479919E-1
4.224615250E0;3.045299053E0;2.755091906E0;-8.672919273E-1
4.238366250E0;3.465640545E0;3.530829668E0;-1.044017315E0
4.252302250E0;6.411800385E-1;1.100258470E0;-9.641885757E-1
4.263039250E0;-6.725602150E-1;2.086973190E-1;-2.468390465E0
4.283074250E0;-1.498306274E0;-1.588974953E0;-4.750843048E-1
4.302036250E0;-4.821395874E-1;-1.378813505E0;1.311114788E0
4.321637250E0;7.976789474E-1;7.516787052E-1;-2.266464233E-1
4.332391250E0;5.131397247E-1;5.253396034E-1;-1.642183781E0
4.352268250E0;-5.951786041E-2;7.499504089E-1;-2.862342834E0
4.371538250E0;-2.352349758E0;-1.357041597E0;-3.705258608E0
4.391509250E0;-5.268035889E0;-4.369301319E0;-4.357260704E0
4.401553250E0;-1.548729420E0;-2.106142044E-1;1.720516682E-1
4.411861250E0;-6.138167381E-1;1.028719902E0;6.933856010E-1
4.431499250E0;1.487325191E0;3.215012550E-1;2.315968990E0
4.451606250E0;8.720946312E0;-2.207760811E-1;-1.499996066E0
4.471484250E0;1.085253620E1;-5.371780396E-1;-1.556776524E0
4.481514250E0;5.931385994E0;-1.863743782E0;-1.732596040E0
4.501529250E0;-3.970125914E0;-4.686159611E0;-2.348820686E0
4.511630250E0;-4.328708649E0;-4.404647827E0;1.138987541E-1
4.531699250E0;4.172977924E0;-7.801580429E-2;-7.885936499E-1
4.551509250E0;5.593760967E0;2.696590424E0;-1.237995148E0
4.561589250E0;5.562291145E0;2.556871891E0;-1.624904275E0
4.581525250E0;-1.920471191E-1;-4.342508316E-1;-1.732536316E0
4.601622250E0;-5.693475246E0;-8.921313286E-1;-9.924737215E-1
4.621576250E0;-5.968196392E0;-2.505402088E0;-2.151643276E0
4.641628250E0;-8.604850769E-1;5.030138969E0;-5.164706707E-1
4.661516250E0;-3.015241146E0;4.444365025E0;2.040463686E0
4.681508250E0;-4.519815922E0;6.144477844E0;2.542879581E0
4.701665250E0;-4.196266651E0;7.453955173E0;1.293384433E0
4.721495250E0;-3.838819742E0;7.830446243E0;1.084768057E0
4.731521250E0;-3.588343620E0;8.006156921E0;8.921364546E-1
4.741583250E0;-3.391835451E0;7.992519855E0;8.961018920E-1
4.761518250E0;-2.866461992E0;7.832777977E0;1.369248390E0
4.771690250E0;-4.991204262E0;-8.948595047E0;-1.927977562E1
4.791640250E0;-1.426837826E1;-2.959764099E1;5.724622250E0
4.811550250E0;2.381404877E1;1.746275711E1;5.959877014E0
4.831588250E0;-5.416226387E-1;5.536345482E0;5.168068886E0
4.851595250E0;-2.493950844E0;1.117724419E0;1.453091145E0
4.861642250E0;-6.015982032E-1;1.059326172E0;-1.666670740E-1
4.881803250E0;2.145283520E-1;-2.676925659E-1;6.488438845E-1
4.901612250E0;3.716942370E-1;8.319082260E-1;2.096706867E0
4.912870250E0;-2.946019769E-1;1.289388657E0;1.925967455E0
4.938079250E0;-5.348110795E-1;3.915418148E0;1.296606302E0
4.951051250E0;-1.235418320E0;3.910970211E0;2.000313997E0
4.961878250E0;-1.156046748E0;3.695084095E0;1.980936527E0
4.971928250E0;-7.337281704E-1;3.605737686E0;2.038610220E0
4.991997250E0;-1.091044188E0;2.812565804E0;1.161058664E0
5.002952250E0;-2.185917854E0;-2.975702286E-1;-4.451251030E-2
5.022060250E0;-1.547936320E0;8.397436142E-1;-5.185225487E0
5.042727250E0;-7.906758189E-1;9.983806610E-1;-2.623396158E0
5.061635250E0;-2.981752157E-1;2.248220444E-1;-2.856792450E0
5.081553250E0;-3.188843429E-1;-4.745864868E-1;-3.454533339E0
5.091759250E0;-5.421543121E-1;-8.844242096E-1;-3.546939373E0
5.111596250E0;-1.386227965E0;-1.315979004E0;-3.682568550E0
5.122504250E0;-1.843946099E0;-1.176232338E0;-3.501657009E0
5.141559250E0;-2.161880970E0;-6.290435791E-1;-3.231048346E0
5.161532250E0;-2.145631552E0;1.087174416E0;-1.617322445E0
5.172533250E0;-2.114885092E0;1.583967686E0;-7.656879425E-1
5.191531250E0;-2.732851982E0;-5.658149719E-3;1.318424225E0
5.201564250E0;-4.116586208E0;-3.762065887E0;1.902653217E0
5.221537250E0;-3.480950594E0;-7.093816757E0;2.742877245E0
5.231537250E0;-3.391284704E0;-8.013891220E0;3.929801464E0
5.241587250E0;-3.540676117E0;-7.310685158E0;3.371019363E0
5.251604250E0;-4.121466637E0;-4.168709755E0;3.650982380E0
5.271512250E0;-2.437711954E0;2.345670223E0;8.030431747E0
5.283222250E0;2.324394584E-1;5.921616554E0;9.231172562E0
5.301612250E0;4.309062004E0;8.769557953E0;9.488121033E0
5.311686250E0;4.234737396E0;5.539782047E0;5.466648579E0
5.331695250E0;2.927969933E0;-4.010713577E0;-1.293754578E0
5.351702250E0;8.734423637E0;-5.324580193E0;3.555510998E0
5.371703250E0;6.379933357E0;-9.126338959E-1;2.117488384E0
5.385593250E0;3.133184433E0;-4.566459656E-1;9.226500988E-2
5.401617250E0;-1.664060354E0;5.199012756E-1;-6.856389046E-1
5.411769250E0;-3.114773273E0;1.821184635E0;-4.085860252E-1
5.425235250E0;-3.327387571E0;2.946712017E0;-1.287824512E0
5.441589250E0;-3.921111584E0;2.238680840E0;-1.959767580E0
5.452024250E0;-3.202326059E0;2.359773636E0;-1.516141057E0
5.471516250E0;-1.169580579E0;2.068165779E0;-3.421054780E-1
5.481881250E0;-9.308596849E-1;1.380961418E0;3.623550534E-1
5.501603250E0;1.125453949E0;2.928228378E-1;-3.073369265E-1
5.521557250E0;2.101120949E0;-4.398918152E-1;-1.780950546E0
5.541564250E0;1.328214407E0;5.503034592E-1;-1.626073241E0
5.551863250E0;9.364185333E-1;1.082968712E0;-3.949773312E-1
5.571648250E0;8.581374884E-1;6.719484329E-1;-1.659652948E0
5.591517250E0;5.726778507E-1;7.278099060E-1;-2.166909695E0
5.601544250E0;4.670593739E-1;7.565097809E-1;-2.039511442E0
5.611683250E0;1.378359795E-1;5.985965729E-1;-1.989833474E0
5.631664250E0;-6.347117424E-1;-2.839221954E-1;-1.857330084E0
5.641675250E0;-9.139512777E-1;-8.698253632E-1;-2.043376923E0
5.661520250E0;-7.315304875E-1;-1.542548180E0;-4.302569866E0
5.671612250E0;-4.360313416E-1;-1.436412811E0;-5.147912025E0
5.691487250E0;4.016070366E-1;-1.499889374E0;-4.654201984E0
5.701605250E0;9.768238068E-1;-2.153631210E0;-3.378601074E0
5.721536250E0;1.717441916E0;-2.471238136E0;-1.904558182E0
5.741486250E0;1.138017893E0;-2.132997513E0;-2.473575115E0
5.751531250E0;2.215671539E-1;-2.168937683E0;-2.481228828E0
5.761534250E0;-3.761261702E-1;-2.370369911E0;-2.723839998E0
5.771823250E0;-1.177736759E0;-2.397199631E0;-3.342715740E0
5.791500250E0;-1.530588388E0;-1.872310638E0;-4.722394943E0
5.801535250E0;-1.079555154E-1;-2.101531982E0;-5.089570999E0
5.811710250E0;1.514277935E0;-1.610832214E0;-4.143673897E0
5.831550250E0;3.318528414E0;-1.351505280E0;-3.988121510E0
5.841587250E0;3.523198605E0;-1.847553253E-1;-4.757883549E0
5.851703250E0;3.454280376E0;1.071580887E0;-3.675317764E0
5.871546250E0;2.056767941E-1;2.315711975E-1;5.378010869E-1
5.881567250E0;-6.394580007E-1;-1.094725609E0;1.845039845E0
5.891576250E0;2.545815706E-1;-2.041697502E0;2.543502808E0
5.901620250E0;1.338437438E0;-2.835082054E0;2.716339827E0
5.921598250E0;8.322148323E-1;-4.224999428E0;3.327152491E0
5.932014250E0;2.922228575E-1;-4.419111252E0;3.517198086E0
5.951639250E0;-1.992608428E0;-4.702572823E0;2.909743786E-1
5.971682250E0;-3.556913733E-1;-3.097026825E0;1.280758142E0
5.982096250E0;2.614743710E-1;-2.246334076E0;1.267333508E0
6.001667250E0;-4.641746581E-1;-7.742500305E-1;2.908427238E0
6.012747250E0;-7.513077259E-1;-2.915344238E-1;3.897159576E0
6.032269250E0;-7.330463529E-1;1.341857910E-1;4.624886513E0
6.051667250E0;1.344395399E0;2.005691528E-1;4.202917099E0
6.061762250E0;2.551336765E0;2.380151749E-1;4.049615383E0
6.081656250E0;2.541610718E0;5.595111847E-1;4.659237385E0
6.101716250E0;1.709179163E0;2.524387836E0;4.461092949E0
6.113090250E0;1.276139736E0;4.851578236E0;4.629069328E0
6.131603250E0;4.850924015E-1;5.298236847E0;4.737201691E0
6.145803250E0;-1.320020556E0;5.502911568E0;5.038961887E0
6.162087250E0;-1.347991586E0;5.003188133E0;4.783530235E0
6.182282250E0;-1.997606158E-1;5.046870232E0;4.798795700E0
6.201594250E0;1.344576836E0;5.023434639E0;3.587167025E0
6.221557250E0;2.462939501E0;4.983378887E0;1.321785688E0
6.231563250E0;2.197183132E0;4.675724030E0;1.977078915E-1
6.241613250E0;1.128310561E0;4.094755650E0;-2.000348091E0
6.251681250E0;-1.720729470E-1;2.875737667E0;-4.395555973E0
6.271597250E0;-2.845088243E0;-1.732032776E0;-7.322423458E0
6.291570250E0;-4.066170216E0;-7.570726395E0;-7.423534393E0
6.303518250E0;-3.894651413E0;-1.086354828E1;-6.735359192E0
6.321585250E0;-3.513513327E0;-8.256870270E0;-8.573757172E0
6.341572250E0;-2.946987152E0;3.881387711E-1;-3.546921730E0
6.352948250E0;-1.279431581E0;2.604965210E0;-1.517406464E0
6.373407250E0;-1.906413794E0;3.074376583E0;1.928440094E0
6.391573250E0;-4.569940567E0;-9.890146255E-1;3.552724123E0
6.401600250E0;-5.200886726E0;-2.360413551E0;4.165895462E0
6.421575250E0;-4.577963352E0;-4.319144249E0;2.752768040E0
6.441637250E0;-1.973286271E0;-3.592741013E0;2.418758631E0
6.453318250E0;-9.479207993E-1;-3.131896019E0;-2.532768250E-1
6.471893250E0;4.772002220E0;2.012722492E0;6.320734978E0
6.491559250E0;4.454093456E0;4.573854446E0;7.145159245E0
6.501653250E0;4.436047554E0;4.535616398E0;4.889214516E0
6.511750250E0;4.969201565E0;4.145897865E0;4.419631481E0
6.531653250E0;5.878391266E0;-1.835404396E0;2.370518684E0
6.551606250E0;5.359117508E0;-7.083270073E0;2.129682779E0
6.561774250E0;5.903075218E0;-6.371285439E0;1.571725011E0
6.581563250E0;2.526160717E0;-2.047099113E0;1.142786890E-1
6.591598250E0;-3.768837154E-1;-1.808891296E-1;5.533996224E-1
6.602168250E0;-1.932935476E0;1.268342972E0;-9.985212237E-2
6.621591250E0;-2.533059120E0;3.509210587E0;-4.290443420E0
6.632398250E0;-2.615068197E0;3.814115047E0;-3.119977951E0
6.651608250E0;-2.835623503E0;2.715728283E0;-2.080770016E0
6.673376250E0;-3.755597472E-1;2.387993336E0;-7.242168188E-1
6.691660250E0;2.004443645E0;1.631983757E0;2.513719797E-1
6.711538250E0;2.297402620E0;3.732175827E-1;-5.353097916E-1
6.721559250E0;1.804760933E0;1.628265381E-1;-8.772691488E-1
6.732036250E0;8.653343916E-1;3.936758041E-1;-7.580051422E-1
6.743162250E0;5.737329721E-1;4.978942871E-1;-6.826169491E-1
6.762155250E0;4.074739814E-1;1.909475327E-1;-2.474983215E0
6.781607250E0;1.066097617E-1;3.010082245E-2;-4.001169682E0
6.791704250E0;-3.768319190E-1;-7.150745392E-2;-5.106429577E0
6.801886250E0;-4.047758877E-1;-4.949474335E-2;-5.772431374E0
6.821964250E0;-1.367818594E0;-6.398010254E-1;-1.867939234E0
6.841755250E0;2.919538617E-1;-1.559384346E0;-2.794201374E-1
6.861769250E0;4.413318038E-1;-2.834597588E0;-6.009472847E0
6.881612250E0;-3.123970032E-1;-3.125479698E0;-5.191285133E0
6.901646250E0;2.075104713E0;-1.411448479E0;-3.576001406E0
6.921662250E0;3.079325676E0;-1.261544228E0;-1.215896606E0
6.931778250E0;2.245100260E0;-3.495928764E0;-2.689552307E0
6.951925250E0;1.414411426E0;-4.258206367E0;-3.228076458E0
6.971553250E0;1.194181204E0;-3.134061813E0;-4.716420174E0
6.981564250E0;1.801982284E0;-1.872016907E0;-4.553483009E0
6.991733250E0;2.397054672E0;-1.250341415E0;-3.110538006E0
7.003341250E0;2.600860357E0;-5.639476776E-1;-2.421118975E0
7.013550250E0;1.982395649E0;-3.516960144E-2;-3.046647549E0
7.033158250E0;-4.855380654E-1;-9.316778183E-1;-1.650095463E0
7.043638250E0;-1.334100962E0;-1.784167290E0;1.114011765E0
7.061723250E0;-2.236886501E0;-2.383453369E0;3.623154879E0
7.072534250E0;-2.204086065E0;-2.675921440E0;2.323320150E0
7.091817250E0;-1.397158146E0;-3.230391502E0;1.369643569E0
7.111668250E0;-1.629500151E0;-4.687456131E0;2.338860989E0
7.121769250E0;-1.588174820E0;-4.317043304E0;9.471125007E-1
7.141562250E0;-1.257810593E0;-1.407205582E0;1.562298536E0
7.151595250E0;-1.457356572E0;-4.608612061E-1;2.139134407E0
7.171583250E0;8.478290439E-1;6.605091095E-1;3.783996582E0
7.181819250E0;1.352632046E0;5.876674652E-1;3.852503300E0
7.201575250E0;1.251729488E0;9.705066681E-1;3.683317900E0
7.211618250E0;1.783083320E0;1.346910477E0;4.319705963E0
7.221698250E0;1.849863529E0;1.732940674E0;5.034746647E0
7.241619250E0;1.710053205E0;2.638947964E0;3.657948017E0
7.251637250E0;1.614632249E0;3.265695095E0;3.321020365E0
7.271558250E0;1.625466585E0;4.400156021E0;3.622020960E0
7.287626250E0;1.436803579E0;4.725461960E0;4.028107643E0
7.301634250E0;6.504161358E-1;3.825408936E0;3.966829300E0
7.321799250E0;5.289873481E-1;4.665906906E0;3.941668510E0
7.332063250E0;2.531573772E-1;4.879274845E0;3.610130548E0
7.351758250E0;5.459096432E-1;5.600522995E0;3.137542963E0
7.371516250E0;1.176544666E0;5.943924904E0;1.707397819E0
7.383226250E0;8.889539242E-1;5.631762981E0;9.486013651E-1
7.401628250E0;-8.899116516E-1;4.297235966E0;-1.710668087E0
7.421595250E0;-3.802045107E0;7.058067322E-1;-4.959992886E0
7.431898250E0;-4.960819721E0;-1.739620209E0;-7.478228569E0
7.451566250E0;-5.041820526E0;-7.898579597E0;-6.468119144E0
7.461601250E0;-4.790071487E0;-1.147990894E1;-7.327836037E0
7.481548250E0;-5.133817196E0;-9.944684029E0;-9.703639984E0
7.492905250E0;-5.486475945E0;-5.445482254E0;-8.588759422E0
7.511522250E0;-4.687756538E0;8.794164658E-1;1.422317147E0
7.521552250E0;-4.735458374E0;-2.394978523E0;3.294632912E0
7.541528250E0;-4.136008263E0;-6.470631599E0;3.257649899E0
7.551813250E0;-4.789622307E0;-8.191577911E0;-1.848161936E0
7.571546250E0;-1.614675879E0;-5.453324318E0;1.247151732E0
7.581574250E0;2.227996826E0;1.907218456E0;7.066237926E0
7.601629250E0;9.869597435E0;1.398986530E1;1.784166718E1
7.621589250E0;4.801598072E0;7.235583305E0;4.701976776E0
7.641568250E0;2.083585978E0;-5.343333244E0;-4.633843422E0
7.651631250E0;3.381041050E0;-6.939003944E0;5.298752785E0
7.672056250E0;8.563330650E0;-1.976961136E0;5.585746765E0
7.691500250E0;3.272011995E0;-1.279075623E0;-8.554296494E-1
7.701584250E0;2.452810049E0;-2.713279724E-1;-2.695622683E0
7.711595250E0;2.187594652E0;3.980255127E-1;-1.981554985E0
7.731579250E0;8.409023285E-2;1.826019287E-1;1.985944748E0
7.751535250E0;-1.078055143E0;1.634939194E0;-3.523748875E0
7.766842250E0;-2.148134947E0;1.739614487E0;-3.965026140E0
7.781598250E0;-1.945142269E0;2.050335884E0;-1.494136810E0
7.791605250E0;-8.929828405E-1;2.415694237E0;-6.087099314E-1
7.811607250E0;9.855771065E-2;1.763571739E0;2.262754440E-1
7.821670250E0;1.033676624E0;1.240181923E0;2.275953293E-1
7.836937250E0;1.617050290E0;6.628713608E-1;-2.608896494E-1
7.851687250E0;9.812251925E-1;-3.011875153E-1;-1.555635452E0
7.861703250E0;4.965354204E-1;7.320022583E-2;-1.490447283E0
7.881930250E0;9.559601545E-2;4.587259293E-1;-1.304370522E0
7.902279250E0;7.530310750E-1;4.687662125E-1;-2.372985363E0
7.921596250E0;1.144366503E0;4.248580933E-1;-3.045462608E0
7.941602250E0;2.188360691E-1;-1.303138733E-1;-3.899053097E0
7.951621250E0;-5.724718571E-1;-5.050163269E-1;-4.101245880E0
7.961918250E0;-1.006817102E0;-8.087835312E-1;-2.999662399E0
7.981614250E0;-1.716403246E0;-1.723849297E0;-2.585383654E0
7.991674250E0;-1.238478899E0;-1.760807037E0;-5.417456627E0
8.011598250E0;-2.881655097E-1;-2.943026543E0;-6.888028145E0
8.021623250E0;7.397300005E-1;-2.540970802E0;-5.635492325E0
8.032781250E0;2.290502548E0;-1.587707520E0;-4.457478523E0
8.051646250E0;4.870783329E0;-3.765325546E-1;-1.355935335E0
8.072454250E0;2.526296854E0;-3.441034317E0;-2.906752586E0
8.091563250E0;-6.044352651E-1;-3.811203957E0;-5.338636398E0
8.103924250E0;-2.848204076E-1;-3.581318855E0;-3.651583672E0
8.121778250E0;2.211855412E0;-2.372494698E0;-5.065066338E0
8.141765250E0;3.657509327E0;5.343561172E-1;-3.241901636E0
8.161530250E0;1.255235910E0;1.123018265E0;-3.521082878E0
8.171583250E0;3.353062272E-1;-2.539424896E-1;-1.666574240E0
8.191601250E0;6.076873541E-1;-3.191219330E0;4.009988785E0
8.201624250E0;3.596338034E-1;-3.839939117E0;3.713924170E0
8.211713250E0;-2.835787535E-1;-3.923435211E0;2.688198090E0
8.231607250E0;-6.302574873E-1;-3.953136444E0;1.306147575E0
8.251641250E0;-9.946363568E-1;-4.169266701E0;2.237849236E0
8.271532250E0;6.548416615E-1;-3.292727470E0;1.719966769E0
8.281569250E0;7.049219012E-1;-2.906537056E0;2.364717722E0
8.291692250E0;1.020259380E0;-2.005493164E0;1.037634015E0
8.311974250E0;2.346081257E0;2.887573242E-1;3.157795429E0
8.331543250E0;1.906037688E0;2.505416870E-1;3.587048292E0
8.341985250E0;1.789375305E0;3.906202316E-1;4.108086586E0
8.361769250E0;2.519566298E0;1.216810226E0;4.554111481E0
8.381572250E0;2.062539339E0;2.582285404E0;3.701525688E0
8.391832250E0;1.473107696E0;3.084600925E0;3.586693525E0
8.403156250E0;1.256716251E0;3.441184998E0;3.979170322E0
8.421628250E0;5.546668768E-1;4.373096943E0;5.314755440E0
8.441588250E0;-6.773511767E-1;4.796477318E0;5.356645584E0
8.451597250E0;-1.338224411E0;4.847153187E0;5.464632988E0
8.462792250E0;-1.688636661E0;4.837957859E0;5.597113609E0
8.481590250E0;-1.777561069E0;4.847938061E0;5.180140495E0
8.501598250E0;-3.501155376E-1;5.674376011E0;3.498926401E0
8.511821250E0;-1.020489573E0;5.538114548E0;2.749002218E0
8.531601250E0;-2.121066809E0;4.549784184E0;8.488557339E-1
8.551725250E0;-3.526771545E0;1.733674049E0;-1.886960626E0
8.571531250E0;-5.202910423E0;-3.506681442E0;-9.878766060E0
8.581595250E0;-4.173833370E0;-6.826148987E0;-1.033867455E1
8.591649250E0;-3.104832411E0;-1.103157425E1;-1.070631695E1
8.612048250E0;-2.104018211E0;-1.457149029E1;-1.157910728E1
8.632027250E0;-3.061149597E0;-3.735312462E0;-8.364630699E0
8.651597250E0;-3.237367153E0;3.573348045E0;-4.795493603E0
8.671534250E0;-3.016126871E0;1.764139175E0;6.174819469E-1
8.681540250E0;-1.699750781E0;-7.233381271E-1;3.085246325E0
8.691570250E0;-6.453917027E-1;-1.385497093E0;3.142514944E0
8.701626250E0;-1.824739456E0;-3.498660088E0;1.056635380E-1
8.721624250E0;-2.761565149E-1;-6.959500313E0;7.055642128E0
8.741628250E0;-1.138992667E0;1.754903316E0;7.108914375E0
8.751638250E0;-1.026284575E0;6.897130013E0;1.224105549E1
8.761804250E0;-1.179559946E0;8.085975647E0;1.422039795E1
8.781590250E0;-1.044633389E0;5.609991550E0;2.739827633E0
8.791722250E0;-4.326215386E-2;2.281294346E0;-2.773628712E0
8.811653250E0;5.298535347E0;-3.026265144E0;2.848705292E0
8.821681250E0;7.461086273E0;-4.654334068E0;5.386825562E0
8.841659250E0;6.034328461E0;-6.157202721E0;3.262635946E0
8.861614250E0;4.839067936E0;-1.524652481E0;-2.437380254E-1
8.881556250E0;1.185085535E0;2.107830048E-1;-5.984995365E-1
8.891643250E0;-1.352631927E0;1.149469376E0;-5.113689899E0
8.901792250E0;-2.151115179E0;1.770622253E0;-2.618924141E0
8.921585250E0;-3.193697453E0;2.485380173E0;-4.808183908E-1
8.941604250E0;-2.802667141E0;2.185983658E0;6.283962727E-2
8.961585250E0;-4.348014593E-1;4.690637589E-1;-6.118699312E-1
8.971656250E0;1.557667613E0;1.520242691E-1;-1.559042692E0
8.991605250E0;2.239693642E0;2.594728470E-1;-2.400805712E0
9.001719250E0;1.473873377E0;7.511358261E-1;-2.665321112E0
9.021577250E0;6.326597333E-1;1.554725170E0;-3.305910349E0
9.032973250E0;8.243039250E-1;1.737673283E0;-3.146587372E0
9.051618250E0;1.429699898E0;1.071149826E0;-3.115487814E0
9.071579250E0;6.996421814E-1;3.824453354E-1;-4.277677536E0
9.081580250E0;-1.702506542E-1;-3.544597626E-1;-6.190011978E0
9.091820250E0;-6.255691051E-1;-7.812805176E-1;-7.064747810E0
9.102437250E0;-2.884787917E-1;-5.259313583E-1;-6.853931904E0
9.121597250E0;-1.772054434E-1;-1.701709747E0;-3.753591061E0
9.141599250E0;8.088771105E-1;-2.761866570E0;-4.474227905E0
9.151630250E0;1.379329443E0;-2.092017174E0;-5.479102612E0
9.172830250E0;2.527479410E0;-1.486669540E0;-3.874104261E0
9.194407250E0;1.662270069E0;-2.486942291E0;-3.580658913E0
9.211554250E0;-8.164330125E-1;-3.994995117E0;-5.668646812E0
9.221557250E0;3.114791512E-1;-4.164397240E0;-4.473621368E0
9.231624250E0;1.959168553E0;-3.752555847E0;-2.595467806E0
9.251586250E0;3.293766737E0;-2.441755295E0;-5.173432350E0
9.271631250E0;3.401860237E0;-6.050453186E-1;-2.203162909E0
9.281796250E0;4.055236578E-1;-1.595794678E0;-5.962707996E-1
9.301666250E0;-7.402012944E-1;-3.589457512E0;2.468782663E0
9.321622250E0;8.399436474E-1;-4.776026726E0;2.557701826E0
9.332772250E0;5.572596788E-1;-5.544370651E0;2.281668901E0
9.351599250E0;2.618680000E-1;-5.656126976E0;2.294411659E0
9.361656250E0;-2.863055468E-1;-5.798794746E0;1.883489609E0
9.371773250E0;-9.699353576E-1;-6.209878922E0;1.653389096E0
9.391544250E0;5.861862302E-1;-4.345977783E0;9.754272699E-1
9.401611250E0;-3.021713495E-1;-3.069545746E0;1.222816348E0
9.421621250E0;-4.556538463E-1;-6.138219833E-1;2.995763540E0
9.431745250E0;3.205195963E-1;3.080892563E-1;3.870557308E0
9.453687250E0;2.730600834E0;1.495402813E0;6.265589714E0
9.471557250E0;5.238165379E0;1.840387821E0;5.772490501E0
9.481593250E0;3.646738052E0;1.928118706E0;4.682668209E0
9.491598250E0;2.163269281E0;2.636569500E0;4.547405243E0
9.501830250E0;1.952304363E0;3.777611256E0;4.342872620E0
9.521563250E0;1.395226955E0;6.015635967E0;5.553256035E0
9.532690250E0;5.613354445E-1;6.579126358E0;5.692491055E0
9.551610250E0;-1.384809017E0;6.358211040E0;6.707281113E0
9.571557250E0;-1.330749989E0;6.257360458E0;6.295692444E0
9.581580250E0;-8.552366495E-1;5.842574120E0;5.957793236E0
9.591600250E0;-4.791122675E-2;5.714378357E0;5.434613228E0
9.601652250E0;6.638180614E-1;5.764205933E0;4.763081551E0
9.621863250E0;-3.599689901E-1;5.586533070E0;3.293122053E0
9.641559250E0;-9.677896500E-1;4.115476608E0;1.023517013E0
9.651623250E0;-2.179561853E0;2.406906605E0;-2.323393822E-1
9.661636250E0;-4.994755745E0;-7.865428925E-2;-3.319241047E0
9.671671250E0;-6.838764191E0;-5.292509079E0;-9.310798645E0
9.683724250E0;-4.758901596E0;-9.128613472E0;-7.624356747E0
9.701690250E0;-2.067591667E0;-1.711202240E1;-8.867797852E0
9.721854250E0;-2.046115160E0;-7.220104218E0;-9.195401192E0
9.732283250E0;-2.706093550E0;-2.373350143E0;-5.757225990E0
9.751643250E0;-3.139803886E0;3.483058453E0;-2.017287254E0
9.772119250E0;-1.158674121E0;2.505578995E-1;-1.692757607E-1
9.782243250E0;-5.896896720E-1;-1.299039841E0;1.101467729E0
9.802760250E0;-1.528313160E0;-2.839186668E0;-4.052120209E0
9.821618250E0;-1.359375715E-1;-5.811362267E0;-2.399292231E0
9.832379250E0;6.353050470E-1;-4.226957321E0;1.100233078E1
9.851618250E0;2.183447361E0;8.407624245E0;2.050432968E1
9.861667250E0;9.605150223E-1;9.997094154E0;1.696953392E1
9.881590250E0;-1.850797176E0;-7.788686752E-1;-1.590319252E1
9.891675250E0;3.893795013E-1;-4.217251778E0;-1.806045294E0
9.911552250E0;8.311895370E0;-2.426202774E0;9.634697914E0
9.932120250E0;6.968413353E0;-2.619131088E0;4.061897755E0
9.951667250E0;1.854134202E0;-3.781857491E0;-1.411073923E0
9.971701250E0;1.599486828E0;-4.753742218E-1;-1.208656728E-1
9.981977250E0;5.402471423E-1;1.675367355E-1;1.455717325E0
1.000246425E1;-1.364345670E0;1.186868668E0;1.008925676E0
1.001297425E1;-1.817618489E0;1.923453808E0;-2.251408339E0
1.003302725E1;-3.088785172E0;2.026372910E0;-4.280851483E-1
1.005162525E1;-2.563415289E0;1.312134743E0;1.560194492E-1
1.007160525E1;7.464358807E-1;1.924746513E0;-8.708575964E-1
1.008235425E1;1.389660835E0;1.720599174E0;-1.594411492E0
1.010169525E1;1.440140963E0;1.281237602E0;-1.214703083E0
1.012154425E1;1.442551613E0;1.141685486E0;-1.115632057E-2
1.013158225E1;1.813271403E0;1.107817650E0;-4.224216938E-1
1.014164125E1;2.142565012E0;1.094174385E0;-1.320285320E0
1.015166525E1;1.652421117E0;1.017395973E0;-2.146936178E0
1.016169125E1;9.856580496E-1;9.934215546E-1;-3.328770399E0
1.018162425E1;-2.182050943E-1;1.124181747E-1;-4.870880127E0
1.019163725E1;-5.766736865E-1;-3.375940323E-1;-5.093249321E0
1.020248825E1;-1.111528873E0;-7.504577637E-1;-4.713860035E0
1.022163525E1;-6.196464300E-1;-1.462592125E0;-5.582795143E0
1.023219825E1;-1.604955792E-1;-2.479042053E0;-5.604435921E0
1.025167125E1;1.238871098E0;-3.464249611E0;-5.046106815E0
1.027156025E1;4.074067593E0;-1.098585129E0;-2.478036642E0
1.028494325E1;4.285933495E0;-1.558667183E0;-1.921779394E0
1.030243825E1;1.867457986E0;-3.929342270E0;-5.479176521E0
1.032170125E1;1.810331583E0;-4.116508484E0;-4.057250023E0
1.033211025E1;2.175511837E0;-4.183358192E0;-2.627629995E0
1.035170725E1;1.839955211E0;-2.823335648E0;-5.621153831E0
1.037158525E1;2.813410997E0;2.669429779E-2;-3.117428303E0
1.038375725E1;1.431640387E0;8.795957565E-1;-2.893950939E0
1.040167525E1;-1.822402239E0;-8.544301987E-1;-8.979343176E-1
1.042156425E1;-1.834761858E0;-3.468400955E0;4.073835850E0
1.043267325E1;-1.169100285E0;-3.481096268E0;2.006995678E0
1.045156725E1;-9.822919965E-1;-4.784574509E0;1.120467663E0
1.046163025E1;-2.773075700E-1;-5.194748878E0;2.014408588E0
1.047184725E1;-1.359874129E0;-5.739065170E0;2.455780029E0
1.049154525E1;-1.521253586E0;-4.873397827E0;1.605956316E0
1.050177025E1;2.316253185E-1;-3.220778465E0;3.115389347E-1
1.052374225E1;3.166922033E-1;-1.111766815E0;1.999344945E0
1.054180425E1;8.488299251E-1;-3.639564514E-1;3.496050835E0
1.055309225E1;1.477501750E0;3.254013062E-1;4.169204712E0
1.057160025E1;2.760786295E0;1.235192299E0;5.792517662E0
1.058162025E1;3.083963156E0;1.694517612E0;5.428251266E0
1.060158725E1;2.363069534E0;2.365618706E0;3.974349737E0
1.061159625E1;1.962090492E0;2.886793137E0;3.580570221E0
1.063159525E1;2.196761847E0;4.583697796E0;4.508697987E0
1.064159525E1;1.980105400E0;5.335296154E0;5.166683674E0
1.065172525E1;3.045839071E-1;5.389607430E0;5.549010277E0
1.067154525E1;-4.571694732E-1;5.554004669E0;5.878422260E0
1.068228025E1;-5.060947537E-1;5.682425499E0;5.681369781E0
1.070172325E1;8.907192945E-2;5.598054886E0;4.869262695E0
1.072160225E1;1.012430429E0;5.860152245E0;3.893373013E0
1.073164325E1;6.939840913E-1;5.498749256E0;2.785298824E0
1.074226725E1;8.847790956E-2;5.144898891E0;1.772583723E0
1.075351325E1;-4.226841331E-1;4.424243927E0;4.545757771E-1
1.077224425E1;-2.419436932E0;1.660020828E0;-4.404294491E0
1.079222525E1;-6.632816315E0;-3.802443504E0;-1.142469215E1
1.080373525E1;-6.489737511E0;-7.326254845E0;-8.885015488E0
1.082159925E1;-3.420210361E0;-1.536132526E1;-8.069885254E0
1.084160925E1;-2.777017593E0;-7.644371033E0;-9.471952438E0
1.085171225E1;-3.364872456E0;-7.702732086E-1;-6.345674515E0
1.087184225E1;-5.152444839E0;-2.837605476E0;-2.643949986E-1
1.089156725E1;-1.730819225E0;-3.770537376E0;3.362339497E0
1.090161125E1;-1.690217853E0;-3.657826424E0;2.052897453E0
1.091169025E1;-1.468568563E0;-3.431932449E0;-4.818430424E0
1.093160425E1;-1.219159842E0;-1.177388191E0;-3.975040913E-1
1.094168225E1;1.073666930E0;4.308838367E0;6.960411072E0
1.096159625E1;5.693918228E0;1.223574543E1;2.164340973E1
1.098234025E1;3.298298359E0;6.947437286E0;5.460857391E0
1.100159525E1;-3.000102520E0;-5.039447784E0;-1.695544052E1
1.102158425E1;5.375655651E0;-3.771239281E0;8.800951958E0
1.103226025E1;7.795234203E0;-4.711256027E-1;9.282670021E0
1.105158925E1;4.007791996E0;-2.234683037E0;-8.128654957E-2
1.107159025E1;1.653430462E0;-2.734702110E0;-2.140799761E0
1.108159425E1;7.998653650E-1;-1.950145721E0;-7.623234987E-1
1.110156725E1;-3.401084542E-1;3.616447449E-1;1.219267726E0
1.111213425E1;-7.312006950E-1;1.545364380E0;-2.580226064E-1
1.112393025E1;-1.438100934E0;2.522421837E0;-1.615596890E0
1.113696125E1;-2.130897522E0;2.587002277E0;-1.909616709E0
1.115168025E1;-3.530017138E0;1.410463333E0;-1.406752467E0
1.117170725E1;-1.457174540E0;1.396834373E0;-5.735387802E-1
1.119153425E1;6.340843439E-1;1.347237587E0;-1.480259061E0
1.120156525E1;1.468995571E0;1.477854729E0;-2.359724998E0
1.121157225E1;2.101214409E0;1.443088531E0;-2.854815960E0
1.122158925E1;2.283821106E0;1.433805466E0;-2.356623888E0
1.123409825E1;1.465499043E0;1.682353973E0;1.208255291E-1
1.125181925E1;6.327638626E-1;1.319668770E0;-1.666086674E0
1.127157625E1;1.324567199E-1;-2.134675980E-1;-4.913852692E0
1.128346125E1;1.228414178E-1;-9.418992996E-1;-4.310256004E0
1.130162525E1;4.002103806E-1;-2.010043144E0;-3.457174063E0
1.131166425E1;4.150912166E-1;-2.102197647E0;-5.251838207E0
1.132324725E1;-1.912650764E-1;-1.912872314E0;-6.430538654E0
1.134162025E1;-2.243859053E0;-3.016402245E0;-5.475632668E0
1.135166325E1;-1.464537144E0;-3.086123466E0;-5.377554893E0
1.136173225E1;4.958674610E-1;-2.486201286E0;-5.065845490E0
1.138229925E1;4.985828400E0;-1.400120735E0;-3.622714281E0
1.140158325E1;5.262778282E0;-2.490121841E0;-3.709944248E0
1.141158925E1;3.936390638E0;-3.561277390E0;-4.362881660E0
1.142165525E1;3.264692783E0;-4.192794800E0;-4.675422668E0
1.143166825E1;2.453397512E0;-4.142551422E0;-3.864109993E0
1.145164525E1;1.357253790E0;-2.772817612E0;-5.116365433E0
1.147156225E1;2.755695343E0;1.133806229E0;-2.471273422E0
1.148160625E1;5.116957426E-1;9.632196426E-1;-3.217844486E0
1.150163725E1;-1.524051309E0;-1.485173225E0;1.311306477E0
1.152183925E1;-1.940847158E0;-4.135351181E0;3.806694031E0
1.154156325E1;-2.072638512E0;-5.510712624E0;2.405757666E0
1.155160825E1;-2.574072599E0;-6.359526634E0;8.568559289E-1
1.157155925E1;-2.975116491E0;-6.623718262E0;-1.434136629E-1
1.158252625E1;-3.275440216E0;-5.760365486E0;3.401297331E-1
1.160161725E1;-1.550760984E0;-1.432185173E0;2.189865112E0
1.162155325E1;9.651985168E-1;7.973718643E-1;2.564259529E0
1.163157925E1;1.598028898E0;6.846685410E-1;2.916592836E0
1.164159825E1;2.393364668E0;1.941318512E-1;4.429288387E0
1.166189025E1;3.302321672E0;8.734998703E-1;5.336993217E0
1.168154325E1;1.831095695E0;1.634019375E0;3.892903090E0
1.169157525E1;1.425044656E0;2.582140446E0;3.500114202E0
1.170165425E1;1.329561949E0;3.664057255E0;3.851537466E0
1.172181725E1;9.597823620E-1;5.046725750E0;5.518906116E0
1.173220225E1;8.696594238E-1;5.474929333E0;6.089572906E0
1.175569625E1;-4.082026780E-1;5.803025246E0;5.088417053E0
1.177173825E1;-1.043047905E0;4.886878014E0;5.368609428E0
1.178221625E1;-1.174081564E0;4.603758335E0;5.188710213E0
1.180340525E1;-8.257574439E-1;4.368869305E0;4.457571983E0
1.182155525E1;4.657549262E-1;4.685611725E0;3.168642282E0
1.183261025E1;3.269991577E-1;4.810905457E0;1.691074491E0
1.185166725E1;-2.067751169E0;3.209558964E0;-1.865629435E0
1.187163525E1;-4.400985718E0;5.147533417E-1;-5.240958214E0
1.189157725E1;-6.065984726E0;-4.792377472E0;-7.491428852E0
1.190163425E1;-4.911546707E0;-8.504203796E0;-8.349259377E0
1.191165725E1;-3.528835297E0;-1.280281830E1;-9.857543945E0
1.193312125E1;-2.194388866E0;-1.244668674E1;-9.727708817E0
1.195318125E1;-3.422194481E0;-2.914767265E0;-6.360867977E0
1.197158925E1;-3.972017527E0;2.819862366E0;-2.367602110E0
1.198334225E1;-4.356925964E0;2.068112373E0;-8.536317348E-1
1.200162825E1;-2.209709883E0;7.016305923E-1;9.542378187E-1
1.202163725E1;-1.588469744E-1;-1.233908653E0;1.586953521E0
1.204159825E1;-1.835973501E0;-3.718895912E0;1.146780396E1
1.205596125E1;-1.629436016E0;9.112348557E-1;9.384244919E0
1.207156525E1;2.954273224E0;6.861068726E0;5.937174320E0
1.208254725E1;4.158707619E0;7.069266319E0;3.706528664E0
1.210229225E1;2.951916695E0;1.572422504E0;4.321796894E-1
1.212157625E1;3.728948116E0;-2.852557182E0;4.034650803E0
1.213164025E1;5.421122551E0;-2.348447800E0;4.824942112E0
1.215154725E1;3.447582006E0;-2.649202347E0;2.843975067E0
1.217152325E1;2.425559759E0;-1.838221550E0;4.323416948E-2
1.218244825E1;2.231910229E0;-1.095158577E0;8.475977182E-2
1.220179025E1;-1.075109720E0;-3.519248962E-1;2.235433906E-1
1.222156925E1;-2.047657490E0;2.010180473E0;-2.233865023E0
1.224160825E1;-4.062005997E0;2.829257488E0;-6.538999081E-1
1.225161825E1;-3.280532837E0;2.390844345E0;2.211685181E-1
1.227163925E1;-5.013526678E-1;1.355756760E0;2.082435846E0
1.228166325E1;1.066966057E0;3.530540466E-1;1.857041240E0
1.230165525E1;2.707385540E0;-1.083564758E0;2.972474098E-1
1.232155625E1;2.184016228E0;-1.989212036E-1;-2.603745699E0
1.233708625E1;1.284371138E0;1.369779587E0;-4.822318077E0
1.235010125E1;1.168704510E0;1.056298256E0;-5.771851540E0
1.236198425E1;1.140659332E0;1.074791908E0;-5.705919266E0
1.238220225E1;1.009405136E0;-2.503623962E-1;-4.674960136E0
1.240159525E1;-2.460761368E-1;-1.112194061E0;-2.863447666E0
1.242160425E1;-5.996664166E-1;-1.173769951E0;-6.440891743E0
1.243227625E1;-2.197762728E-1;-2.162399292E0;-6.489471912E0
1.245160825E1;1.536485791E0;-1.854644775E0;-4.804957390E0
1.247158025E1;3.699244499E0;-9.102239609E-1;-3.790660858E0
1.248350125E1;4.551919937E0;-1.207624435E0;-2.944313526E0
1.250168225E1;3.286568165E0;-3.334890366E0;-5.232782364E0
1.252162725E1;2.606922388E0;-4.020809174E0;-4.759374619E0
1.253163625E1;1.786728382E0;-3.924400330E0;-2.944904327E0
1.255160625E1;2.090866089E0;-2.622693062E0;-3.786803484E0
1.256168625E1;2.870985270E0;-1.109469414E0;-2.466108322E0
1.258274225E1;-5.710666180E-1;-6.310682297E-1;-1.252753139E0
1.260191925E1;-2.912614584E0;-4.038641930E0;2.078536987E0
1.262164125E1;-2.692608833E0;-5.465508461E0;1.743966699E0
1.263168125E1;-1.852404118E0;-5.758007050E0;1.956959486E0
1.265160725E1;-1.702006817E0;-5.852052689E0;1.724128604E0
1.267157525E1;-2.467063665E0;-5.649519920E0;-3.855800629E-2
1.268159825E1;-1.461537600E0;-4.337010384E0;-2.384779453E-1
1.270161925E1;2.777202129E-1;-1.061753273E0;1.406488776E0
1.272155725E1;2.725847721E0;-2.305698395E-2;3.972174644E0
1.273172725E1;3.141136408E0;1.411247253E-2;5.344074249E0
1.275155625E1;3.185393333E0;3.803071976E-1;6.263616562E0
1.276194525E1;3.173036575E0;9.717903137E-1;6.017858505E0
1.278178125E1;1.932669163E0;2.440080166E0;4.299808025E0
1.279231225E1;1.536537528E0;3.037923813E0;3.830663204E0
1.281221725E1;1.778049707E0;5.783728123E0;6.066292763E0
1.282261625E1;1.194533348E0;6.139557362E0;6.606929779E0
1.284159925E1;-2.208677530E-1;6.588558197E0;6.439661026E0
1.285165525E1;-5.195178986E-1;6.294270515E0;6.288469315E0
1.287159525E1;-4.403265715E-1;5.414148808E0;5.848793983E0
1.288163825E1;3.224396706E-2;5.484405518E0;5.541385651E0
1.290251125E1;1.052654982E0;5.546416283E0;3.977856159E0
1.292156725E1;7.286873460E-1;5.183747768E0;1.986162663E0
1.293157625E1;-3.742396832E-3;4.416706085E0;2.768192291E-1
1.294158625E1;-1.310885310E0;3.023400307E0;-1.990813732E0
1.295161425E1;-3.084952831E0;1.047308922E0;-4.827160835E0
1.297153425E1;-7.636389732E0;-4.264476776E0;-1.166862488E1
1.298162325E1;-7.485976219E0;-7.601948738E0;-8.726044655E0
1.300160325E1;-3.850523233E0;-1.689217186E1;-7.903934479E0
1.302162925E1;-3.710129738E0;-3.496928215E0;-6.452797890E0
1.304159725E1;-3.954599380E0;2.694970131E0;-2.024827242E0
1.305195725E1;-4.274131298E0;2.664045334E0;-7.227742672E-1
1.307178325E1;-2.108485460E0;6.465024948E-1;9.461977482E-1
1.308187025E1;-1.482841492E0;-5.488071442E-1;-7.662420273E-1
1.310391725E1;-6.101099253E-1;-5.121410370E0;4.541611671E-2
1.312172325E1;3.664759159E0;-2.452534676E0;1.602546120E1
1.314156125E1;2.836170197E0;5.035155773E0;1.015104198E1
1.315721525E1;3.348339081E0;5.361837387E0;5.828914642E0
1.317171525E1;2.445092201E0;1.932918549E0;-8.696570396E-1
1.319162525E1;4.587575436E0;-6.712093353E-1;7.524325371E0
1.320176525E1;6.033356190E0;-8.119297028E-1;5.810949326E0
1.321179825E1;5.381655693E0;-2.658032417E0;4.543291092E0
1.323160525E1;3.536382675E0;-4.518198013E0;9.385083318E-1
1.324164225E1;2.734494686E0;-3.628379822E0;-8.340954781E-2
1.325498925E1;2.844547749E0;-2.281597137E0;9.790180922E-1
1.327153625E1;-7.009233832E-1;-1.119647980E0;1.134482741E0
1.328170425E1;-1.378236771E0;-3.112258911E-1;7.164192945E-2
1.330159325E1;-1.906844735E0;2.838869095E0;-2.189116955E0
1.332157325E1;-5.042847633E0;1.743013382E0;-2.807754517E0
1.333161325E1;-3.428608894E0;2.571315289E0;-1.645043373E0
1.335157225E1;-4.665361643E-1;3.490335941E0;6.745944023E-1
1.336159025E1;8.149499893E-1;3.109153748E0;1.320687413E0
1.337323825E1;2.617269993E0;1.630916595E0;1.379440188E0
1.338411925E1;3.035579920E0;1.136986732E0;8.590099812E-1
1.340160625E1;2.794711590E0;1.023473740E0;-1.504416108E0
1.342161825E1;1.938264132E0;1.481718063E0;-4.259915352E0
1.343580325E1;1.251055479E0;1.364820480E0;-4.820919037E0
1.345163625E1;1.463575661E-1;1.968250275E-1;-3.767869949E0
1.346175225E1;-3.755331039E-1;-4.678535461E-1;-2.379381657E0
1.347590225E1;-9.647693634E-1;-1.141700745E0;-2.343933582E0
1.349157625E1;-1.599815845E0;-2.041398048E0;-6.958509922E0
1.350208425E1;-1.747505784E0;-2.724121094E0;-7.166258335E0
1.351242125E1;-1.213351846E0;-3.102061272E0;-6.204355717E0
1.353158325E1;2.605734348E0;-2.437411308E0;-5.044356346E0
1.354160525E1;5.129796028E0;-1.620552063E0;-3.763655186E0
1.356156725E1;6.699217319E0;-1.668908119E0;-1.784070730E0
1.358161425E1;2.781581402E0;-3.730141640E0;-5.102249622E0
1.360168325E1;-2.257401645E-1;-3.899689674E0;-4.038823605E0
1.362158825E1;2.772025347E0;-1.867174149E0;-5.656036377E0
1.363176925E1;4.221892834E0;-9.780693054E-2;-3.933217049E0
1.365164225E1;1.810755610E0;1.620274544E0;-2.008086920E0
1.367156725E1;-1.783865094E0;-1.203823090E0;1.405687451E0
1.368159425E1;-2.021153212E0;-3.301033974E0;3.661384583E0
1.370165725E1;-1.561809301E0;-5.495669365E0;3.790643692E0
1.372157725E1;-1.993006945E0;-7.183327675E0;2.536125898E0
1.373233025E1;-2.408291101E0;-7.897122383E0;2.585208178E0
1.374908225E1;-3.485701561E0;-7.274267197E0;8.926806450E-1
1.376171825E1;-2.952110767E0;-5.870568275E0;4.674457312E-1
1.378191225E1;-1.491129398E0;-1.811176300E0;1.006202459E0
1.379244225E1;9.676482677E-1;3.597354889E-2;3.255100727E0
1.380272425E1;1.801306844E0;2.121829987E-1;4.101830959E0
1.382160825E1;2.033699512E0;4.432010651E-1;5.517457008E0
1.384153825E1;3.209923983E0;8.862552643E-1;6.452370167E0
1.385158625E1;2.742962122E0;1.246827126E0;5.565787315E0
1.387366425E1;1.752154350E0;2.958288193E0;4.290488243E0
1.389151725E1;1.990934014E0;4.903162479E0;6.117118835E0
1.390171825E1;1.923454762E0;5.792351723E0;6.629806995E0
1.392173225E1;1.069891334E0;6.521181107E0;6.246087074E0
1.393240125E1;4.068065882E-1;6.503840446E0;5.985678673E0
1.395160225E1;2.558325529E-1;6.022128105E0;5.797658920E0
1.396163825E1;2.552189231E-1;5.953082085E0;5.577619076E0
1.398155025E1;4.401549101E-1;5.969798088E0;4.493509769E0
1.400164925E1;-1.462512016E-1;5.253232002E0;1.938151836E0
1.402178425E1;-1.722457409E0;2.762100220E0;-1.576329708E0
1.404166225E1;-6.081442833E0;-2.091337204E0;-9.008206367E0
1.405179325E1;-7.166410923E0;-4.706861496E0;-1.059551430E1
1.407156425E1;-7.060365200E0;-1.335071850E1;-6.162615776E0
1.409193125E1;-4.144626617E0;-1.373263454E1;-1.017638206E1
1.410197825E1;-4.348672867E0;-8.045042992E0;-8.865208626E0
1.412153225E1;-5.043568611E0;-9.594135284E-1;-2.864091396E0
1.413166925E1;-6.033241272E0;-3.179283142E-1;1.208009839E0
1.414192725E1;-5.490141869E0;-8.337488174E-1;5.476541519E-1
1.416152225E1;-5.429010391E0;-3.993642807E0;3.232524633E0
1.417203925E1;-6.328311920E0;-6.550403595E0;-4.288402081E0
1.419151725E1;5.052791595E0;4.116098404E0;1.169288445E1
1.420160725E1;1.094474220E1;1.195516491E1;2.059215164E1
1.421167625E1;1.082193470E1;1.345920181E1;2.051345444E1
1.423167925E1;4.283916950E0;5.784162045E0;4.003130913E0
1.424168825E1;1.679100990E0;-3.762989044E-1;-9.583726883E0
1.426152725E1;3.143633604E0;-6.940695763E0;8.310158730E0
1.427153025E1;8.146854401E0;-4.412309647E0;9.432931900E0
1.428153325E1;8.607305527E0;-3.030633926E0;5.582321167E0
1.429176425E1;5.021904469E0;-3.277464867E0;1.174775600E0
1.431159325E1;2.988274813E0;-2.022402763E0;-1.785162210E0
1.432175825E1;2.277502537E0;-1.645064354E0;-1.585647821E0
1.434155525E1;-5.417677760E-1;-4.366970062E-1;9.733832479E-1
1.435168125E1;-1.225574732E0;5.571746826E-1;2.353817463E0
1.436171425E1;-1.436723709E0;1.630411148E0;2.268221378E0
1.437215025E1;-1.968364000E0;1.887923241E0;-7.347486019E0
1.438230325E1;-4.290375233E0;1.377398491E0;-4.626929283E0
1.440161025E1;-1.866092801E0;2.100695133E0;-7.234346867E-1
1.441176525E1;-3.567820191E-1;2.497577190E0;-5.019760132E-2
1.443184025E1;5.805809498E-1;2.467687607E0;-1.047047377E-1
1.445174325E1;1.222620726E0;1.670524597E0;-1.029084086E0
1.447156625E1;1.382425666E0;1.161838531E0;-1.043576717E0
1.448167225E1;1.141899586E0;1.006068230E0;-5.445418358E-1
1.449187325E1;9.064703584E-1;8.492116928E-1;-7.885464430E-1
1.451154725E1;1.118168354E0;9.649019241E-1;-2.841473103E0
1.452168425E1;1.026626587E0;9.136877060E-1;-3.487816811E0
1.454156625E1;6.318858862E-1;6.766262054E-1;-3.678269386E0
1.455160725E1;1.521490216E-1;1.160602570E-1;-4.250780106E0
1.457155825E1;-1.141485929E0;-6.956090927E-1;-6.167840004E0
1.458182925E1;-1.563370228E0;-1.457336426E0;-3.664412737E0
1.460161725E1;-1.946041584E-1;-3.534534454E0;-5.807127953E0
1.462155525E1;1.720126629E0;-2.566884041E0;-5.764844894E0
1.463164825E1;3.349207878E0;-1.731904984E0;-4.421116829E0
1.465174725E1;4.632719994E0;-2.512923241E0;-2.437099218E0
1.466182725E1;3.059971809E0;-4.008923531E0;-4.009715080E0
1.468346525E1;3.779298067E-2;-4.830169678E0;-6.161622524E0
1.470169425E1;2.051520348E0;-4.065801620E0;-3.275260448E0
1.472167925E1;3.333147049E0;-1.440421104E0;-5.860172272E0
1.473229925E1;4.215767860E0;3.267250061E-1;-4.244338512E0
1.475198425E1;1.444410324E0;1.745688915E0;-1.740270138E0
1.476204925E1;-6.584827900E-1;-5.070867538E-1;-1.221299410E0
1.478204025E1;7.181279659E-1;-4.592803955E0;4.240274906E0
1.480198725E1;1.712201834E-1;-6.243888855E0;1.275558352E0
1.482211425E1;4.826834202E-1;-5.529365540E0;2.308531761E0
1.484154325E1;-1.063061714E0;-5.192522049E0;1.886218309E0
1.485158525E1;2.501707077E-1;-4.351235390E0;1.729516149E0
1.486166825E1;-4.315117598E-1;-3.855652809E0;1.113937378E0
1.488153525E1;-1.821635604E0;-2.277855873E0;2.277264595E0
1.489163725E1;-5.365453362E-1;-1.124743462E0;3.071132421E0
1.491153825E1;2.482127190E0;6.779508591E-1;4.401550293E0
1.492159925E1;3.727244854E0;1.246616364E0;5.072186947E0
1.494166425E1;3.584441900E0;1.163356781E0;6.687586308E0
1.495175125E1;2.906110048E0;1.563930988E0;5.525101662E0
1.497181725E1;1.832800746E0;4.591606140E0;4.790194511E0
1.499154125E1;1.870916843E0;6.490289688E0;6.400147438E0
1.500178225E1;1.195479393E0;6.811414719E0;5.930299282E0
1.502163325E1;-4.321956635E-1;6.206798553E0;6.654401779E0
1.504152025E1;-5.188704729E-1;5.454388618E0;6.990208626E0
1.505153525E1;-4.921529293E-1;5.283523560E0;6.838262558E0
1.506165525E1;-5.495373607E-1;5.246143341E0;6.399231911E0
1.507184525E1;-6.626110673E-1;5.350960732E0;5.383284569E0
1.509166125E1;-1.284512877E0;5.281043530E0;3.185982704E0
1.511151725E1;-1.006901503E0;3.772525311E0;2.680954933E-1
1.512159525E1;-2.814459562E0;1.519283295E0;-1.657492399E0
1.514152825E1;-8.135540962E0;-4.446084976E0;-1.255341721E1
1.515158425E1;-7.345995426E0;-7.389970779E0;-8.541951180E0
1.517156925E1;-3.331458092E0;-1.596513271E1;-9.757545471E0
1.518158025E1;-3.611513615E0;-9.874680519E0;-1.125844955E1
1.520171625E1;-3.957862139E0;-1.637862206E0;-5.122324467E0
1.521171625E1;-3.577026129E0;6.972999573E-1;-1.144090652E0
1.523203625E1;-1.388664961E0;-7.580089569E-2;1.245449543E0
1.525155525E1;-3.405046463E-1;-7.381334305E-1;2.736533880E0
1.527163925E1;-5.835660696E-1;-4.678504944E0;-1.234905815E1
1.528173325E1;-7.648819685E-1;-6.505253792E0;-6.336064339E0
1.529189025E1;6.699568629E-1;-3.672532082E0;7.033324718E0
1.531153325E1;4.223110199E0;9.869752884E0;2.264126205E1
1.532170125E1;3.451455832E0;1.096612358E1;1.895704651E1
1.534150725E1;1.358852625E0;5.679990768E0;3.816099167E0
1.535165225E1;-2.323059797E0;1.715450287E-1;-9.317147255E0
1.537161125E1;7.077002525E0;-2.788690567E0;8.849832535E0
1.539151825E1;7.662539959E0;-2.020047188E0;4.104663849E0
1.540161425E1;4.384904385E0;-2.839634895E0;8.266986609E-1
1.541184025E1;2.586425066E0;-2.680048943E0;-1.345776796E0
1.543600725E1;8.654451966E-1;-4.906368256E-1;-2.846013904E-1
1.545161425E1;-7.013216019E-1;9.389572144E-1;8.132277727E-1
1.547165225E1;-2.891113281E0;1.870685101E0;-3.458621502E0
1.549163325E1;-3.842726231E0;1.330286026E0;-1.179804325E0
1.550169625E1;-3.031760693E0;1.775528431E0;-2.167144418E-1
1.552172325E1;-1.053132415E0;2.473536491E0;5.471160412E-1
1.554159925E1;3.447577953E-1;1.691896915E0;-1.061295271E0
1.556159225E1;1.762587786E0;9.493589401E-1;2.779238224E-1
1.557160725E1;1.485997915E0;8.852005005E-1;7.209300995E-1
1.558171525E1;1.114487648E0;1.114274025E0;5.624389648E-2
1.560161325E1;7.024087906E-1;1.022210121E0;-2.537349463E0
1.561182125E1;6.869564652E-1;7.453546524E-1;-3.799605608E0
1.563241725E1;1.720947623E-1;-1.594209671E-1;-5.440937042E0
1.565188325E1;-1.636058092E-1;-1.497307777E0;-5.216749191E0
1.567193525E1;-4.173260033E-1;-2.063895226E0;-4.702869415E0
1.569162825E1;2.256999016E-1;-2.550824165E0;-6.210675240E0
1.570164625E1;1.126179099E-1;-3.176290512E0;-6.197336197E0
1.572179625E1;1.816229939E0;-2.320216179E0;-5.462073326E0
1.573192025E1;3.512283087E0;-1.076684952E0;-4.617225170E0
1.575160625E1;4.147742271E0;-1.556816101E0;-3.264720917E0
1.576160825E1;1.056292534E0;-4.496376991E0;-5.106649876E0
1.577321225E1;4.549759626E-1;-4.852910995E0;-5.117194176E0
1.579161725E1;7.118896246E-1;-4.266705513E0;-2.904187918E0
1.580170925E1;1.425325871E0;-3.063689232E0;-4.362493515E0
1.581267825E1;2.839522839E0;-1.582441330E0;-4.406717777E0
1.583165625E1;3.281290054E0;2.026391029E0;-1.655515075E0
1.585176225E1;6.371390820E-2;-1.401982307E0;-1.560311317E-1
1.587153925E1;-8.785353303E-1;-5.300247192E0;4.442720890E0
1.588157225E1;-1.047901750E0;-5.021072388E0;4.230582237E0
1.590197625E1;-1.518639445E0;-5.290795326E0;1.110471249E0
1.592159325E1;-1.739176273E0;-5.496410370E0;1.909446001E0
1.594158825E1;-2.050539494E0;-5.349692345E0;1.211529255E0
1.596167025E1;-4.354526103E-1;-1.852816582E0;1.438527822E0
1.598166825E1;3.698439300E-1;-2.061176300E-1;3.347600698E0
1.599168525E1;2.038008451E0;3.126192093E-1;3.688399792E0
1.601168825E1;3.667517662E0;1.936178207E-1;4.649165630E0
1.602172625E1;3.299138546E0;2.214698792E-1;5.796486378E0
1.603182525E1;3.685392857E0;1.025379181E0;6.047557831E0
1.605163325E1;2.377279758E0;2.427355766E0;4.718050957E0
1.607219325E1;1.856548309E0;4.462295055E0;4.904748917E0
1.609161925E1;1.513995171E0;6.708823204E0;6.080847740E0
1.611153825E1;-2.207243443E-1;6.516063690E0;5.746479988E0
1.613158525E1;-8.567557931E-1;6.048378944E0;6.336934090E0
1.614159925E1;-1.074726582E0;5.560712814E0;6.120235443E0
1.615192425E1;-4.249165654E-1;5.229820251E0;5.490022182E0
1.617156425E1;-2.620344460E-1;5.650843620E0;4.026774406E0
1.618156825E1;-1.007981181E0;5.311567307E0;3.000763655E0
1.619156925E1;-1.289718628E0;4.908241749E0;1.966874123E0
1.620159425E1;-1.441289186E0;3.960686684E0;8.235353231E-1
1.622153525E1;-4.762465954E0;-7.901048660E-1;-4.554229259E0
1.623173825E1;-7.069480896E0;-4.191096306E0;-1.198380470E1
1.625155625E1;-6.229274750E0;-1.101073170E1;-8.840854645E0
1.627179625E1;-3.035670280E0;-1.621018028E1;-9.121665955E0
1.628185225E1;-2.588695049E0;-1.079908466E1;-1.059477425E1
1.630173425E1;-3.252820253E0;-8.850440979E-1;-6.078009605E0
1.632160525E1;-3.670320988E0;4.096096039E0;-1.207082033E0
1.633218825E1;-2.794184923E0;3.416511059E0;7.591257095E-1
1.635164425E1;3.439325392E-1;2.184104919E-1;-7.858359814E-1
1.637177125E1;9.482749701E-1;-2.839550018E0;-6.381105423E0
1.639158625E1;-4.462848008E-1;-6.434673309E0;1.279913235E1
1.640181125E1;-9.306704402E-1;-3.448612213E0;1.300837708E1
1.642155425E1;7.130880952E-1;5.744611740E0;1.243934059E1
1.644157525E1;1.585851759E-1;4.753058434E0;3.444035769E0
1.646171625E1;-8.125016093E-2;-1.312923431E-2;-3.609526634E0
1.647177925E1;2.733671665E0;-7.137870789E-1;4.121846199E0
1.648239125E1;5.452642441E0;-8.913269043E-1;6.047169209E0
1.650153925E1;6.372510910E0;-1.404201508E0;3.908448219E0
1.651173625E1;4.294202805E0;-2.106461525E0;1.347065210E0
1.653157825E1;2.200576782E0;-1.785808563E0;-1.356981635E0
1.654159225E1;-5.693891644E-1;-2.106428146E-1;4.690209627E-1
1.655164125E1;-1.386826038E0;6.089010239E-1;7.458294630E-1
1.656170225E1;-2.886904240E0;1.294462204E0;-2.768938839E-1
1.657194525E1;-3.955888987E0;2.222777843E0;-2.870941162E0
1.659150425E1;-3.830537319E0;3.651427269E0;-1.499908328E0
1.660155125E1;-4.148182869E0;2.792267799E0;-7.795563936E-1
1.662171325E1;-1.297357321E0;9.756698608E-1;1.767647982E0
1.663182025E1;7.535026073E-1;6.656837463E-1;1.736593008E0
1.665156125E1;2.293750763E0;5.835914612E-2;6.052590609E-1
1.666162525E1;2.640281200E0;2.123165131E-2;5.694704056E-1
1.667165425E1;2.612168074E0;1.153097153E-1;-2.993822098E-3
1.668214725E1;2.300580502E0;5.572233200E-1;-8.218027353E-1
1.670185325E1;7.284460068E-1;1.290042877E0;-2.586642027E0
1.672182625E1;9.404975176E-2;3.483905792E-1;-4.969071388E0
1.674160925E1;-6.324739456E-1;-1.494524002E0;-6.058506966E0
1.675306425E1;-5.198491812E-1;-1.347615242E0;-4.947349072E0
1.677158825E1;2.723017931E-1;-1.118540764E0;-6.343645096E0
1.678176925E1;7.712610960E-1;-1.522335052E0;-6.846003532E0
1.679178725E1;8.898404241E-1;-2.232866287E0;-6.593771935E0
1.681155225E1;2.919000149E0;-2.031299591E0;-6.568418026E0
1.682162825E1;4.911012650E0;-1.088963509E0;-5.298214912E0
1.684156925E1;5.643873692E0;-1.747262001E0;-1.735779881E0
1.685163325E1;3.527752399E0;-3.614066124E0;-2.428543568E0
1.687158025E1;-1.365332603E0;-3.047334671E0;-3.404316187E0
1.689172025E1;-5.063829899E0;-3.765175819E0;-5.076705933E0
1.691166825E1;5.304421782E-1;-2.114392281E0;-4.140554905E0
1.693192525E1;2.072600842E0;1.537775993E0;-4.349935532E0
1.695160425E1;2.088795900E-1;1.468005180E0;1.456617117E-1
1.697149625E1;-7.659304142E-1;-3.578756332E0;4.075734138E0
1.698154425E1;-1.509346962E-1;-5.365596771E0;4.763935566E0
1.699177825E1;-7.548636198E-1;-5.959156990E0;4.072340488E0
1.701169925E1;-3.217910290E0;-7.127946854E0;5.537257195E-1
1.703155025E1;-3.937529325E0;-6.796566010E0;1.842576742E0
1.704157925E1;-3.903317451E0;-6.107371330E0;9.685902596E-1
1.705169225E1;-3.426836967E0;-4.867963791E0;5.233885050E-1
1.706171325E1;-8.159108758E-1;-2.944329262E0;3.475811481E-1
1.708170425E1;-9.984991550E-1;-9.192838669E-1;1.838905215E0
1.710158325E1;1.365599513E0;1.316623688E-1;3.748963356E0
1.711163525E1;2.873482227E0;4.933652878E-1;3.905694246E0
1.713177925E1;3.004636049E0;6.552219391E-2;5.330174446E0
1.715163225E1;2.969460487E0;7.497358322E-1;5.052468777E0
1.716173725E1;2.711951733E0;1.527281761E0;4.161033154E0
1.717177525E1;2.370357513E0;2.444496632E0;4.199510574E0
1.719154225E1;2.410401106E0;5.383285522E0;6.258097649E0
1.720163025E1;1.960907936E0;6.206107616E0;6.205885887E0
1.721169625E1;9.160557985E-1;6.501511574E0;6.515325546E0
1.723180025E1;-4.460864067E-1;6.725125313E0;6.217285156E0
1.724223775E1;-6.891612411E-1;6.255311012E0;5.943292618E0
1.725376525E1;-1.004174590E0;5.949026108E0;5.480033875E0
1.727206225E1;-5.856775641E-1;5.719092369E0;4.633541584E0
1.728311025E1;4.878592491E-2;5.913022995E0;3.831483841E0
1.730160825E1;-3.853847980E-1;5.521603584E0;2.139090061E0
1.732157025E1;-1.465722322E0;2.238335609E0;-1.874101400E0
1.733171725E1;-6.924036503E0;-4.372899055E0;-1.111397171E1
1.735168925E1;-7.510116577E0;-1.189955425E1;-8.995392799E0
1.736425625E1;-4.823016167E0;-1.603952599E1;-7.993159294E0
1.738159625E1;-3.560544968E0;-9.753984451E0;-1.043715191E1
1.739168925E1;-3.789021730E0;-4.146236420E0;-9.369099617E0
1.740170325E1;-4.085902691E0;5.691413879E-1;-6.734284401E0
1.741170525E1;-2.960169077E0;4.320923328E0;-3.874808311E0
1.742337725E1;-1.976486206E0;5.923250675E0;-1.425982237E0
1.744164825E1;-1.984498024E0;2.757339478E-1;1.326872826E0
1.745278125E1;-9.160033464E-1;-1.532550812E0;-1.087585926E0
1.747245425E1;8.520695567E-1;-5.322850227E0;-8.575190544E0
1.749173525E1;2.252020836E0;-7.808019638E0;1.369824028E1
1.751161925E1;8.296481371E-1;2.739363194E0;1.496955395E1
1.752165825E1;1.071130484E-1;7.295022964E0;1.012442684E1
1.754158225E1;1.468554020E0;3.170300961E0;-6.522568703E0
1.755158225E1;1.126917362E0;-1.374516487E0;-2.122766256E0
1.757152625E1;5.359782696E0;-2.553807259E0;8.590926170E0
1.758156325E1;7.148903847E0;-1.260602951E0;7.250936031E0
1.759175725E1;4.934142113E0;-1.285407066E0;4.076695919E0
1.761153325E1;3.184973955E0;-9.066314697E-1;1.394037604E-1
1.763157125E1;6.621292830E-1;1.034803391E-1;5.084753036E-3
1.764162125E1;-3.398928046E-1;4.285650253E-1;1.102447510E0
1.765209525E1;-1.746707439E0;5.716590881E-1;1.459015727E0
1.767174425E1;-3.743495464E0;1.971244335E0;-3.031553268E0
1.769173725E1;-3.680854321E0;3.149274826E0;-2.449430943E0
1.771175425E1;-6.240569949E-1;2.178513050E0;3.354454041E-2
1.773160225E1;3.723209620E0;-2.420434952E-1;-5.826947093E-1
1.774161525E1;3.468850374E0;-2.274894714E-2;-1.454345345E0
1.775504825E1;2.747462273E0;3.640642166E-1;-1.906728625E0
1.777162525E1;2.254594088E0;1.115809441E0;-2.323932886E0
1.778313325E1;2.018268108E0;1.227198601E0;-1.870693326E0
1.780162425E1;1.023956656E0;-1.267290115E-1;-1.382767200E0
1.781165825E1;9.296897054E-1;-5.845146179E-1;-2.374686241E0
1.782167725E1;7.635183930E-1;-7.188749313E-1;-3.823480606E0
1.784156525E1;-6.277304888E-1;-1.226866722E0;-3.318877220E0
1.785157125E1;-1.229861856E0;-1.227355957E0;-2.632229567E0
1.787180125E1;-2.208754539E0;-5.409746170E-1;-5.208467484E0
1.789151625E1;-9.891335368E-1;-1.749900818E0;-6.185454369E0
1.790153125E1;2.373250723E-1;-2.631478310E0;-5.113831520E0
1.791170825E1;1.580038786E0;-2.401006699E0;-3.696373224E0
1.793171525E1;5.810799122E0;-1.235543251E0;-3.938909531E0
1.794177725E1;5.619933605E0;-2.018563271E0;-4.125451088E0
1.796161025E1;2.869940996E0;-2.343325615E0;-3.879052162E0
1.797207325E1;8.485103250E-1;-2.560483932E0;-4.014674664E0
1.799295625E1;-1.453886747E0;-2.782943726E0;-3.826524258E0
1.801154625E1;7.880393267E-1;-2.242582321E0;-4.545140266E0
1.802171125E1;2.266057253E0;-5.710020065E-1;-3.342335939E0
1.803198725E1;2.787256002E0;1.196570396E0;-2.275000095E0
1.805201725E1;-2.802832723E-1;1.574437141E0;-1.473536968E0
1.807160225E1;-2.036491394E0;-8.615093231E-1;4.013323307E0
1.808175025E1;-2.314408302E0;-2.606702805E0;3.981823921E0
1.810554425E1;-2.376811266E0;-5.225037575E0;2.366622686E0
1.812172425E1;-2.682899475E0;-6.408806801E0;1.913472176E0
1.814155625E1;-2.912328720E0;-6.015995979E0;-3.032653332E-1
1.815161125E1;-1.797638893E0;-4.459881783E0;-1.103980541E-1
1.816163525E1;-6.293016672E-2;-2.547732353E0;1.263784885E0
1.817171425E1;8.086929321E-1;-1.420359612E0;1.519476891E0
1.819164725E1;1.594126701E0;-4.995317459E-1;2.833359957E0
1.820166925E1;1.729727030E0;-2.935094833E-1;4.340410709E0
1.822169025E1;2.743534565E0;7.287817001E-1;6.566103935E0
1.824157225E1;3.306518078E0;6.893186569E-1;5.353610039E0
1.825157825E1;1.925193429E0;9.387903214E-1;4.665821552E0
1.827209125E1;5.013462901E-1;2.753722191E0;3.425972462E0
1.829212025E1;4.845321178E-1;4.413055420E0;4.817998409E0
1.831157725E1;-3.774738908E-1;6.150516510E0;5.199925900E0
1.832179025E1;-9.827100039E-1;6.388153553E0;5.197798729E0
1.833206025E1;-1.195416689E0;6.438104630E0;4.998965740E0
1.835162625E1;-5.209286809E-1;5.867040634E0;4.294506550E0
1.836164925E1;2.099037170E-3;5.627732277E0;4.055126667E0
1.837187225E1;6.019155979E-1;5.549758911E0;3.317919254E0
1.838337525E1;1.045860529E0;5.466581821E0;2.533245325E0
1.840157925E1;-1.956806183E-1;4.084617138E0;1.037605882E0
1.841168025E1;-1.283048034E0;2.733898640E0;-3.770937920E-1
1.843157525E1;-3.777083874E0;-8.276023865E-1;-5.586113453E0
1.845158025E1;-7.066130638E0;-6.646475792E0;-1.003172302E1
1.847180625E1;-3.790830612E0;-1.273367596E1;-7.023221016E0
1.848212725E1;-3.400574207E0;-1.362242031E1;-7.484211445E0
1.850171025E1;-3.498903990E0;-4.303628922E0;-5.844162941E0
1.852172025E1;-2.796043873E0;4.030820370E0;-3.175304651E0
1.853188825E1;-2.958912849E0;2.039365292E0;1.179599762E-1
1.855168125E1;-9.994149804E-1;-1.818529129E0;4.524186134E0
1.856172925E1;-8.384952545E-1;-3.094481468E0;1.363465071E0
1.858164325E1;-2.760412693E-1;-5.402430534E0;-4.873921394E0
1.860163425E1;2.579143763E0;-2.138527870E0;8.855584145E0
1.862159625E1;4.618091583E0;6.607342243E0;1.494073391E1
1.863188025E1;4.925725460E0;7.807630062E0;1.213316059E1
1.865183125E1;3.008050203E0;3.066130161E0;1.493336678E0
1.867167725E1;2.996869981E-1;-4.172771454E0;1.376069784E0
1.868213725E1;2.775199175E0;-2.699384689E0;5.107806206E0
1.870170825E1;2.772341013E0;-2.680492401E-1;1.999940515E0
1.871174425E1;1.793050289E0;-8.699417114E-3;5.969073176E-1
1.873177025E1;5.390415192E-1;2.176675797E-1;-1.991606653E-1
1.875867825E1;-9.856269956E-1;2.439022064E-1;3.141419291E-1
1.877166725E1;-2.452936888E0;1.265927315E0;-2.304176092E0
1.878175825E1;-2.774878502E0;2.238804817E0;-3.015967607E0
1.879244925E1;-2.550850153E0;2.502609253E0;-1.652173996E0
1.881160125E1;-1.106055021E0;2.461453438E0;-9.566735625E-1
1.882182525E1;4.722949862E-1;2.104592323E0;-4.494582117E-1
1.883379625E1;1.902650595E0;1.231877327E0;-1.338035464E-1
1.885158625E1;3.675676823E0;-5.176353455E-2;-8.536592126E-1
1.887156125E1;2.536215067E0;-4.475250244E-1;-1.316660762E0
1.888164625E1;1.845556021E0;4.241180420E-2;-1.233542919E0
1.890162725E1;3.851591945E-1;5.395870209E-1;-2.141424656E0
1.891181925E1;2.981195450E-1;-2.072162628E-1;-2.506570101E0
1.893158125E1;-2.212685943E-1;-1.342700958E0;-3.332725286E0
1.895220725E1;-7.993115187E-1;-1.689119339E0;-5.544811249E0
1.897163325E1;-6.308199167E-1;-7.838134766E-1;-6.280351162E0
1.898177825E1;1.040083766E-1;-1.030191422E0;-5.895016193E0
1.900197725E1;1.770587325E0;-2.837293625E0;-5.199650764E0
1.902162025E1;3.015116453E0;-1.990448952E0;-5.004368782E0
1.903181725E1;3.766726971E0;-1.434239388E0;-4.412000656E0
1.905158125E1;4.346142769E0;-2.049315453E0;-3.490998030E0
1.907183525E1;3.480893135E0;-4.119272232E0;-3.673198223E0
1.909158125E1;1.047535419E0;-4.686894417E0;-2.983971596E0
1.910158325E1;-1.555244327E-1;-2.644320488E0;-2.935910940E0
1.911161125E1;2.576201558E-1;-2.012341499E0;-1.644505620E0
1.912170425E1;8.272910118E-1;-1.017450333E0;-1.708254695E0
1.913235925E1;1.569443345E-1;-5.234622955E-2;-2.541381359E0
1.915165325E1;-3.535462379E0;-4.867143631E-1;-3.006381273E0
1.917154525E1;-3.587989330E0;-4.536743164E-1;3.979105234E0
1.918156025E1;-3.074985027E0;-9.751787186E-1;5.188205242E0
1.919158325E1;-2.621217728E0;-1.951570511E0;2.557569742E0
1.921177825E1;-9.759942293E-1;-2.787096024E0;-1.163871288E-1
1.923157525E1;-6.581209302E-1;-4.666730881E0;1.431827903E0
1.925153125E1;-1.444059372E0;-5.738942146E0;1.622900009E0
1.927157825E1;-5.741727948E-1;-2.704561234E0;1.784709573E0
1.928235025E1;8.605467677E-1;-2.689075470E-1;4.177723408E0
1.930165125E1;2.228338003E0;1.091775894E-1;4.773873329E0
1.932187425E1;2.376269341E0;2.641983032E-1;4.655227184E0
1.934154525E1;1.982965469E0;8.563947678E-1;4.108914375E0
1.935161825E1;1.755274773E0;1.502830029E0;3.543721914E0
1.936170025E1;1.454818845E0;2.404489517E0;3.492672443E0
1.938158925E1;1.547597885E0;5.024291992E0;4.647420883E0
1.939159125E1;1.429595590E0;5.971438408E0;4.947328568E0
1.941165925E1;2.918524742E-1;6.283286095E0;5.022163391E0
1.943157025E1;-1.711243391E-1;6.310380936E0;5.052182674E0
1.944160825E1;-1.106483936E-1;6.283584595E0;4.897608280E0
1.946160625E1;6.133742332E-1;6.055143356E0;4.195282459E0
1.948283325E1;1.267266273E0;5.666065216E0;2.535909653E0
1.950171025E1;-3.173492551E-1;3.151026726E0;-1.272048950E0
1.952156925E1;-4.561902046E0;-1.392701149E0;-7.059505463E0
1.953175725E1;-6.632965565E0;-4.131254196E0;-1.141486359E1
1.955163025E1;-5.651229382E0;-1.121403694E1;-7.646602631E0
1.957152925E1;-3.488994837E0;-1.177220154E1;-8.839483261E0
1.958162325E1;-3.309964180E0;-5.803973198E0;-8.908403397E0
1.960180125E1;-4.316939354E0;1.113946915E0;-6.502624035E0
1.962166025E1;-3.655648947E0;1.748672962E0;4.950881004E-2
1.964154725E1;-1.707904816E0;-2.195515633E0;3.153095722E0
1.965160425E1;-3.453687191E0;-2.596672058E0;5.157313347E-1
1.966164025E1;-4.556808472E0;-3.316570282E0;-7.533894539E0
1.967165725E1;-2.403356791E0;-3.079798698E0;-6.014816284E0
1.968172525E1;1.928015471E0;-2.312735558E0;1.197624683E1
1.970158825E1;6.350907326E0;4.366276741E0;1.449168491E1
1.972625025E1;2.166847944E0;3.173137188E0;1.834829569E0
1.974216225E1;1.188669801E0;-3.704309464E-1;2.349739552E0
1.976162925E1;5.852055073E0;1.388593674E0;5.080141068E0
1.977400925E1;5.131072998E0;4.295492172E-1;3.480011225E0
1.979162725E1;3.881743431E0;-2.347339630E0;1.684568167E0
1.981159025E1;2.270953655E0;-4.137047768E0;-1.032007337E0
1.982366825E1;1.795267940E0;-3.308586121E0;-1.874589801E0
1.983666175E1;7.436815500E-1;-7.592906952E-1;8.152923584E-1
1.985169625E1;-9.317278862E-3;3.482265472E-1;4.950368404E-1
1.987153525E1;-3.452033520E0;1.793063164E0;-4.320600033E0
1.988258825E1;-3.741431952E0;2.065992355E0;-1.472002029E0
1.990174025E1;-1.314124823E0;2.657291889E0;-6.131260395E-1
1.991225425E1;-5.545979738E-2;2.349690437E0;-1.500841379E-1
1.993165325E1;1.540618896E0;1.173785210E0;1.901462078E-1
1.995164325E1;1.645278335E0;1.137874603E0;-5.855091810E-1
1.996174225E1;9.323791862E-1;1.349994659E0;-3.061082363E-1
1.998217325E1;1.425343275E0;1.751230717E0;-8.004448414E-1
2.000156825E1;1.905232072E0;1.256903648E0;-2.003962517E0
2.002155825E1;9.961748123E-1;5.216827393E-1;-3.284116268E0
2.003161925E1;5.669501424E-1;1.533002853E-1;-4.163446426E0
2.005160325E1;-1.278636694E0;-1.163074493E0;-4.897154331E0
2.007151225E1;-2.487257242E0;-1.744653702E0;-5.977986813E0
2.008185825E1;-8.061532974E-1;-3.112990379E0;-7.012665749E0
2.010281025E1;2.153539419E0;-3.551300049E0;-6.842518806E0
2.012234625E1;4.851827145E0;-1.969896317E0;-4.621479988E0
2.014263525E1;3.308677673E0;-3.500863075E0;-4.565410614E0
2.016158125E1;2.285554409E0;-6.123597145E0;-6.026146889E0
2.018209925E1;3.992877007E0;-5.122421265E0;-3.928651810E0
2.020161725E1;3.777860880E0;-2.085442543E0;-3.945778847E0
2.021219625E1;3.889708042E0;-7.106866837E-1;-1.440157890E0
2.023172425E1;-3.939783573E-2;-6.608467102E-1;-9.469125867E-1
2.025165925E1;-3.852725267E0;-2.849389076E0;1.119675159E0
2.027178425E1;-2.933922768E0;-4.660941124E0;2.599883795E0
2.029172325E1;-1.769486189E0;-5.583336830E0;7.760901451E-1
2.031184225E1;-1.587987304E0;-6.186799049E0;1.632750273E0
2.033155825E1;-1.490684271E0;-4.790539742E0;1.991420031E0
2.034160625E1;-9.227545261E-1;-3.193104744E0;1.858268738E0
2.035162425E1;-5.489740372E-1;-2.032337189E0;2.378294468E0
2.037155525E1;1.522318572E-1;-2.524700165E-1;3.637105703E0
2.038171325E1;1.279352903E0;3.031959534E-1;4.414923191E0
2.040191425E1;1.514842868E0;1.071405411E0;5.466816902E0
2.042243925E1;2.150159359E0;1.823149681E0;5.602195263E0
2.044162825E1;2.718193531E0;3.527957439E0;4.030008316E0
2.045198725E1;2.770161152E0;4.436091900E0;4.320712090E0
2.047196525E1;2.280433893E0;6.996553421E0;5.038372040E0
2.049177125E1;1.087904096E0;6.972905636E0;5.353827000E0
2.051151925E1;1.002981305E0;6.616417885E0;6.038940430E0
2.052161425E1;1.214302301E0;6.395932198E0;5.991936207E0
2.053180425E1;1.564171076E0;6.270350456E0;5.616489410E0
2.055191025E1;1.826319695E0;6.261764526E0;4.214844704E0
2.057154625E1;4.205191731E-1;5.747189045E0;2.131927729E0
2.058161125E1;-2.159687281E-1;4.717265606E0;5.870857239E-1
2.060155425E1;-2.487392426E0;6.292934418E-1;-4.135150909E0
2.061168525E1;-5.498499393E0;-2.688652039E0;-8.591938019E0
2.063176625E1;-5.776014328E0;-9.663551331E0;-8.826676369E0
2.064215525E1;-5.524748325E0;-1.445338631E1;-5.682945728E0
2.066170925E1;-5.142037868E0;-5.940289497E0;-8.976980209E0
2.067184925E1;-4.886491299E0;-1.526478767E0;-6.637105942E0
2.068187325E1;-4.953289032E0;1.074687958E0;-3.369624138E0
2.070260625E1;-5.467731476E0;-5.513534546E-1;4.798559189E0
2.072153125E1;-1.765726686E0;-3.281272888E0;3.269095421E0
2.073536625E1;-3.575460434E0;-3.995865822E0;1.295486450E0
2.075291625E1;-2.749420643E0;-4.335735321E0;-7.778368950E0
2.077182425E1;4.392029762E0;2.248993397E0;8.211527824E0
2.079161625E1;9.707961082E0;9.663286209E0;1.947704887E1
2.080163825E1;5.246320248E0;7.327169895E0;1.177980423E1
2.082181725E1;4.486751556E-2;-1.333451271E0;-5.714709282E0
2.084152525E1;3.351654530E0;-2.699904442E0;6.704895973E0
2.085181225E1;6.576999664E0;-1.021579742E0;6.703912735E0
2.087154325E1;3.485354662E0;-2.509402275E0;5.047767758E-1
2.088158025E1;3.384198189E0;-2.770793915E0;1.668047905E-2
2.089158825E1;3.291864157E0;-2.813372612E0;2.466629744E-1
2.091157825E1;1.954329014E0;-1.616052628E0;1.387555599E0
2.093160025E1;2.643632889E-2;1.100139618E-1;1.759793162E0
2.095154925E1;-2.792694092E0;1.474122047E0;-4.490744591E0
2.097165525E1;-3.959975719E0;2.430717468E0;-3.587138414E0
2.099155525E1;-2.315466166E0;2.750913143E0;-6.834592819E-1
2.100156725E1;-1.172502518E0;2.441147804E0;-2.629179955E-1
2.101171825E1;-1.245067418E-1;1.753368855E0;-1.930623055E-1
2.102196325E1;9.184203148E-1;1.161918640E0;-4.114456177E-1
2.103206225E1;1.747620106E0;6.736745834E-1;-8.581967950E-1
2.104305725E1;1.716572046E0;1.190993309E0;-1.768897176E0
2.106150325E1;9.529317617E-1;2.022445202E0;3.187887669E-1
2.107170525E1;1.260230660E0;1.864053249E0;9.885294437E-1
2.108211625E1;1.694583535E0;1.267074585E0;4.814922810E-1
2.110164125E1;1.521795630E0;5.010681152E-1;-1.737836242E0
2.112165225E1;1.117812395E0;-1.493978500E-1;-3.369936466E0
2.113235925E1;4.108252227E-1;-4.347906113E-1;-3.780739069E0
2.115158125E1;-6.701736450E-1;-1.059888840E0;-5.812218666E0
2.117152925E1;-1.227500916E0;-1.896007538E0;-6.225120544E0
2.118403825E1;-8.033318520E-1;-2.455351830E0;-5.213195324E0
2.120159625E1;1.019495964E0;-3.326313972E0;-5.724417686E0
2.122155325E1;4.144178391E0;-2.225908279E0;-4.747428417E0
2.123181425E1;5.521216393E0;-1.571389198E0;-3.249098778E0
2.125161125E1;3.779051781E0;-3.889502525E0;-4.585674763E0
2.127178825E1;1.185443044E0;-4.721014023E0;-5.536875725E0
2.128184125E1;2.787377357E0;-4.144427299E0;-3.765382051E0
2.130313225E1;4.178439140E0;-2.198083878E0;-4.585889339E0
2.132161025E1;3.403181314E0;6.885280609E-1;-4.582291603E0
2.134160925E1;-2.613329887E-1;1.526927948E0;-2.581552029E0
2.135308625E1;-1.774119377E0;6.128301620E-1;-8.939777613E-1
2.137163325E1;-2.076775551E0;-3.102980614E0;3.303387642E0
2.138215225E1;-1.071336150E0;-4.002139091E0;2.945662498E0
2.140311725E1;-9.242116809E-1;-4.909664154E0;1.683751583E0
2.142153525E1;-2.775694430E-1;-6.130177498E0;2.121196032E0
2.143181325E1;-1.101916194E0;-6.689089775E0;1.754245400E0
2.145163525E1;-1.601083875E0;-4.158077240E0;1.719207764E-1
2.147159225E1;5.300929546E-1;-6.179561615E-1;2.382673740E0
2.148197025E1;1.499468565E0;1.009368896E-2;2.324007511E0
2.150162025E1;2.489297390E0;1.357622147E-1;3.414279461E0
2.152163625E1;2.790962696E0;4.664735794E-1;6.198929787E0
2.153166725E1;3.181862354E0;1.174715996E0;5.964264870E0
2.155158925E1;2.395576477E0;2.723711967E0;4.412496567E0
2.156164825E1;2.139848232E0;3.719091892E0;4.085454941E0
2.157170525E1;1.809483528E0;4.223501205E0;4.795264721E0
2.158205125E1;1.640547752E0;5.390744209E0;5.584383488E0
2.160166825E1;1.732630491E0;6.634064674E0;5.911121368E0
2.162164025E1;6.032209992E-1;6.488286018E0;6.283173561E0
2.163241125E1;-6.464421749E-2;5.617792606E0;6.273929596E0
2.165177225E1;2.321152091E-1;5.385983467E0;5.585412979E0
2.167157725E1;4.694718719E-1;5.827781677E0;4.245186806E0
2.168272725E1;1.170112491E-1;5.520567894E0;3.173228025E0
2.170155725E1;-8.867748976E-1;4.189456463E0;1.220019937E0
2.172158625E1;-3.773741484E0;-2.204351425E-1;-4.276711464E0
2.173828725E1;-6.855457783E0;-3.714857101E0;-1.201984787E1
2.175159425E1;-7.602137566E0;-1.121667480E1;-8.664497375E0
2.176276025E1;-6.459080696E0;-1.609947586E1;-7.256658554E0
2.178166625E1;-3.295883894E0;-1.013074684E1;-1.003421497E1
2.180161425E1;-3.282605410E0;-6.202650070E-1;-7.504518509E0
2.182160125E1;-4.529937744E0;2.046105862E0;-6.041419506E-1
2.183165225E1;-3.770567417E0;-3.939876556E-1;2.764970303E0
2.185156425E1;-3.793046474E0;-5.029697418E0;-6.284289360E-1
2.186163225E1;-2.211116791E0;-5.657057762E0;-9.081236839E0
2.188165125E1;1.036471963E0;-3.162628174E0;8.004600525E0
2.190164625E1;6.760580063E0;8.714801788E0;2.176236153E1
2.191165825E1;4.727024078E0;9.410631180E0;1.674707413E1
2.193170925E1;4.660789371E-1;2.196185589E0;-3.422796726E0
2.194171325E1;-7.868096232E-1;-2.496967316E0;-6.680651665E0
2.196174125E1;6.110197544E0;-1.093977928E0;9.228860855E0
2.198168125E1;6.182014465E0;-1.216679573E0;5.027882576E0
2.200178025E1;3.823358059E0;-3.706066132E0;-3.723697066E-1
2.202166125E1;3.296090126E0;-2.616991043E0;-1.141554356E0
2.204272325E1;1.043298841E-2;8.460397720E-1;9.502928853E-1
2.206153025E1;-2.740042448E0;2.656893730E0;-5.729910851E0
2.207159025E1;-4.161519051E0;2.122300148E0;-4.858078957E0
2.208260925E1;-4.180465698E0;2.112384319E0;-3.040601015E0
2.210160625E1;-1.609554052E0;2.608110428E0;-1.052210689E0
2.212157825E1;1.000737906E0;1.375409126E0;-4.199030399E-1
2.213161425E1;2.205862284E0;7.434034348E-1;-1.127597690E0
2.215161025E1;1.822313666E0;8.002471924E-1;-2.032203197E0
2.217170225E1;4.231964946E-1;1.444420815E0;-4.799019098E-1
2.218215025E1;4.512531161E-1;1.368011475E0;-4.702243805E-1
2.220158525E1;1.071785092E0;6.994953156E-1;-1.444466472E0
2.222159525E1;1.042271376E0;3.306903839E-1;-3.975438595E0
2.223662525E1;8.459242582E-1;1.579065323E-1;-4.692144871E0
2.225156125E1;-2.706968784E-2;-9.218149185E-1;-5.803141594E0
2.226158625E1;-4.908720553E-1;-1.499058723E0;-6.670278549E0
2.227192425E1;-7.939010859E-1;-1.907022476E0;-6.404162407E0
2.229192625E1;5.491304398E-2;-2.650591850E0;-4.731903076E0
2.231162125E1;3.979594469E0;-2.343748093E0;-4.695840359E0
2.232179625E1;6.084760189E0;-1.526819229E0;-3.447691917E0
2.233275325E1;6.459214687E0;-2.138961792E0;-2.516946793E0
2.235157825E1;3.565240383E0;-5.138530731E0;-4.652400017E0
2.237185325E1;1.749731541E0;-5.315567017E0;-5.160953522E0
2.239153925E1;1.542806625E0;-4.484200478E0;-4.917774200E0
2.240179025E1;1.872684956E0;-2.411277771E0;-5.411240101E0
2.242156625E1;2.436997890E0;8.756036758E-1;-3.693902016E0
2.243184925E1;-1.377088904E0;7.406873703E-1;-2.401024818E0
2.245178825E1;-3.162885666E0;-2.971144676E0;2.979128599E0
2.247160625E1;-2.026518583E0;-4.809547424E0;3.175454855E0
2.248165225E1;-2.405715466E0;-5.147424698E0;1.931519270E0
2.250158225E1;-1.247046471E0;-5.224345207E0;1.750522137E0
2.251179025E1;-1.723327875E0;-5.397965431E0;2.057463169E0
2.253162925E1;-2.867424488E0;-5.391399384E0;-2.461975813E-1
2.255174725E1;-1.606843710E0;-2.866859436E0;1.642202616E0
2.257156825E1;8.110706806E-1;-3.532352448E-1;2.728813648E0
2.258158325E1;1.094856858E0;-1.345491409E-1;2.934116840E0
2.260157725E1;1.406858444E0;1.975030899E-1;5.153053284E0
2.262156925E1;2.182741642E0;1.458365440E0;6.059167862E0
2.263163725E1;1.799030304E0;2.337766647E0;4.253865719E0
2.264170125E1;1.396884441E0;3.093873978E0;3.977857590E0
2.266156625E1;1.216420650E0;4.300981998E0;5.448800564E0
2.267160025E1;1.110600710E0;5.588057041E0;5.934555054E0
2.268174625E1;1.323730230E0;6.359588146E0;5.533483028E0
2.270165225E1;6.280552149E-1;6.304857254E0;6.172982216E0
2.272161325E1;1.021924019E-1;5.973049164E0;6.406820774E0
2.273187625E1;3.700089455E-1;5.683732510E0;6.249612331E0
2.275181525E1;1.044430614E0;5.371247768E0;5.354393005E0
2.277206225E1;5.779097676E-1;5.477335930E0;4.043707371E0
2.278214225E1;-1.537464261E-1;5.117994785E0;3.198243856E0
2.280174225E1;-1.140617371E0;3.388920307E0;6.126875877E-1
2.282167425E1;-4.105870724E0;-1.068072319E0;-1.025096130E1
2.283216725E1;-7.053314209E0;-8.002875328E0;-1.410921860E1
2.285164825E1;-5.830556393E0;-1.754357910E1;-7.472115517E0
2.287157825E1;-4.157941818E0;-1.038313675E1;-1.072783852E1
2.288158125E1;-4.019542217E0;-4.028937340E0;-9.174042702E0
2.290248225E1;-3.711498976E0;4.432260513E0;-3.012688875E0
2.292165325E1;-2.657371044E0;2.202785492E0;3.791095734E0
2.294174025E1;-2.328508139E0;-1.478784561E0;4.745768547E0
2.295198725E1;-3.388015747E0;-3.707988739E0;-3.219251394E0
2.297163425E1;2.278098464E-1;-5.242651939E0;2.805369139E0
2.298204225E1;2.081773281E0;-4.030555725E0;1.065466118E1
2.300162025E1;3.686980724E0;4.061208725E0;1.520082664E1
2.302158725E1;8.814004660E-1;2.624472618E0;-2.961218834E0
2.303226725E1;1.138464093E0;1.366856575E0;3.448923588E0
2.305156825E1;6.040218353E0;5.823659897E-1;6.189660549E0
2.306158625E1;6.117630482E0;-7.363862991E-1;4.802423000E0
2.307174025E1;5.742329597E0;-2.657385826E0;4.890737534E0
2.308178225E1;4.624178886E0;-4.375763893E0;3.543254375E0
2.310156325E1;4.323521614E0;-4.179653168E0;8.360954523E-1
2.312158425E1;3.237240314E0;-2.110940933E0;3.031809926E-1
2.313178225E1;6.853376627E-1;-1.576292038E0;-6.548457593E-2
2.315156025E1;-1.432421803E0;1.880934715E0;-1.831912637E0
2.317170525E1;-5.165944099E0;2.955173492E0;-3.153238297E0
2.318189525E1;-7.339665413E0;1.945519924E0;-2.569823027E0
2.320160425E1;-4.211670876E0;3.369951248E0;-1.377591848E0
2.322162925E1;3.152546406E0;1.422747612E0;3.763777018E-1
2.323165425E1;3.350070477E0;7.588739395E-1;2.961351871E-1
2.325152325E1;2.213923454E0;8.169641495E-1;-3.863198757E-1
2.326154825E1;1.912140369E0;1.254752159E0;-5.397119522E-1
2.327209725E1;1.910415411E0;1.733840466E0;-7.831927538E-1
2.329154025E1;1.290343285E0;1.325055122E0;-2.502700090E0
2.330160725E1;1.014332056E0;9.578580856E-1;-3.547328472E0
2.331167325E1;6.515225768E-1;7.328701019E-1;-3.937159061E0
2.333192025E1;-7.102298737E-2;-3.901805878E-1;-4.611886978E0
2.335183225E1;-3.507068455E-1;-1.246121407E0;-5.086506844E0
2.337166225E1;-4.771032631E-1;-2.223379135E0;-5.982844353E0
2.339158525E1;4.505066574E-1;-3.435980797E0;-4.626867294E0
2.340165425E1;1.711469054E0;-3.034337044E0;-4.099724293E0
2.342157425E1;5.279670715E0;-1.392140388E0;-2.121791124E0
2.343186025E1;3.665459394E0;-3.372350693E0;-3.589069128E0
2.345188125E1;4.639963806E-1;-5.056391716E0;-5.443335056E0
2.347174325E1;1.428632736E0;-5.293265343E0;-3.081898212E0
2.349159825E1;2.145780802E0;-3.060777664E0;-5.964739799E0
2.350183625E1;2.540575981E0;-2.012167931E0;-6.103682995E0
2.352207725E1;2.219966888E0;2.200092316E0;-3.045112610E0
2.354166025E1;-2.129621983E0;5.841302872E-1;-1.688325405E0
2.356168925E1;-2.695629597E0;-2.949180603E0;1.965724349E0
2.358157825E1;3.834150434E-1;-3.868360519E0;3.544312954E0
2.359158625E1;-1.023499370E-1;-4.482257843E0;3.180540323E0
2.360165025E1;-8.468496799E-2;-5.015682220E0;2.359828949E0
2.362165525E1;-1.774893284E0;-6.590174675E0;1.075734258E0
2.364154125E1;-1.960894585E0;-3.909339905E0;3.359082937E-1
2.365173725E1;-6.265581846E-1;-1.903492928E0;1.454874992E0
2.367157025E1;1.638498783E0;6.349353790E-1;3.240979910E0
2.368158525E1;1.646101475E0;8.667535782E-1;2.653969765E0
2.369171125E1;1.550136089E0;6.728868484E-1;2.480300665E0
2.371150725E1;1.682956696E0;1.165388107E0;6.093707085E0
2.372169025E1;2.317038059E0;1.671197891E0;6.365052223E0
2.374159325E1;2.063879967E0;2.779038429E0;4.060796261E0
2.375256525E1;1.465347409E0;3.268918514E0;3.765841961E0
2.377176125E1;1.838035703E0;5.208082199E0;4.905749798E0
2.378221125E1;1.973224640E0;6.062396526E0;5.176166534E0
2.380166725E1;1.192495108E0;6.570701599E0;5.389064312E0
2.381197525E1;3.679879308E-1;5.895958900E0;5.510573387E0
2.383303225E1;-4.902327061E-2;5.132885933E0;5.696213722E0
2.385169825E1;3.368699551E-2;4.990182400E0;4.918523312E0
2.387158725E1;-4.342974424E-1;4.723793507E0;3.649456501E0
2.389153325E1;-1.487753868E0;3.630571365E0;1.877784252E0
2.390153725E1;-1.473201632E0;2.865703106E0;7.976819277E-1
2.391174025E1;-1.873302817E0;1.503346443E0;-1.298870087E0
2.393160325E1;-5.212273598E0;-3.792771339E0;-1.221174335E1
2.395191425E1;-4.957408905E0;-1.158142185E1;-9.790493965E0
2.397152325E1;-2.891272306E0;-1.501739407E1;-8.659913063E0
2.398157725E1;-3.253925323E0;-9.877191544E0;-9.155276299E0
2.400166225E1;-3.459517956E0;2.201107979E0;-4.578230858E0
2.402165925E1;-2.692701578E0;2.353379250E0;2.485529900E0
2.403173025E1;-5.722659826E-1;-3.509044647E-1;3.677158356E0
2.405159925E1;9.307074547E-2;-1.830317497E0;4.108259678E-1
2.406171425E1;3.203731775E-2;-3.068071365E0;-4.220849514E0
2.408159725E1;-1.715635061E-1;-6.096959114E0;4.400307178E0
2.409162825E1;3.290887475E-1;-3.586825371E0;1.139424229E1
2.411165125E1;2.027557492E-1;7.038226128E0;1.485362625E1
2.412170525E1;-4.549549222E-1;8.114678383E0;1.253341389E1
2.413207925E1;-5.027992725E-1;7.014253139E0;6.676395893E0
2.415161225E1;-1.171369791E0;1.401264191E0;-5.041468620E0
2.417156825E1;4.079612255E0;-1.927749634E0;5.496379852E0
2.418157025E1;6.502389431E0;-1.960405350E0;6.261562824E0
2.419173325E1;7.278936386E0;-2.710247993E0;6.321095467E0
2.421151425E1;5.485159874E0;-3.784368515E0;7.270985842E-2
2.422161525E1;5.264964581E0;-2.542410851E0;-3.619827628E-1
2.424153125E1;2.968892455E-1;-8.496475220E-1;-2.807517052E-1
2.425169625E1;-4.832760990E-1;3.782396317E-1;-4.108744860E-1
2.427161325E1;-2.185318470E0;2.118830681E0;-1.026226997E0
2.429171525E1;-3.823384047E0;1.898175240E0;-1.944976211E0
2.431155125E1;-3.563551426E0;1.753708363E0;-7.968599796E-1
2.432159025E1;-1.715870142E0;2.358764648E0;-1.328980923E-1
2.434160225E1;1.121029735E0;2.245296478E0;-6.619260311E-1
2.435161725E1;1.841722846E0;1.701017380E0;-1.092298508E0
2.437166425E1;1.759029865E0;9.037637711E-1;-5.201199055E-1
2.439189425E1;2.015006781E0;1.177911758E0;-1.439513683E0
2.441186125E1;1.691292882E0;1.532147408E0;-2.841632128E0
2.443170825E1;1.005927563E0;7.399282455E-1;-4.008778572E0
2.445167325E1;4.063025117E-1;-1.568145752E-1;-5.353754044E0
2.447274325E1;1.820844114E-1;-1.011902809E0;-5.643866539E0
2.449174825E1;-3.125589192E-1;-2.370495796E0;-6.207025051E0
2.451162125E1;7.342192531E-1;-2.870594025E0;-6.403531551E0
2.452165225E1;2.473872185E0;-2.501700401E0;-5.700584412E0
2.454162125E1;5.260818958E0;-1.670261383E0;-1.920397758E0
2.456159625E1;3.795983315E0;-4.755835533E0;-5.202295780E0
2.458197925E1;3.389627934E0;-5.155571938E0;-5.876735687E0
2.460160225E1;3.698498726E0;-2.016118050E0;-3.939802647E0
2.461302725E1;4.251309872E0;-2.383346558E-1;-2.795969963E0
2.463184625E1;3.276401758E-1;-2.401962280E-1;-2.219177723E0
2.465176225E1;-3.234276772E0;-4.565266609E0;1.224714279E0
2.467166125E1;-3.434808254E0;-4.987487793E0;2.567058325E0
2.468172625E1;-3.379665613E0;-5.395203590E0;1.574497461E0
2.469175725E1;-2.792124987E0;-5.685835838E0;1.598664999E0
2.471156825E1;-1.195187569E0;-5.343403816E0;3.107139587E0
2.472182625E1;-1.613880038E0;-5.061257362E0;2.291270971E0
2.473362725E1;-2.466356277E0;-5.086884499E0;9.028139114E-1
2.474533225E1;-1.630271912E0;-3.612517357E0;4.205774069E-1
2.476156225E1;-2.414728552E-1;-2.208750725E0;1.492660284E0
2.477185925E1;8.051700592E-1;-9.621381760E-1;2.036273956E0
2.479158025E1;2.845725775E0;7.933549881E-1;4.346048355E0
2.480171225E1;2.814078331E0;1.093622208E0;6.008936882E0
2.481345325E1;2.818275928E0;1.487494469E0;6.769062042E0
2.483162225E1;2.833395958E0;2.873266220E0;4.785056591E0
2.484162425E1;2.389531851E0;3.553700447E0;3.801383257E0
2.485210325E1;2.357741117E0;4.105206490E0;3.649375916E0
2.487182825E1;2.454394579E0;5.872136116E0;5.794190407E0
2.489169825E1;1.921399117E0;6.504203796E0;6.105180264E0
2.491155525E1;1.008099079E0;6.210768223E0;6.288866043E0
2.492161725E1;5.048707128E-1;6.098937988E0;6.627988338E0
2.494164725E1;1.983596683E-1;5.973528862E0;6.254970551E0
2.496160825E1;-2.153637409E-1;5.693664551E0;5.167254448E0
2.497161525E1;-3.332160711E-1;5.664467812E0;4.268449783E0
2.499155125E1;-1.000704169E0;3.256978512E0;9.788836241E-1
2.500161025E1;-1.872732639E0;1.424426079E0;-9.497523308E-1
2.502190325E1;-6.736467838E0;-5.112628937E0;-1.361324120E1
2.503234125E1;-7.444288254E0;-8.545551300E0;-1.007386017E1
2.505156825E1;-6.180383682E0;-1.676846504E1;-6.238632679E0
2.506197825E1;-4.291131496E0;-1.357196426E1;-8.924713135E0
2.508226525E1;-4.483597279E0;-3.659819603E0;-9.539433479E0
2.510162725E1;-5.751647949E0;-2.037029266E0;-1.206848145E0
2.511295225E1;-5.600680828E0;-3.319938660E0;3.114871025E0
2.513157725E1;-2.468101501E0;-3.791385651E0;3.949261189E0
2.515154525E1;-2.527182102E0;-5.621575356E0;-8.265880585E0
2.516154525E1;-9.261822701E-2;-6.019958496E0;-1.043263817E1
2.518167225E1;9.293081284E0;1.294217014E1;2.115938950E1
2.520156725E1;6.322238922E0;1.200393677E1;1.736492538E1
2.522171125E1;-3.555131197E0;3.273334503E-1;-1.239113331E1
2.524159925E1;5.678758025E-1;-6.930246353E0;5.656717777E0
2.525173025E1;7.026051044E0;-4.356958389E0;1.157868099E1
2.526639825E1;9.952657700E0;-1.749960899E0;8.366395950E0
2.528161325E1;4.548624039E0;-2.518684387E0;8.830541968E-1
2.529162425E1;3.649910212E0;-2.427869797E0;-1.705009460E0
2.530321225E1;3.140879393E0;-1.957460403E0;-3.251598835E0
2.532157925E1;3.453829288E-1;-5.771512985E-1;-1.884726584E-1
2.533181525E1;-7.317292094E-1;1.855278015E-1;8.587707877E-1
2.535153425E1;-1.208569288E0;1.837759972E0;-1.402868390E0
2.537168725E1;-3.217247725E0;1.256020546E0;-1.590703845E0
2.539156925E1;-1.629443288E0;1.313244820E0;5.361843109E-1
2.540161325E1;-1.106776476E0;1.340155602E0;-5.409812927E-2
2.542251825E1;3.296962678E-1;1.220037460E0;-2.088214397E0
2.544158925E1;4.523476660E-1;1.147026062E0;-3.427886009E0
2.545162325E1;4.475551844E-1;1.535886765E0;-2.505605698E0
2.547154625E1;1.286435246E0;1.943167686E0;7.791535854E-1
2.548178425E1;2.138119221E0;1.622699261E0;1.017640352E0
2.550159525E1;2.372190237E0;6.900081635E-1;-6.903672218E-1
2.552158425E1;1.524522781E0;6.713743210E-1;-3.060415268E0
2.553164325E1;1.292671919E0;4.048223495E-1;-4.339307785E0
2.554181925E1;9.434816837E-1;-1.750068665E-1;-5.659209251E0
2.556160825E1;4.145231247E-1;-8.326015472E-1;-6.776493073E0
2.558163025E1;-1.232934952E0;-1.719056129E0;-5.109044075E0
2.559264225E1;-3.063148856E-1;-2.086593628E0;-5.344909191E0
2.561154425E1;3.486348391E0;-2.546733856E0;-5.272015572E0
2.563185325E1;5.029938221E0;-3.171206474E0;-3.571407318E0
2.565168525E1;2.341139555E0;-5.233210564E0;-5.887541294E0
2.567155725E1;9.481611848E-1;-5.104319572E0;-4.814023018E0
2.568169225E1;1.486558437E0;-4.920752525E0;-4.288610935E0
2.570164525E1;4.130779266E0;-1.963285446E0;-3.866742611E0
2.572159325E1;2.548804760E0;1.487788200E0;-2.278601408E0
2.573159625E1;7.531785965E-2;7.309789658E-1;-1.758551598E0
2.574163025E1;-1.342185497E0;-8.531475067E-1;-6.151917577E-1
2.575179125E1;-2.649183273E0;-2.927384377E0;1.914457798E0
2.577161225E1;-2.561411858E0;-4.696556091E0;3.201015949E0
2.578191925E1;-2.188241720E0;-5.164855003E0;1.508342385E0
2.580286125E1;-1.619937539E0;-5.727801323E0;9.218664169E-1
2.582234425E1;-2.740458965E0;-4.857892036E0;4.511369467E-1
2.583373225E1;-2.777480364E0;-3.683555603E0;5.246474743E-1
2.585169625E1;-1.268814921E0;-2.761373520E-1;1.971143961E0
2.587153025E1;2.128971815E0;1.867261410E0;3.479789972E0
2.588154925E1;2.554177761E0;1.537647724E0;2.799852848E0
2.589155025E1;2.695503235E0;1.076564789E0;3.126747847E0
2.590207525E1;2.472896338E0;5.981626511E-1;4.409710884E0
2.592157125E1;3.452004910E0;1.175040245E0;5.855154991E0
2.594158025E1;2.082143545E0;2.317821980E0;4.110926151E0
2.595161025E1;9.772571325E-1;3.108212471E0;3.606391191E0
2.597163425E1;1.178610086E0;5.719491482E0;5.433792591E0
2.598167525E1;7.143156528E-1;6.251347542E0;5.873759270E0
2.600166425E1;-2.933068871E-1;6.137019157E0;5.437120438E0
2.601170625E1;-4.371864796E-1;5.837505341E0;5.560838699E0
2.603173525E1;-6.761431098E-1;4.829488277E0;5.455829620E0
2.605165725E1;-1.442376375E-1;5.069950104E0;4.687363625E0
2.606169125E1;3.932808638E-1;5.201079845E0;4.122979641E0
2.607172025E1;4.435085654E-1;4.846407413E0;3.579004049E0
2.609180525E1;-6.744024754E-1;3.011257172E0;1.763275862E0
2.611150425E1;-3.301202059E0;-5.357694626E-1;-2.236531019E0
2.612157325E1;-5.336380959E0;-2.898396492E0;-5.478553772E0
2.613179225E1;-7.479225159E0;-5.899838448E0;-1.019336414E1
2.615165125E1;-4.548584938E0;-1.162774849E1;-1.013042736E1
2.617161625E1;-3.296743870E0;-7.153732300E0;-8.826056480E0
2.619158525E1;-2.837444067E0;2.210836411E-1;-6.361036301E0
2.620165825E1;-3.437810183E0;2.453252792E0;-4.553306580E0
2.622169825E1;-2.653553247E0;5.469484329E-1;4.692952633E-1
2.624164025E1;-4.019144177E-2;-3.180461884E0;3.600722790E0
2.626154825E1;-3.577961922E-1;-5.536629677E0;-5.268161297E-1
2.627178025E1;-9.232302308E-1;-8.348146439E0;5.591776371E-1
2.629154725E1;3.025780618E-1;-1.662107468E0;1.442168617E1
2.630156425E1;-5.001137257E-1;5.445556641E0;1.474316978E1
2.632166725E1;4.874154031E-1;9.304758072E0;1.107635117E1
2.633184725E1;-3.446376920E-1;6.457401276E0;4.146873474E0
2.635158825E1;-8.433963656E-1;-2.219066620E0;-3.470297813E0
2.637162225E1;7.687108517E0;-1.705443382E0;7.125040054E0
2.638180925E1;6.615081787E0;-1.813706398E0;5.082152367E0
2.640168425E1;4.135380745E0;-2.575695038E0;-3.772615790E-1
2.641179325E1;2.991141081E0;-1.939720154E0;-1.512009740E0
2.642191025E1;1.752713084E0;-1.087715149E0;-1.320124626E0
2.644182925E1;-6.817981601E-1;3.082904816E-1;4.357996285E-1
2.645210125E1;-5.641067028E-1;1.335296631E0;2.174485922E-1
2.647158825E1;-1.928931713E0;2.458237648E0;-7.905775309E-2
2.648171125E1;-2.775303841E0;2.369464874E0;-4.218629301E-1
2.650153325E1;-2.266873360E0;9.837408066E-1;-1.603253603E0
2.651167525E1;-1.086499929E0;8.679304123E-1;-8.122936487E-1
2.652168925E1;4.083806276E-2;8.835296631E-1;-6.401654482E-1
2.654151125E1;1.916947603E0;1.205521584E0;-1.839354753E0
2.655168125E1;1.911604643E0;1.619719505E0;-1.190516233E0
2.657164525E1;1.397920370E0;1.635817528E0;-8.647469282E-1
2.659151525E1;1.367727280E0;1.499263763E0;-1.934242606E0
2.660166825E1;1.267983913E0;1.450380325E0;-2.473735332E0
2.662158325E1;8.635211587E-1;-1.182003021E-1;-4.119884968E0
2.663165425E1;8.929753900E-1;-5.567131042E-1;-5.619961739E0
2.665160925E1;7.467685342E-1;-4.879465103E-1;-7.761721611E0
2.667194525E1;-6.079640388E-1;-1.915694237E0;-5.156076908E0
2.669176025E1;1.435294747E-2;-2.786001205E0;-5.832988739E0
2.671152025E1;3.624673605E0;-2.339190483E0;-4.031604767E0
2.672158925E1;4.797508240E0;-2.335386276E0;-3.222975969E0
2.673160825E1;4.954513550E0;-3.028275490E0;-4.081006050E0
2.674169925E1;3.641603947E0;-4.848053932E0;-5.976435184E0
2.676163125E1;2.803427696E0;-4.978389740E0;-3.689683914E0
2.678161125E1;2.950546741E0;-3.388190269E0;-4.902661324E0
2.680161625E1;3.205003738E0;-6.343936920E-2;-2.342801809E0
2.681169425E1;1.207201481E0;7.254505157E-1;-1.863722324E0
2.683266225E1;-2.974043131E0;-2.489832878E0;-2.239156961E-1
2.685166625E1;-2.725347042E0;-4.210592270E0;3.838568211E0
2.687155425E1;-2.703410387E0;-4.914104462E0;1.291349649E0
2.688160525E1;-1.445855379E0;-4.845610619E0;1.098088741E0
2.689163225E1;-8.134995699E-1;-4.780459404E0;1.973666310E0
2.691150525E1;-1.718567729E0;-4.547816277E0;1.329154253E0
2.692171025E1;-2.445992947E0;-4.542062759E0;6.929659843E-1
2.694153925E1;-8.607043028E-1;-3.101376534E0;1.398768544E0
2.695161825E1;8.361683488E-1;-7.571392059E-1;1.857413054E0
2.697157225E1;3.362289906E0;1.528911591E-1;2.495440960E0
2.698187525E1;3.770358801E0;1.366024017E-1;4.118367672E0
2.700154225E1;4.027873516E0;8.632431030E-1;6.203246117E0
2.701164425E1;3.882686615E0;1.584762096E0;5.270174980E0
2.703160825E1;2.076221466E0;3.226290226E0;4.019809723E0
2.705151025E1;1.809068561E0;4.839447021E0;5.496591091E0
2.707177725E1;1.129182935E0;6.324400902E0;6.332893372E0
2.708185125E1;6.087992787E-1;6.537749767E0;6.278249741E0
2.710170725E1;-5.663653612E-1;6.427941799E0;6.370846272E0
2.712155425E1;-8.300609589E-1;5.997639656E0;6.014483452E0
2.713159025E1;-9.948281050E-1;5.964878082E0;6.071462631E0
2.714172225E1;-1.907163858E-2;5.788405418E0;5.058624268E0
2.716161125E1;-4.968387783E-1;4.895396233E0;3.466884613E0
2.717167225E1;-8.987246156E-1;3.979492188E0;2.433896542E0
2.719157725E1;-2.264155626E0;8.881597519E-1;-6.607241631E-1
2.720159225E1;-4.509530544E0;-2.011785507E0;-5.753009319E0
2.722171325E1;-7.058985710E0;-9.218747139E0;-1.122152328E1
2.724177725E1;-3.363724709E0;-1.734890747E1;-9.403085709E0
2.726157725E1;-3.856010914E0;-8.293868065E0;-1.093147182E1
2.727220625E1;-3.059217691E0;-2.804916382E0;-9.128022194E0
2.729152825E1;-5.055340767E0;7.745637894E-1;-4.094993114E0
2.730164425E1;-5.425071239E0;-1.237413406E0;-2.647936344E-1
2.732166925E1;5.938034132E-2;-3.191333771E0;3.912883282E0
2.734185925E1;5.897400379E-1;-6.055267334E0;-7.928258419E0
2.735216025E1;6.321239471E-1;-4.523257256E0;3.285922527E0
2.736231225E1;2.900899172E0;2.540616035E0;1.194705677E1
2.738155825E1;1.778018236E0;1.235822868E1;2.380383682E1
2.739161225E1;1.359923124E0;1.088293266E1;1.440314484E1
2.741163325E1;-4.291161537E0;-1.487560272E-1;-8.929263115E0
2.743167025E1;3.914982080E-1;-5.494254112E0;7.031235218E0
2.744176825E1;6.613793850E0;-2.208405495E0;9.232917786E0
2.746162025E1;6.609897614E0;-2.218501091E0;3.482150793E0
2.748159925E1;3.528377056E0;-3.643043518E0;-3.733613729E0
2.750156425E1;1.972160578E0;-1.354658127E0;-2.413361073E0
2.751170425E1;1.259917736E0;-3.599901199E-1;-4.346855283E-1
2.753168925E1;-3.092072606E-1;1.528568268E0;-7.161755562E-1
2.755154325E1;-1.691874027E0;1.506518364E0;-6.992915869E-1
2.756156425E1;-1.645839572E0;1.322599411E0;-4.898152947E-1
2.758159325E1;-1.343223929E0;1.732040882E0;-3.563773632E-2
2.759188425E1;-8.192230463E-1;1.863942146E0;-6.340278983E-1
2.761186825E1;7.878172398E-2;1.780569077E0;-1.774887323E0
2.763203525E1;-3.820924759E-1;1.608678818E0;-9.610170126E-1
2.765161225E1;1.001795292E0;1.390213966E0;-1.131961823E0
2.766170925E1;2.035805225E0;1.257834435E0;-1.454648852E0
2.768156425E1;1.572838783E0;9.151477814E-1;-2.756338120E0
2.769186325E1;1.297905445E0;9.553022385E-1;-3.941107273E0
2.771162025E1;1.206339955E0;1.808872223E-1;-5.345135689E0
2.772163925E1;1.105376363E0;-4.719963074E-1;-6.181499481E0
2.773204325E1;5.723579526E-1;-1.088447571E0;-6.453481674E0
2.775184025E1;-2.959184349E-1;-2.317185402E0;-4.972805977E0
2.777161825E1;2.948566675E-1;-3.227337837E0;-6.127830505E0
2.778187025E1;1.646236420E0;-2.347325325E0;-6.052551270E0
2.780163425E1;4.048435688E0;-1.650204659E0;-2.686692953E0
2.781301825E1;3.733717203E0;-2.915902138E0;-2.619884253E0
2.783173925E1;1.199691057E0;-4.589486122E0;-6.076764107E0
2.784175725E1;3.059627414E-1;-5.076131821E0;-6.325619698E0
2.786175725E1;2.137247801E0;-4.072156906E0;-2.865510464E0
2.788170225E1;3.068807125E0;-1.958637238E0;-5.323935509E0
2.789172925E1;3.094595194E0;-7.209949493E-1;-3.653746605E0
2.791153525E1;1.205978870E0;1.717451096E0;-1.774270654E0
2.792155725E1;-1.594202518E0;1.198073387E0;-2.279234886E0
2.793158725E1;-4.370805740E0;-1.872844696E0;1.542327642E0
2.794162925E1;-3.363388062E0;-2.754417419E0;3.599682331E0
2.796188825E1;-2.581435680E0;-4.059951782E0;2.313777208E0
2.798155025E1;-9.951726198E-1;-5.227608681E0;4.745517075E-1
2.800255625E1;-2.190274954E0;-6.050655365E0;1.177049398E0
2.802152425E1;-2.698453426E0;-5.025551796E0;-1.338982582E0
2.803178625E1;-1.514304638E0;-3.088831902E0;-6.080770493E-1
2.805242025E1;1.679486632E0;-1.681156158E-1;2.384898424E0
2.807187925E1;2.554273605E0;3.555536270E-1;1.811841249E0
2.808189125E1;2.037727594E0;3.215742111E-1;3.503866434E0
2.810156225E1;3.053966522E0;1.465376854E0;5.991177559E0
2.812155325E1;1.925824642E0;1.933592319E0;4.449265480E0
2.813208025E1;7.695416212E-1;3.811679840E0;3.873929024E0
2.815162425E1;9.267960191E-1;5.951390266E0;4.976448536E0
2.817168525E1;2.161561251E-1;6.139954090E0;4.745378494E0
2.818188725E1;2.182431519E-1;6.007067680E0;5.148031235E0
2.820153325E1;5.039978027E-2;5.839377403E0;5.453914165E0
2.821160425E1;-6.602734327E-2;5.459863663E0;5.054687023E0
2.822170025E1;-1.549733877E-1;5.170046806E0;4.645992756E0
2.824149125E1;4.448723793E-2;5.179851055E0;3.914240360E0
2.825167225E1;1.474963129E-1;5.086473942E0;3.438518524E0
2.827192925E1;-2.076315284E-1;3.924235344E0;1.372770071E0
2.829176225E1;-1.525790811E0;1.968149185E0;-2.276719332E0
2.831170625E1;-5.933042526E0;-4.004135132E0;-9.707745552E0
2.833217925E1;-5.784381866E0;-1.380565929E1;-8.793032646E0
2.835163125E1;-5.103700638E0;-8.457185745E0;-9.173364639E0
2.837160325E1;-5.086716175E0;-9.525756836E-1;-6.133708000E0
2.839150825E1;-4.822009087E0;-6.388673782E-1;3.180767059E0
2.840162125E1;-2.642966986E0;-1.834601402E0;3.895125389E0
2.842170525E1;-3.242813587E0;-3.440080643E0;2.380805016E-1
2.844163125E1;-1.513968468E0;-7.154704094E0;-1.871682882E0
2.846170325E1;8.268404961E0;1.492395401E0;1.545256805E1
2.848160525E1;5.408830643E0;8.340280533E0;1.633980179E1
2.850168125E1;-9.297475219E-1;4.204760551E0;1.859250784E0
2.852155825E1;4.255959034E0;-7.564802170E-1;5.667682648E0
2.853202325E1;6.806675911E0;-1.251093864E0;5.600940704E0
2.855170925E1;6.710796356E0;-4.634730339E0;2.541059971E0
2.857149125E1;5.236474514E0;-5.271245003E0;-1.096319318E0
2.858162225E1;3.992010593E0;-3.755722046E0;-2.368238926E0
2.859166725E1;1.030314684E0;-1.950613022E0;-1.825057268E0
2.861192125E1;-1.404930115E0;8.931283951E-1;-2.523907274E-2
2.863236725E1;-2.058353901E0;2.672693253E0;-1.304106951E0
2.865163325E1;-3.181459188E0;2.392335415E0;-2.206124306E0
2.867173125E1;-1.935642958E0;2.418602943E0;-1.919053793E0
2.868180625E1;-2.977172434E-1;2.545029640E0;-1.599676251E0
2.870169725E1;1.052235842E0;2.339046955E0;-5.509382486E-1
2.872161025E1;3.841920793E-1;2.097681999E0;-6.996369958E-1
2.874259425E1;1.087806821E0;1.839032173E0;-4.165425301E-1
2.876157225E1;1.631978273E0;1.105746269E0;-6.857802868E-1
2.878187125E1;9.250140786E-1;9.816226959E-1;-2.282194853E0
2.880198325E1;3.961482048E-1;2.812223434E-1;-2.988289833E0
2.882159225E1;-1.216837168E-1;-1.382602692E0;-4.436120987E0
2.884158525E1;-7.999824286E-1;-2.494781494E0;-6.859797478E0
2.885172425E1;-8.118641376E-1;-2.633936882E0;-7.799392700E0
2.887166725E1;1.913872361E-1;-3.008763313E0;-5.956068516E0
2.889189125E1;3.001977205E0;-3.325572014E0;-5.195317268E0
2.891165925E1;5.017901897E0;-3.047614098E0;-3.101109505E0
2.893163925E1;2.499590397E0;-5.108639717E0;-4.463100433E0
2.895161625E1;2.992463112E0;-4.914477348E0;-3.398890734E0
2.896197525E1;4.011435986E0;-4.991331100E0;-2.532249451E0
2.898193725E1;4.762303829E0;-2.809625626E0;-3.700845242E0
2.900158125E1;2.659607172E0;-1.036007881E0;-4.005046368E0
2.902159025E1;4.344204068E-1;9.578113556E-1;-1.393700719E0
2.903177225E1;-1.084829092E0;1.625417709E0;-1.403226614E0
2.905170625E1;-4.421730042E0;7.144641876E-2;-8.663450480E-1
2.907154825E1;-2.762907028E0;-1.828094482E0;5.798651695E0
2.908168925E1;-1.685924292E0;-2.238104820E0;6.177467346E0
2.910205025E1;-1.825507283E-1;-2.994823456E0;1.322169781E0
2.912165725E1;-1.837695122E0;-5.278732300E0;7.908926606E-1
2.913185725E1;-2.255249500E0;-4.741731644E0;7.700514197E-1
2.915172225E1;-5.695388317E-1;-1.725175858E0;1.617242336E0
2.916173325E1;4.824965596E-1;-2.249784470E-1;3.006459236E0
2.917207625E1;1.306626201E0;3.101673126E-1;2.939841270E0
2.919177225E1;1.890892625E0;4.327106476E-1;1.714932919E0
2.921154725E1;2.834790707E0;5.226993561E-1;4.465099335E0
2.922154925E1;4.086977482E0;1.155134201E0;5.564895153E0
2.923165825E1;4.689188957E0;1.528038979E0;4.689960003E0
2.924167125E1;3.537247419E0;1.628016472E0;3.901635885E0
2.926161725E1;1.062658787E0;3.075659275E0;2.926020145E0
2.927200525E1;1.057958364E0;4.252852917E0;3.360518217E0
2.929153625E1;7.141603231E-1;5.714838028E0;4.402554035E0
2.930158025E1;7.678186893E-2;5.525125980E0;4.737732410E0
2.931167025E1;-1.249233961E0;5.300910950E0;5.140277386E0
2.932184425E1;-1.864408255E0;4.944999695E0;5.340569496E0
2.933208625E1;-2.114415884E0;4.718816757E0;5.085609436E0
2.935166325E1;-1.294571161E0;5.246227264E0;4.090815544E0
2.937160725E1;-3.568295836E-1;5.422907829E0;3.479478836E0
2.938164825E1;-6.230563521E-1;4.899925232E0;2.942777395E0
2.940159425E1;-1.409537315E0;3.276288509E0;1.363767266E0
2.942176425E1;-2.263866425E0;7.647161484E-1;-1.934646130E0
2.944184125E1;-6.057850838E0;-4.104445457E0;-9.308469772E0
2.946181525E1;-2.989881754E0;-9.976184845E0;-1.057651806E1
2.948169025E1;-1.182634115E0;-1.162593460E1;-9.765323639E0
2.950217325E1;-2.576241732E0;-4.865446091E-1;-8.265380859E0
2.952150425E1;-5.313909531E0;-1.792640686E-1;-4.067545414E0
2.953168225E1;-5.318956375E0;-4.865875244E0;4.516508579E-1
2.955161925E1;-1.189173102E0;-5.407944679E0;6.319614410E0
2.957151925E1;-1.175849438E0;-4.992797852E0;-4.115803719E0
2.958157725E1;-1.584525943E0;-4.873332024E0;-5.390670300E-1
2.959160925E1;-2.954899967E-1;-4.854450226E-1;6.132988930E0
2.960163625E1;1.456997275E0;6.540287018E0;1.142902184E1
2.962156225E1;1.455303669E0;1.184706497E1;2.019433212E1
2.963159325E1;4.113286734E-3;8.740063667E0;1.139863586E1
2.965160825E1;-4.829006672E0;-2.908933640E0;-1.020188713E1
2.967183025E1;4.692544937E0;-3.971597672E0;6.365129471E0
2.969159225E1;8.044903755E0;-8.244237900E-1;5.392334938E0
2.970160925E1;4.372037888E0;-2.968721390E0;1.291654825E0
2.972153925E1;3.784944057E0;-1.651337624E0;-2.390088320E0
2.973158625E1;3.153641939E0;-6.444129944E-1;-2.529810190E0
2.974158825E1;9.853023291E-1;-4.337434769E-1;-2.555916071E0
2.975291025E1;9.623140097E-3;5.584716797E-3;-1.520352602E0
2.977195325E1;-4.763831496E-1;1.464693069E0;1.113537550E-1
2.979164725E1;-1.967086196E0;1.211064339E0;-1.104566336E0
2.980165225E1;-2.280187130E0;1.060550690E0;-1.249791384E0
2.982161125E1;-1.290045857E0;1.968340874E0;-1.251968861E0
2.983165125E1;-9.955568314E-1;2.131476402E0;-1.232072830E0
2.985151225E1;4.209831953E-1;1.535283089E0;-1.369018078E0
2.986158725E1;1.030205488E0;9.274759293E-1;-1.273193955E0
2.987160525E1;1.618240118E0;5.383520126E-1;-1.143798232E0
2.989159125E1;1.529033184E0;8.167037964E-1;-1.327027082E0
2.990167525E1;1.654116750E0;1.052429199E0;-2.303686857E0
2.992159825E1;1.711809635E0;9.538059235E-1;-3.095675945E0
2.993174925E1;1.741357446E0;9.393234253E-1;-3.086490631E0
2.994178025E1;1.732652187E0;1.054146767E0;-3.522249699E0
2.996153225E1;8.431152105E-1;4.107170105E-1;-5.013830662E0
2.997155925E1;-1.202742904E-1;-1.288614273E-1;-5.060287952E0
2.998170925E1;-7.684162855E-1;-4.549207687E-1;-5.024105072E0
3.000154325E1;-4.322149158E-1;-1.205326080E0;-5.201936245E0
3.001202325E1;1.489689052E-1;-2.331838608E0;-5.177381516E0
3.003209625E1;2.037351608E0;-3.053992271E0;-5.413560867E0
3.005152925E1;3.826914310E0;-2.145742416E0;-4.844786644E0
3.007158625E1;3.299832821E0;-2.591099739E0;-2.785949230E0
3.008170525E1;1.865631819E0;-3.234964371E0;-4.125287533E0
3.009189625E1;-4.620649815E-1;-5.181038857E0;-6.957037926E0
3.011152125E1;3.775810480E0;-4.094801903E0;-3.042954922E0
3.012166425E1;4.655779362E0;-2.557758331E0;-3.723914862E0
3.014176525E1;4.469339371E0;-4.821681976E-1;-4.180340767E0
3.016165625E1;1.442845345E0;8.761320114E-1;-1.058085203E0
3.018167625E1;-1.774702072E0;-2.666785240E0;-6.521683931E-2
3.020162625E1;-1.331824183E0;-4.087153435E0;3.528344870E0
3.022151725E1;-1.309680939E0;-4.777174950E0;2.322803497E0
3.023164025E1;-1.468994260E0;-5.149900436E0;1.444844604E0
3.025200025E1;-4.691764414E-1;-4.559068680E0;2.427007914E0
3.027155425E1;-1.622657299E0;-4.757163048E0;1.480707407E0
3.028161025E1;-1.488424778E0;-4.383222580E0;1.341821909E0
3.029207825E1;2.120904028E-1;-2.383696556E0;1.353247046E0
3.030257825E1;1.394143105E-1;-1.201523781E0;1.687835693E0
3.032250025E1;2.666353226E0;2.455139160E-1;2.907840014E0
3.033269625E1;3.643720627E0;6.110763550E-1;3.101760149E0
3.034269725E1;3.685237408E0;5.578298569E-1;4.462972641E0
3.036166525E1;3.321439266E0;1.466592312E0;6.445959091E0
3.038157825E1;2.285994768E0;2.750795841E0;4.352622986E0
3.039166625E1;2.043120861E0;3.580773830E0;4.219396591E0
3.041155225E1;1.970257282E0;5.051826477E0;5.602070808E0
3.042164025E1;1.613456964E0;6.528468132E0;5.857528687E0
3.044164025E1;1.670822203E-1;6.851264954E0;5.568881035E0
3.046152925E1;-1.451637268E0;5.529725075E0;6.026378155E0
3.047155125E1;-1.564333200E0;5.362543106E0;5.799693108E0
3.048159025E1;-1.612663984E0;5.674861908E0;6.006860733E0
3.049205425E1;-9.976984262E-1;6.116630554E0;5.260391235E0
3.051152325E1;-1.139011264E0;5.123506069E0;3.179565907E0
3.052152325E1;-8.620888591E-1;3.892423153E0;2.349245548E0
3.053273725E1;-6.166578531E-1;2.399251938E0;1.032080293E0
3.055178625E1;-3.687237501E0;-1.926515579E0;-3.893621922E0
3.057157825E1;-5.743941307E0;-7.676842690E0;-1.348916340E1
3.058163225E1;-4.108695984E0;-1.137752914E1;-1.162260818E1
3.060207625E1;-1.104773521E0;-1.439342213E1;-1.072423363E1
3.062153425E1;-2.437585115E0;-4.434274673E0;-9.499747276E0
3.063168225E1;-2.524175167E0;4.676036835E-1;-6.639439583E0
3.065168525E1;-1.889801741E0;5.989630699E0;-4.470389366E0
3.067161125E1;-2.290790230E-1;1.515599728E0;2.601439238E0
3.069175125E1;3.713646889E0;-1.585572243E0;-1.468766928E0
3.071161725E1;2.193249702E0;-9.420592308E0;9.124781609E0
3.072163325E1;-2.307313979E-1;-1.053267288E1;1.366693306E1
3.073262525E1;-3.833286762E0;-6.443481445E0;8.297216415E0
3.074649225E1;-5.371634007E0;1.406099319E0;8.055639267E0
3.076181725E1;-4.907884598E0;7.974205017E0;1.132259083E1
3.078161225E1;-3.823777676E0;7.038504124E0;-4.279364586E0
3.079234225E1;-8.940079808E-1;4.506128311E0;-3.533717632E0
3.081162825E1;4.105810165E0;-3.156114578E0;6.230519772E0
3.082163925E1;6.434951305E0;-4.535882950E0;6.588759422E0
3.083204325E1;7.368455887E0;-4.550345421E0;5.207396984E0
3.085160725E1;5.651041031E0;-3.599886894E0;1.842502475E0
3.086161825E1;4.245344639E0;-2.725556374E0;-4.007148743E-1
3.088162125E1;-2.953447104E-1;5.751800537E-1;-1.421507597E0
3.089164525E1;-2.046584845E0;1.115075111E0;-5.782306790E-1
3.090164525E1;-2.922707558E0;1.896472454E0;-5.489286184E-1
3.092162925E1;-4.107718945E0;2.712599754E0;-7.809212804E-1
3.093163425E1;-4.026155472E0;2.062365055E0;-1.013869643E0
3.095179525E1;-1.517283559E0;4.563093185E-1;-3.462778330E-1
3.097155225E1;1.706643343E0;1.147480965E0;-1.114468098E0
3.098193025E1;2.319548130E0;1.505492210E0;-1.388617635E0
3.100264525E1;1.903758049E0;1.457433701E0;-7.248077393E-1
3.102233925E1;1.343253493E0;1.751998901E0;-3.581335545E-1
3.104326925E1;1.077135444E0;2.023299217E0;-2.599342108E0
3.106183925E1;2.213117480E-1;5.538625717E-1;-3.640509844E0
3.107218825E1;4.233371615E-1;-2.021827698E-1;-5.095101833E0
3.108331025E1;4.259842038E-1;-9.080600739E-2;-5.809093475E0
3.110162625E1;-1.120362580E-1;-1.350956917E0;-5.741819382E0
3.112298425E1;-5.110434890E-1;-3.026252747E0;-6.010720253E0
3.114535725E1;3.109173298E0;-1.886275291E0;-4.653057575E0
3.116159025E1;6.047247410E0;-1.852435112E0;-2.495530367E0
3.117161425E1;5.352578640E0;-2.966108322E0;-4.089037418E0
3.118167025E1;4.015116692E0;-4.616474152E0;-5.950752258E0
3.120154225E1;2.007117271E0;-5.118235588E0;-4.384542465E0
3.121159125E1;-7.281199098E-2;-5.721109390E0;-4.629570961E0
3.122216525E1;-5.693972111E-2;-4.889927864E0;-5.934777260E0
3.123246725E1;1.365697145E0;-3.194116592E0;-3.600790024E0
3.125154125E1;1.007301688E0;1.024762154E0;-2.520584106E0
3.126154125E1;-1.534532547E0;5.968332291E-1;-1.860896230E0
3.127157225E1;-3.701321125E0;-1.967140198E0;6.740765572E-1
3.128173225E1;-3.623869419E0;-2.910334587E0;2.499245405E0
3.130161225E1;-3.167519808E0;-4.409002304E0;2.146833897E0
3.132159525E1;-1.612200975E0;-5.146614075E0;1.736076236E0
3.133165325E1;-1.512059808E0;-5.037170410E0;2.446819782E0
3.135155525E1;-2.672589779E0;-4.786075592E0;5.741214752E-1
3.137428525E1;-2.066519022E0;-3.064743996E0;5.541208982E-1
3.138888625E1;1.821758866E0;-6.200408936E-2;2.050964117E0
3.140179925E1;2.011736393E0;-1.093912125E-1;2.211324215E0
3.142152225E1;2.805130005E0;4.593935013E-1;3.346199751E0
3.143156125E1;2.874088526E0;5.305004120E-1;5.376663208E0
3.145155725E1;2.963061810E0;1.154205322E0;5.606528759E0
3.146226025E1;1.436954498E0;1.542149067E0;3.578894138E0
3.147624025E1;6.173536777E-1;3.244132519E0;3.285265684E0
3.148848025E1;6.229166985E-1;5.112510204E0;5.129736900E0
3.150173025E1;1.091344953E-1;5.799062729E0;5.393321514E0
3.152157125E1;-4.783131480E-1;5.750426292E0;5.277525902E0
3.153159625E1;-7.943481207E-1;5.532169342E0;5.217730045E0
3.154166625E1;-9.995284081E-1;5.488845825E0;5.081285000E0
3.155297625E1;-8.600432277E-1;5.509105206E0;4.919034004E0
3.157151425E1;1.703228354E-1;5.950826645E0;4.457455158E0
3.158224925E1;9.142833948E-1;6.109421253E0;4.165684700E0
3.160169925E1;1.601291418E0;5.692035675E0;2.804801464E0
3.162201525E1;3.588932157E-1;3.854998112E0;5.296983719E-1
3.164157125E1;-1.398193002E0;4.630489349E-1;-4.401335716E0
3.166168725E1;-7.901873589E0;-9.408918381E0;-1.154214573E1
3.167217425E1;-6.268056393E0;-1.335192680E1;-1.104609394E1
3.169158725E1;-2.925737858E0;-1.183848858E1;-8.416276932E0
3.170159025E1;-2.749128819E0;-5.932021141E0;-7.331542969E0
3.171159225E1;-3.689159155E0;-1.636630058E0;-6.975646019E0
3.172159525E1;-4.495997429E0;1.297925949E0;-5.646311760E0
3.173160125E1;-4.024698734E0;3.111616611E0;-3.478032112E0
3.174869225E1;-3.211368084E0;-2.614283562E0;2.077890396E0
3.176158425E1;-1.502124548E0;-3.717611313E0;2.378252983E0
3.177170525E1;-1.065137506E0;-4.517704010E0;-1.348105192E0
3.178262925E1;-5.324785709E-1;-5.159067154E0;-3.373966217E0
3.180196025E1;2.886831284E0;-3.585295677E0;1.425245857E1
3.182156925E1;3.887008190E0;5.841166019E0;1.492695904E1
3.183162125E1;2.407831669E0;6.706774712E0;1.046480179E1
3.184302125E1;-9.112763405E-2;2.127910137E0;-4.917874336E0
3.186156325E1;3.761044264E0;-5.103912354E-1;7.730663300E0
3.187264225E1;5.759409428E0;-5.985050201E-1;6.834435463E0
3.189153525E1;4.255669594E0;-2.191527367E0;1.904441953E0
3.190156525E1;3.009609938E0;-2.793290138E0;-9.893620014E-2
3.191218925E1;2.338756561E0;-2.872203827E0;-1.266932011E0
3.193165425E1;1.721729755E0;-1.834005356E0;-1.287333369E-1
3.195166525E1;-4.595934451E-1;-2.842760086E-1;1.626702189E0
3.196169925E1;-1.019290328E0;1.026481628E0;-3.928016424E-1
3.198161325E1;-2.699031830E0;2.027034283E0;-4.411167622E0
3.200164125E1;-2.260311604E0;1.787060261E0;-2.007980108E0
3.202154825E1;-4.632159472E-1;1.872972965E0;1.470071077E-2
3.203157125E1;4.500273466E-1;1.887072563E0;7.094547153E-1
3.204165725E1;8.264304996E-1;1.614110947E0;3.148983717E-1
3.205169825E1;1.458107948E0;1.302737236E0;-6.736690402E-1
3.207168325E1;1.070641518E0;1.295352936E0;-1.938368082E-1
3.209153725E1;1.017150521E0;1.553889275E0;-1.314532995E0
3.210161725E1;8.762884736E-1;1.557287216E0;-2.488984346E0
3.211165925E1;7.046194077E-1;1.212298393E0;-3.259008408E0
3.213163225E1;1.184978843E0;1.162719727E-2;-3.147617102E0
3.215152925E1;9.302156568E-1;-1.001609802E0;-2.948019266E0
3.216156425E1;6.931269169E-2;-9.138822556E-1;-3.481748581E0
3.217158825E1;-1.096183181E0;-8.429660797E-1;-4.946449280E0
3.218163225E1;-2.150070667E0;-1.282316208E0;-6.040316105E0
3.220161225E1;-9.932984114E-1;-2.589466095E0;-5.556280136E0
3.222160425E1;2.773727417E0;-1.938315392E0;-3.453966379E0
3.223306225E1;4.597345829E0;-2.748082161E0;-2.707585573E0
3.225151025E1;3.293495655E0;-4.447545052E0;-4.700565338E0
3.226170625E1;2.661149025E0;-4.560892105E0;-4.651211739E0
3.228160225E1;2.025806427E0;-4.898993492E0;-3.821738243E0
3.230161125E1;2.172974348E0;-1.759326935E0;-3.258851528E0
3.232165025E1;7.167924643E-1;3.873538971E-2;-2.155191898E0
3.233173525E1;-1.494158745E0;8.072690964E-1;-3.020221710E0
3.235179625E1;-4.432270527E0;-2.898054123E-1;1.145452261E-1
3.237192225E1;-4.370021820E0;-2.539968491E0;1.622649789E0
