"Time (s)";"Linear Acceleration x (m/s^2)";"Linear Acceleration y (m/s^2)";"Linear Acceleration z (m/s^2)"
6.034057000E-2;-5.356311798E-1;-3.893001080E-1;-9.131026268E-1
8.329176700E-2;-3.453214169E-1;-2.902646065E-1;-9.230389595E-1
9.978750000E-2;-3.453972340E-1;-2.900359631E-1;-9.230828285E-1
1.099175000E-1;-4.017505646E-1;-3.638706207E-1;-1.218611240E0
1.298345000E-1;-4.198479652E-1;-4.358108044E-1;-1.445645332E0
1.402935000E-1;-2.945797443E-1;-2.952218056E-1;-1.082633018E0
1.601615000E-1;-1.668233871E-1;-1.653900146E-1;-6.800279617E-1
1.807865000E-1;-1.981568336E-1;-1.986558437E-1;-7.955398560E-1
1.932655000E-1;-1.738493443E-1;-1.833257675E-1;-6.641511917E-1
2.073195000E-1;-2.142095566E-2;-2.289628983E-2;-8.666515350E-2
2.197765000E-1;1.330685616E-1;1.307663918E-1;5.776309967E-1
2.298745000E-1;1.910308599E-1;1.759892702E-1;9.314470291E-1
2.499685000E-1;2.928555012E-2;2.928316593E-2;2.058181763E-1
2.605105000E-1;-3.536820412E-2;-3.820884228E-2;-2.792482376E-1
2.799865000E-1;-9.475982189E-2;-1.263071299E-1;-8.347101212E-1
2.902205000E-1;-1.105765104E-1;-1.328260899E-1;-8.977785110E-1
3.098205000E-1;-4.926908016E-2;-3.848302364E-2;-2.416152954E-1
3.206805000E-1;5.684328079E-2;4.142582417E-2;2.276096344E-1
3.411625000E-1;3.466196060E-1;2.310291529E-1;1.267961502E0
3.597855000E-1;4.198127985E-1;2.475336790E-1;2.045848846E0
3.797985000E-1;2.990603447E-2;2.837085724E-2;2.104434967E-1
3.898875000E-1;-1.050949097E-2;-1.295340061E-2;-8.708763123E-2
4.098365000E-1;-1.868093014E-2;-1.660776138E-2;-1.172456741E-1
4.200515000E-1;2.507209778E-2;1.873683929E-2;1.254491806E-1
4.398015000E-1;7.034671307E-2;4.614531994E-2;3.493776321E-1
4.498485000E-1;5.151307583E-2;3.180527687E-2;2.605981827E-1
4.698255000E-1;8.594727516E-2;5.841672421E-2;3.449554443E-1
4.906435000E-1;-1.023831367E-1;-7.435679436E-2;-3.975200653E-1
5.012195000E-1;-1.379970312E-1;-1.018868685E-1;-6.436443329E-1
5.199545000E-1;-4.571437836E-2;-3.268563747E-2;-3.234453201E-1
5.398895000E-1;1.496535540E-1;8.109402657E-2;8.135700226E-1
5.598885000E-1;5.062062740E-1;2.717760801E-1;2.215131760E0
5.698925000E-1;5.522334576E-1;3.009041548E-1;2.226086617E0
5.840535000E-1;5.266449451E-1;2.961585522E-1;1.944154739E0
5.998485000E-1;6.292335987E-1;3.136082888E-1;2.159914970E0
6.104825000E-1;7.170593739E-1;3.390218019E-1;2.481506348E0
6.300705000E-1;6.099660397E-1;2.364072204E-1;2.361174583E0
6.498035000E-1;4.181745052E-1;1.637579203E-1;1.726154327E0
6.598485000E-1;3.753757477E-1;1.675056219E-1;1.443807602E0
6.699055000E-1;3.117003441E-1;1.550365686E-1;1.095887184E0
6.809215000E-1;2.644028664E-1;1.368467808E-1;8.759498596E-1
6.916775000E-1;2.550330162E-1;1.327759027E-1;8.456010818E-1
7.111325000E-1;2.321012020E-1;1.131883860E-1;8.610315323E-1
7.299455000E-1;7.182049751E-2;4.011285305E-2;2.684392929E-1
7.500695000E-1;-1.165132523E-1;1.374582052E-1;-1.580410004E-1
7.601845000E-1;-3.630757332E-2;5.964660645E-2;-2.635955811E-2
7.798295000E-1;1.184043884E-1;4.382985830E-2;4.493932724E-1
7.899705000E-1;7.040047646E-2;2.377897501E-2;2.834930420E-1
8.098155000E-1;5.575108528E-2;1.847440004E-2;2.494754791E-1
8.202485000E-1;3.975868225E-2;1.188641787E-2;1.780729294E-1
8.409765000E-1;1.952695847E-2;5.265772343E-3;8.443832397E-2
8.598445000E-1;1.768803596E-2;5.833327770E-3;7.266521454E-2
8.699325000E-1;-2.756094933E-2;-8.691787720E-3;-1.172933578E-1
8.899275000E-1;-1.036612988E-1;-4.343026876E-2;-4.375324249E-1
9.008825000E-1;-1.451411247E-1;-6.993174553E-2;-5.755691528E-1
9.198355000E-1;-2.156109810E-1;-8.846676350E-2;-9.220790863E-1
9.298765000E-1;-1.869487762E-1;-5.646437407E-2;-9.749870300E-1
9.420420000E-1;5.302429199E-4;7.092952728E-5;3.065109253E-3
9.599905000E-1;9.589195251E-4;1.179277897E-4;2.989768982E-3
9.805155000E-1;1.447474957E-2;2.824962139E-3;8.184719086E-2
9.910225000E-1;2.134561539E-2;4.683881998E-3;1.079854965E-1
1.010020500E0;-1.633214951E-2;-6.274223328E-3;-6.478595734E-2
1.029955500E0;-1.563961506E-1;-6.485462189E-2;-6.276865005E-1
1.040869500E0;-2.158147097E-1;-8.398950100E-2;-9.939756393E-1
1.059979500E0;-4.988657236E-1;-5.895943642E-1;-5.945549011E-1
1.070642000E0;-3.002018929E-1;-5.948112011E-1;6.689834595E-2
1.081736500E0;-2.993493080E-1;-5.933578610E-1;6.659889221E-2
1.100106500E0;-1.204273701E-1;-4.508077800E-1;-1.705303192E-1
1.110116500E0;1.257796288E-1;-3.305810392E-1;-8.649253845E-2
1.125221500E0;2.825734615E-1;5.373448133E-2;-2.997503281E-1
1.150099500E0;1.957771778E-1;-1.198906302E-1;-6.413135529E-1
1.160802500E0;2.645360231E-1;-2.755486965E-2;5.796852112E-1
1.179832500E0;5.929112434E-3;-3.630118370E-1;1.090478897E0
1.190398500E0;-4.147553444E-1;-3.493296504E-1;1.295652390E-1
1.211260500E0;-3.239678144E-1;-2.515095472E-2;-5.710592270E-1
1.223153500E0;-1.345921755E-1;3.053581715E-2;-6.565093994E-1
1.240474500E0;-2.626947165E-1;-1.909679472E-1;-6.990041733E-1
1.261898500E0;-1.395974159E-1;-7.633784413E-2;-3.577709198E-1
1.275106000E0;-3.949141502E-2;-1.859386861E-1;3.825502396E-1
1.290140500E0;6.612098217E-2;-2.962742448E-1;6.441955566E-1
1.300262500E0;3.330969810E-2;-2.667738497E-1;7.355203629E-1
1.319807500E0;-6.219416857E-1;-5.203915834E-1;-4.906148911E-1
1.329894500E0;-8.985514641E-1;-5.566069484E-1;-1.123085022E0
1.349856500E0;-8.736673594E-1;-5.785216093E-1;-1.100930214E0
1.369824500E0;-4.929089546E-2;-2.044175118E-1;-9.036417007E-1
1.389869500E0;7.998467684E-1;1.812967658E-1;2.786960602E-1
1.399912500E0;8.034200668E-1;1.659546196E-1;4.261741638E-1
1.419896500E0;-4.138612747E-1;-3.105369210E-1;-3.882169724E-1
1.429914500E0;-1.035692096E0;-6.292130351E-1;-7.111787796E-1
1.449857500E0;-1.017135501E0;-6.312615871E-1;9.161090851E-2
1.469855500E0;6.443202496E-2;4.014449194E-2;2.880859375E-1
1.480021500E0;5.389622450E-1;2.901045382E-1;6.033554077E-1
1.490637500E0;6.078985929E-1;3.083742857E-1;5.480604172E-1
1.510644500E0;5.486321449E-2;-1.033830047E-1;-2.274160385E-1
1.529995500E0;2.324854136E-1;-3.185402974E-2;-1.445703506E-1
1.540096500E0;1.980817318E-1;9.774707258E-2;-4.479017258E-1
1.559862500E0;-8.068362474E-1;-7.399982214E-1;6.238155365E-1
1.569947500E0;-1.308671474E0;-1.236305714E0;8.456277847E-1
1.590089500E0;-1.277158141E0;-1.463890553E0;-1.908264160E-1
1.609889500E0;-6.657838821E-2;-2.904866338E-1;-1.739939213E0
1.629866500E0;-2.508118153E-1;-4.206231833E-1;-1.987797737E0
1.640803500E0;-9.234334230E-1;-1.213687539E0;-1.750181675E0
1.659806500E0;-9.545080662E-1;-1.419169426E0;-7.954931259E-1
1.669897500E0;-5.594391823E-1;-1.083012700E0;-6.331920624E-1
1.690469500E0;-7.386448383E-1;-8.103244305E-1;-1.751770020E0
1.709825500E0;-6.641876698E-1;-9.297065139E-1;-2.426247120E0
1.729940500E0;2.072926760E0;-1.004062891E-1;-7.563304901E-1
1.740243500E0;2.221774578E0;8.589067459E-1;6.061658859E-1
1.759834500E0;-2.083864212E-1;-1.150767446E0;7.731370926E-1
1.769967500E0;1.271276474E-1;-1.200734615E0;1.449708939E-1
1.790217500E0;1.723725796E0;1.251444578E0;1.653681755E0
1.809963500E0;1.015324593E-1;-4.083251953E-1;1.042678833E0
1.829865500E0;-1.674258232E0;-1.260121822E0;-9.219908714E-1
1.840151500E0;-2.429282427E0;-1.794569969E0;-1.492904186E0
1.859886500E0;-2.032667875E0;-1.213273287E0;-2.256260395E0
1.869952500E0;-1.143814564E0;-1.511682272E-1;-2.056600571E0
1.889937500E0;1.503939629E-1;7.772811055E-1;-1.953768730E0
1.909965500E0;-6.539459229E-1;-4.513391852E-1;-6.859807968E-1
1.920011500E0;-1.144266129E0;-9.633471370E-1;-8.905210495E-1
1.940293500E0;-5.466103554E-1;-1.322345853E0;-5.361142159E-1
1.960038500E0;1.441197395E0;6.508408189E-1;9.421610832E-1
1.970162500E0;1.002254963E0;3.540850878E-1;8.117809296E-1
1.990556500E0;5.716462135E-1;1.858978271E-1;-1.292681694E-1
2.009903500E0;9.338078499E-1;1.140511036E-2;5.421733856E-1
2.020073500E0;1.402787209E0;2.946368456E-1;1.084794044E0
2.030159500E0;2.020935535E0;5.077923536E-1;1.131431103E0
2.040424500E0;2.389819622E0;6.460173130E-1;1.321525574E0
2.059934500E0;2.339288235E0;2.854235172E-1;1.656331539E0
2.070123500E0;2.280360222E0;1.376962662E-1;1.657916546E0
2.080226500E0;1.777557850E0;-2.372908592E-2;1.536785603E0
2.099960500E0;2.039311409E0;3.672201633E-1;3.177461624E-1
2.110112500E0;2.433853149E0;6.841753721E-1;-4.822807312E-1
2.132089500E0;2.405100822E0;5.823936462E-1;-1.393565655E0
2.142986500E0;1.501378059E0;2.627921104E-2;-1.463138342E0
2.160661500E0;7.372217178E-1;-4.988110065E-1;-1.686609983E0
2.180009500E0;4.228591919E-1;-8.910300732E-1;-1.715799809E0
2.201271500E0;1.905374527E-1;-6.067495346E-1;-1.651375532E0
2.219960500E0;-8.430986404E-1;-9.298682213E-1;-3.005253315E0
2.240050500E0;-4.705333710E-2;-8.473482132E-1;-2.890190840E0
2.253016500E0;3.145017624E-1;-7.978706360E-1;-2.070236921E0
2.270171500E0;1.321582794E0;-6.286520958E-1;-5.247633457E-1
2.290176500E0;-6.357479095E-2;-9.744157791E-1;-1.439084768E0
2.300324500E0;2.700462341E-1;-1.594572067E-1;-1.167698264E0
2.311078500E0;-1.267385483E-1;-5.950927734E-4;-7.752438784E-1
2.329998500E0;-7.635483742E-1;-5.097522736E-1;-8.475620747E-1
2.341726500E0;8.145351410E-1;2.846009731E-1;-6.131967306E-1
2.359978500E0;2.051453590E0;1.443023920E0;3.359755278E-1
2.379807500E0;3.208818436E-1;4.948258400E-1;2.426408529E-1
2.389972500E0;-4.384880066E-1;8.237695694E-2;-3.065314889E-1
2.410641500E0;-1.224961281E0;-7.259674072E-1;-5.135217905E-1
2.431206500E0;-8.118262291E-1;-5.199060440E-1;4.233807325E-2
2.450336500E0;-3.183431625E-1;-3.789067268E-1;-5.928764939E-1
2.461266500E0;-1.993417740E-1;1.313209534E-2;-5.106319189E-1
2.479843500E0;8.712606430E-1;7.663040161E-1;4.875608087E-1
2.490209500E0;7.966480255E-1;1.056014061E0;7.200497389E-1
2.510058500E0;-3.442935944E-1;6.824045181E-1;5.493564606E-1
2.529790500E0;-1.875571251E0;-3.328776360E-1;-1.489658117E0
2.540097500E0;-2.212333202E0;-1.108541012E0;-2.483162642E0
2.559827500E0;-6.815428734E-1;-1.234679222E0;-1.765665412E-2
2.579842500E0;4.668812752E-1;-8.410930634E-1;2.683350086E0
2.589927500E0;1.478667259E-1;-8.030056953E-1;1.949894428E0
2.600304500E0;1.381168365E-1;-7.595596313E-1;5.673591495E-1
2.619775500E0;9.758801460E-1;1.741604805E-1;-5.985988975E-1
2.629804500E0;1.032726765E0;2.909154892E-1;-3.781739473E-1
2.649812500E0;1.225389481E0;-3.822288513E-1;-9.915969372E-1
2.669823500E0;1.230525017E0;-8.797783852E-1;7.447832227E-1
2.689951500E0;5.210351944E-2;-7.481298447E-1;8.828548789E-1
2.709767500E0;-1.661512375E0;-1.155294418E0;-1.090252042E0
2.719834500E0;-1.100193024E0;-7.787532806E-1;-1.537114382E0
2.740322500E0;3.399045467E0;-1.316721916E0;1.985411048E0
2.760149500E0;2.513669014E0;-5.827064514E-1;2.429454178E-1
2.779789500E0;2.352030277E0;1.576886177E-1;-2.139097214E0
2.789820500E0;1.216053009E0;-2.409467697E-1;-1.916963577E0
2.809943500E0;1.285257339E-1;-8.072595596E-1;-1.979337215E0
2.831642500E0;-3.027004719E0;-1.100538254E0;1.111702323E-1
2.841980000E0;-4.734403610E0;-2.209898472E0;6.967443228E-2
2.860893625E0;-5.048131466E0;-5.095849037E-1;1.500756979E0
2.871689062E0;-3.506727695E0;4.294276237E-1;1.898814201E0
2.882200281E0;-3.478623867E0;4.670515060E-1;1.954927683E0
2.900094500E0;-2.194476128E0;1.319381237E0;1.554810762E0
2.910944500E0;-7.266554832E-1;2.343084097E0;-2.545733154E-1
2.930712500E0;9.142398834E-2;1.953646660E0;-6.118751764E-1
2.949816500E0;-1.052872658E0;5.841293335E-1;-2.955792844E-1
2.959838500E0;-2.203568459E0;-1.812276840E-1;-2.695084214E-1
2.971041500E0;-2.939566612E0;-7.658028603E-1;-8.528712392E-1
2.990205500E0;-1.956916332E0;-8.822903633E-1;-8.899083138E-1
3.009839500E0;-1.129856110E-1;-1.260871887E-1;2.513380051E-1
3.029789500E0;6.452999115E-1;6.858396530E-2;-1.031722054E-1
3.039802500E0;5.063076019E-1;3.499269485E-2;-9.440969825E-1
3.059867500E0;-8.633680344E-1;-6.639423370E-1;-7.361609340E-1
3.072424500E0;-1.644785881E0;-1.072054863E0;-8.633265495E-1
3.089806500E0;-1.583452225E0;-4.607405663E-1;-1.403896570E0
3.100783500E0;-1.235702515E0;-2.437477112E-1;-1.308995247E0
3.120661500E0;2.462539673E-1;7.296276093E-1;-5.897130370E-1
3.141665500E0;1.585979939E0;8.561124802E-1;-9.445055127E-1
3.160585500E0;2.684830189E0;-6.129679680E-1;-1.055761218E0
3.180588500E0;2.345340252E0;-1.090004444E0;-1.525397599E-1
3.203126500E0;-1.484999657E0;-4.423642159E-1;3.009509325E0
3.216659500E0;-1.627699375E0;1.283869743E-1;1.917915702E0
3.229826500E0;-1.097278595E0;2.620391846E-1;1.820367217E0
3.239865500E0;-1.497826099E0;-6.798315048E-2;2.104370117E0
3.250281500E0;-1.613480568E0;-1.648087502E-1;1.945593476E0
3.263082500E0;-1.065364361E0;-2.722172737E-1;9.740969539E-1
3.279801500E0;-3.178925514E-1;-3.632111549E-1;1.981628537E-1
3.290016500E0;1.056842804E-1;5.315446854E-2;7.679606080E-1
3.300761500E0;5.477766991E-1;5.104250908E-1;1.322045922E0
3.313878500E0;5.619902611E-1;6.982140541E-1;5.756891966E-1
3.327895500E0;-7.948112488E-2;4.582533836E-1;-1.214533567E0
3.342371500E0;-4.766101837E-1;3.965625763E-1;-1.494083047E0
3.356556500E0;-1.022053242E0;8.350896835E-2;-1.362082124E0
3.371377500E0;-2.551136017E0;-6.047148705E-1;-1.080204725E0
3.390094500E0;-2.703427792E0;-8.191056252E-1;-1.052035332E0
3.403636500E0;-2.184274435E0;-5.108060837E-1;-3.672691286E-1
3.420088500E0;2.187423706E-1;7.192702293E-1;8.208464384E-1
3.445559500E0;2.650911331E0;4.976077080E-1;1.068588495E0
3.460822500E0;1.968161583E0;3.115162849E-1;1.227935553E0
3.479824500E0;-2.793931961E-2;3.766765594E-1;6.980863214E-1
3.492542500E0;-7.995443344E-1;-3.073148727E-1;-1.120594501E0
3.509963500E0;-1.008338451E0;-7.883939743E-1;-1.677375078E0
3.522678500E0;-1.104717731E0;-1.482155800E0;-5.404874682E-1
3.535755000E0;-2.046923637E-1;-8.641328812E-1;-6.672072411E-1
3.549787500E0;-5.580534935E-1;-1.720771790E-1;-9.975368977E-1
3.559955500E0;-9.415683746E-1;7.848577499E-1;-1.323891878E0
3.579815500E0;-8.417143822E-1;8.040919304E-1;-7.087618113E-2
3.590690500E0;-8.263173103E-1;5.850272179E-1;1.437361479E0
3.610313500E0;-5.648756027E-2;1.427112579E0;2.991915226E0
3.620656500E0;9.146499634E-1;3.729855537E0;2.651291847E0
3.641922500E0;4.156177998E0;6.315239906E0;2.617326021E0
3.660396500E0;-3.091588020E-1;7.315197468E0;-1.250281096E0
3.679860500E0;-2.780226707E0;5.941792011E0;-6.391381741E0
3.690750500E0;-3.305637836E0;4.882936001E0;-4.241032124E0
3.710143500E0;-4.670587063E0;1.856858253E0;1.493713021E0
3.729885500E0;-3.532071114E0;4.294454575E0;-1.729056835E-1
3.740754500E0;-1.454886198E0;-1.071300507E-1;-1.841397166E0
3.760071500E0;6.329289436E0;-1.867756653E1;-4.995076180E0
3.779954500E0;6.255394936E0;-1.820825958E1;4.835163116E0
3.799781500E0;-3.968528271E0;-6.783953667E0;4.824549675E0
3.809870500E0;-6.462131500E0;-2.051460266E0;2.799629450E0
3.829912500E0;-6.787750244E0;3.374199867E0;-2.464687347E0
3.840814500E0;-5.262497425E0;3.746465206E0;-4.191994190E0
3.859812500E0;-1.128157377E0;1.341301441E0;-1.526768327E0
3.879854500E0;1.070922375E0;-6.207971573E-1;2.130746841E-3
3.890078500E0;1.102626324E0;-8.641119003E-1;1.411939621E0
3.900145500E0;-3.671107292E-1;-4.269275665E-1;2.836488962E0
3.919772500E0;-8.915164471E-1;1.432886124E-1;1.656532764E0
3.929886500E0;-4.268383980E-1;4.834489822E-1;2.181004286E-1
3.942884500E0;-1.401515007E-1;3.811903000E-1;-9.755804539E-1
3.959835500E0;-1.952507496E-1;-2.087659836E-1;-1.380223989E0
3.969893500E0;-1.234962940E-1;-3.198690414E-1;-7.325999737E-1
3.980068500E0;1.891732216E-2;-2.882223129E-1;-9.574413300E-3
3.999921500E0;1.005539894E-1;-2.341833115E-1;4.349433184E-1
4.010428500E0;6.961822510E-4;-2.317581177E-1;6.418074369E-1
4.029859500E0;-3.670895100E-1;4.182720184E-2;6.971679926E-1
4.039991500E0;-6.426901817E-1;7.812500000E-2;4.195734262E-1
4.060547500E0;-8.371281624E-1;-2.282848358E-1;2.665588856E-1
4.079839500E0;-6.070752144E-1;-3.046836853E-1;8.430087566E-2
4.089891500E0;-4.933543205E-1;-1.938419342E-1;7.393610477E-2
4.110514500E0;-5.875687599E-1;-4.031181335E-2;-1.177666187E-1
4.129917500E0;-6.943662167E-1;-1.326732635E-1;4.484077692E-1
4.141231500E0;-7.137329578E-1;-1.209316254E-1;5.123474598E-1
4.159970500E0;-4.815247059E-1;9.318351746E-3;2.445857525E-1
4.179832500E0;-2.651612759E-1;-1.949148178E-1;3.374520540E-1
4.190019500E0;-1.768710613E-1;-4.903659821E-1;-1.209932566E-1
4.209925500E0;-1.729130745E-2;-3.025503159E-1;2.867704630E-1
4.229803500E0;-2.883136272E-1;9.535503387E-2;-2.074935436E-1
4.240158500E0;-4.368178844E-1;5.337619781E-2;-4.511718750E-1
4.262723500E0;1.027390957E-1;6.332635880E-1;-9.935069084E-2
4.279834500E0;-3.357918262E-1;-5.029335022E-1;1.057130694E0
4.292458500E0;2.098617554E-1;4.395694733E-1;1.862170696E-1
4.309803500E0;-1.020033360E-1;1.003448963E0;-5.441956520E-1
4.329868500E0;-2.595676899E0;-1.603694916E0;-5.473194122E-1
4.340202500E0;-3.056203365E0;-3.154971123E0;-1.133861542E-1
4.360034500E0;-9.703691006E-1;-1.585197449E-1;1.794984341E-1
4.379816500E0;8.334758282E-1;1.978413582E0;8.800264597E-1
4.393931500E0;9.342703819E-1;1.882395744E0;1.371366620E0
4.411047500E0;5.982604027E-1;-6.032943726E-2;3.035480976E-1
4.422228500E0;-1.692247391E-1;-9.509954453E-1;-1.078419685E-1
4.439814500E0;-4.483242035E-1;-9.086170197E-1;-6.932084560E-1
4.449897500E0;-4.693551064E-1;-7.426300049E-1;-6.837391853E-1
4.459970500E0;-5.851900578E-1;-6.173992157E-1;-4.314661026E-1
4.469994500E0;-8.861776590E-1;-6.191730499E-1;-3.037638664E-1
4.481264500E0;-1.307520628E0;-3.325042725E-1;-2.158610821E-1
4.492910500E0;-1.269421101E0;2.245044708E-1;6.471824646E-2
4.519861500E0;-2.023478746E-1;1.646311283E0;8.122363091E-1
4.529863500E0;1.122106314E-1;1.602199554E0;1.138077617E0
4.539963500E0;2.684218884E-1;1.054411888E0;1.130751729E0
4.559911500E0;1.560128927E-1;-1.994562149E-1;6.948088408E-1
4.579885500E0;-4.760435224E-1;-5.671787262E-2;6.451606750E-2
4.590312500E0;-4.721183181E-1;5.342073441E-1;-3.505864143E-1
4.612221500E0;-2.624690533E-1;1.286457062E0;2.946141958E-1
4.629873500E0;-2.425731421E-1;2.861776352E-1;6.345704794E-1
4.643635500E0;-3.255195618E-1;-1.836938858E-1;3.435860872E-1
4.659929500E0;-3.957216740E-1;-6.671676636E-1;-1.237326860E-1
4.679846500E0;-2.335031033E-1;-5.342636108E-1;-2.129383087E-1
4.690125500E0;7.989931107E-2;-1.605129242E-1;-3.869771957E-2
4.710007500E0;2.204056978E-1;2.789039612E-1;2.884598970E-1
4.720208500E0;2.489697933E-2;2.964982986E-1;3.547626734E-1
4.739882500E0;-5.993666649E-1;5.233573914E-2;2.468242645E-1
4.759948500E0;-6.978273392E-1;6.413459778E-2;1.316488981E-1
4.779861500E0;-5.415598154E-1;-2.848701477E-1;-3.276262283E-1
4.790108500E0;2.300819159E-1;8.081245422E-2;6.413713694E-1
4.810214500E0;-1.830239296E-1;3.719558716E-1;4.773259163E-2
4.829828500E0;-1.071208239E0;-1.483001709E-1;-1.551735401E-2
4.840972500E0;-8.792375326E-1;-1.016778946E-1;-1.048287153E-1
4.859893500E0;-5.420354605E-1;1.895303726E-1;-1.401507854E-2
4.869919500E0;-1.833901405E-1;6.423339844E-1;-2.591664791E-1
4.891076500E0;-1.192530394E-1;-5.755138397E-2;3.309527636E-1
4.909937500E0;-2.955110073E-1;-1.683225632E-1;2.848463058E-1
4.929965500E0;-4.541065693E-1;-9.412288666E-2;-6.879711151E-2
4.940663500E0;-6.951469183E-1;-1.520252228E-1;1.840677261E-1
4.961047500E0;-5.341780186E-1;5.722322464E-1;7.714986801E-2
4.979890500E0;2.824461460E-2;5.446567535E-1;1.683768034E-1
4.990200500E0;4.365181923E-2;9.443378448E-2;-1.504682302E-1
5.010007500E0;-1.746363640E-1;-1.276340485E-1;5.168640614E-2
5.029814500E0;-8.554697037E-2;1.085395813E-1;3.691769838E-1
5.039838500E0;-1.929390430E-1;4.874897003E-2;4.946668148E-1
5.049908500E0;-1.179708242E-1;1.082019806E-1;2.207773924E-1
5.060191500E0;-2.874267101E-2;4.049491882E-1;6.307518482E-2
5.079943500E0;-7.430678606E-1;3.539466858E-2;-2.920687199E-2
5.090106500E0;-6.843140125E-1;-3.441362381E-1;1.641998291E-1
5.110718500E0;-2.558499575E-1;6.381034851E-2;-2.055441141E-1
5.130023500E0;5.771303177E-2;9.141578674E-1;-4.122229815E-1
5.143919500E0;-1.619735956E-1;5.861101151E-1;-3.294914961E-1
5.160323500E0;-1.947197914E-1;-1.601467133E-1;3.618184328E-1
5.179988500E0;-2.197420597E-2;2.585325241E-1;-8.302569389E-3
5.199831500E0;-6.146528721E-1;4.445238113E-1;-2.920008898E-1
5.210918500E0;-7.494161129E-1;3.496208191E-1;-3.154852390E-1
5.229932500E0;-3.358116150E-1;2.433366776E-1;-1.260825396E-1
5.241721500E0;-2.589949369E-1;-5.251884460E-3;6.026029587E-4
5.260195500E0;3.588325977E-1;9.769058228E-1;6.216740608E-2
5.279846500E0;-1.161345243E0;-6.499910355E-1;8.315527439E-2
5.290068500E0;-6.716299057E-1;-2.264890671E-1;9.173953533E-2
5.310090500E0;-4.416576624E-1;1.101446152E-1;2.525643110E-1
5.329938500E0;-1.470665932E-1;-1.288652420E-1;-1.647007465E-2
5.350028500E0;3.473215103E-1;-1.275281906E-1;-6.926760674E-1
5.360701500E0;1.907753944E-1;2.468366623E-1;-3.355855942E-1
5.379828500E0;-2.360527515E-1;7.001657486E-1;5.475338697E-1
5.390212500E0;-4.224176407E-1;6.280078888E-1;7.746019363E-1
5.410050500E0;-1.097911358E0;-2.404804230E-1;3.196147680E-1
5.420483500E0;-6.494255066E-1;2.753353119E-2;1.896721125E-1
5.440215500E0;6.521209478E-1;9.214982986E-1;-5.748696327E-1
5.459845500E0;-5.514860153E-2;-3.200588226E-1;-4.617086649E-1
5.479850500E0;-1.154648304E0;-6.648559570E-1;4.030687809E-1
5.489946500E0;-8.038027287E-1;2.781505585E-1;1.433943510E-1
5.510039500E0;-7.242456675E-1;5.124092102E-1;-1.207447052E-1
5.521679500E0;-1.936726570E-1;7.186088562E-1;4.035469294E-1
5.539831500E0;2.740669250E-1;1.115941048E0;-7.680320740E-2
5.560569500E0;-3.836528063E-1;-3.304357529E-1;-1.054068327E0
5.580095500E0;7.095959187E-1;-9.321880341E-2;-1.399186492E0
5.600484500E0;8.829760551E-2;4.783449173E-1;2.246265411E-1
5.619787500E0;1.181294918E0;2.757091522E0;-1.666220427E-1
5.629818500E0;-1.096564651E0;-1.080360413E-1;6.198655367E-1
5.639891500E0;-7.985302210E-1;-6.080656052E-1;4.054050446E-1
5.660712500E0;1.714511871E0;2.156356812E0;-1.149359345E0
5.679903500E0;1.125947237E0;2.268038750E0;-9.527810812E-1
5.691756500E0;-6.015026569E-1;3.201627731E-1;1.231406927E-1
5.710106500E0;-1.267931581E0;-1.452198029E0;3.954209089E-1
5.720173500E0;-9.700987339E-1;-1.773569107E0;2.455880642E-1
5.740270500E0;-1.674880981E-1;-6.607313156E-1;-3.746265173E-1
5.761275500E0;-6.791348457E-1;-8.361148834E-1;-8.206856251E-2
5.771580500E0;-6.999335289E-1;-1.214065552E0;3.400468230E-1
5.790196500E0;5.696890354E-1;-4.092216492E-2;-2.511298656E-1
5.812659500E0;-7.771877050E-1;-8.579311371E-1;-5.689970255E-1
5.829959500E0;-2.816716433E-1;1.074576378E0;-5.542471409E-1
5.852464500E0;-3.195848942E0;-4.591048241E0;2.974766493E-1
5.869835500E0;-1.343704939E0;-2.122118950E0;3.288678527E-1
5.880879500E0;-2.092856646E0;-2.201289177E0;2.658090591E-1
5.899992500E0;1.896727800E0;4.550975323E0;-3.220475912E-1
5.919832500E0;1.294624805E0;4.226354599E0;-6.151952744E-1
5.929944500E0;2.153566837E0;3.710971832E0;-6.359914541E-1
5.940009500E0;2.142518997E0;3.613523006E0;-3.226127625E-1
5.950024500E0;1.373271585E0;2.983031750E0;2.367266417E-1
5.969864500E0;1.170240998E0;1.643710136E0;-3.060388565E-2
5.980173500E0;9.689248800E-1;7.316455841E-1;-1.306166649E-1
5.999804500E0;4.761260748E-1;1.375855446E0;-3.497843742E-1
6.009918500E0;5.864052773E-1;1.663171768E0;-3.288373947E-1
6.029952500E0;1.669751406E-1;2.392235756E0;1.262592912E0
6.040432500E0;-2.102961540E-1;2.531486988E0;2.483798981E0
6.059865500E0;-3.637956381E-1;2.000008583E0;-2.993797302E0
6.069927500E0;5.385423899E-1;-4.511984825E0;-3.209685087E0
6.090421500E0;1.786916256E0;-7.903977394E0;1.141749501E0
6.109973500E0;2.476489544E0;-1.241567612E0;2.011089802E0
6.130239500E0;1.030728936E0;3.097508430E0;-3.612684608E-1
6.141141500E0;3.106724024E-1;3.796755791E0;-1.253651619E0
6.160008500E0;-7.446706295E-2;2.764326096E0;-1.079617739E-1
6.180159500E0;1.354537129E0;1.199309349E0;1.344852209E0
6.190283500E0;1.578902364E0;9.879083633E-1;8.582990766E-1
6.210143500E0;8.356839418E-1;9.457302094E-1;-1.524023414E0
6.229997500E0;-2.703309059E-1;5.141181946E-1;-2.041486025E0
6.240384500E0;-3.197700977E-1;2.566928864E-1;-1.609078407E0
6.260263500E0;4.944801331E-2;-1.106602669E0;-1.883276939E0
6.279838500E0;4.226865768E-1;-1.645829201E0;-3.133977890E0
6.289982500E0;7.767860889E-1;-1.818225861E0;-3.932171822E0
6.300071500E0;1.344366431E0;-1.842526436E0;-4.890694141E0
6.319807500E0;2.484911680E0;-1.426266670E0;-5.198256016E0
6.330092500E0;2.740664482E0;-1.058651924E0;-4.381910801E0
6.340173500E0;2.587909460E0;-8.049488068E-1;-3.463491678E0
6.350856500E0;2.422402382E0;-6.105995178E-1;-3.171761513E0
6.369938500E0;1.923441410E0;2.734689713E-1;-4.060670853E0
6.380415500E0;1.583437562E0;7.742652893E-1;-4.978621960E0
6.390864500E0;1.031593084E0;9.890747070E-1;-5.993719578E0
6.409989500E0;-1.006317139E-2;3.910398483E-1;-7.142390728E0
6.420011500E0;-2.548234463E-1;-1.149635315E0;-5.974655151E0
6.430181500E0;1.700490713E-1;-2.975608826E0;-3.991581917E0
6.450053500E0;2.281079054E0;-3.413473129E0;-2.348703861E0
6.460347500E0;1.747461557E0;-1.445895195E0;-6.987665892E-1
6.480615500E0;-1.007123351E0;-4.194831848E-2;6.009083271E0
6.499882500E0;-2.081323862E0;-8.919181824E-1;5.917911530E0
6.509921500E0;-1.464166284E0;-1.192790985E0;4.164652348E0
6.519921500E0;1.691253543E0;-8.388948441E-1;-3.901409626E0
6.529935500E0;3.378444195E0;-1.091320038E0;-7.735892773E0
6.540436500E0;3.095587730E0;-1.994647980E0;-4.665480614E0
6.560963500E0;3.814423561E0;-2.791175842E0;1.565240383E0
6.579846500E0;5.593400955E0;-2.251219749E0;1.125992537E0
6.590016500E0;4.816414833E0;-2.256066322E0;1.780169010E0
6.609991500E0;1.590605855E0;-1.863053322E0;3.310288191E0
6.629971500E0;-3.626145124E-1;-5.826768875E-1;1.803210258E0
6.649835500E0;-6.027585268E-1;1.148108482E0;1.426567316E0
6.659990500E0;-1.199645996E-1;1.573308468E0;2.005616903E0
6.670058500E0;2.040982246E-2;1.798798084E0;3.357594252E0
6.690038500E0;-6.829319000E-1;2.114786625E0;5.588082314E0
6.700097500E0;-8.388696313E-1;2.451297760E0;6.154271603E0
6.710551500E0;-1.128539562E0;2.610939026E0;6.722380638E0
6.730005500E0;-2.695999146E0;2.012923241E0;5.286276817E0
6.750005500E0;-2.374267101E0;2.081748962E0;4.200110435E0
6.760044500E0;-1.815515041E0;2.315270901E0;4.711575031E0
6.780018500E0;-1.046960711E0;2.369234085E0;3.627395630E0
6.799950500E0;-6.590821743E-1;1.062371731E0;4.559206963E-1
6.819938500E0;1.369691372E0;-1.178780556E0;-6.709577560E0
6.839892500E0;1.859016895E0;-4.082069397E0;-8.629689217E0
6.850077500E0;1.604972363E0;-2.553509712E0;-7.113866806E0
6.869985500E0;2.208876014E-1;9.234542847E-1;-3.263815880E0
6.880342500E0;1.303310275E0;3.097663879E0;-7.918658257E-1
6.899801500E0;2.658361435E0;7.994040489E0;2.062232018E0
6.910235500E0;2.550264597E0;8.664569855E0;4.665200710E0
6.929971500E0;9.419078827E-1;5.453084469E0;1.492662239E1
6.949983500E0;-4.375800133E0;-6.942625046E-1;1.159441376E1
6.970239500E0;-1.698340034E1;-1.382762814E1;-3.293114853E1
6.990153500E0;-8.556033134E0;-3.608342171E0;1.568926334E1
7.009908500E0;-6.837533951E0;4.892004013E0;5.873864174E0
7.029996500E0;-1.275305629E0;1.323794842E0;1.847260475E1
7.049894500E0;1.518559933E0;-6.453303337E0;8.110218048E0
7.060004500E0;2.539237022E0;-7.423587799E0;4.935786247E0
7.080296500E0;8.421380043E0;-1.024984169E1;-5.753132820E0
7.099784500E0;1.340749550E1;-1.482794666E1;-2.524896145E0
7.109972500E0;1.173504066E1;-1.575176716E1;-2.214715481E0
7.120028500E0;9.988234520E0;-1.579486752E1;-3.348298073E0
7.130102500E0;1.028366089E1;-1.343108082E1;-5.097318649E0
7.149955500E0;1.395878792E1;-6.366166115E0;-1.512084389E1
7.160580500E0;1.184289646E1;-4.832861900E0;-1.522206974E1
7.179931500E0;4.937602997E0;-2.591518402E0;-1.092668724E1
7.190156500E0;3.452161789E0;-5.940046310E-1;-1.175666428E1
7.200160500E0;2.184169769E0;1.784261227E0;-1.325643444E1
7.219827500E0;-6.373766065E-1;4.947861195E0;-1.284883595E1
7.229908500E0;-2.566750526E0;5.691217899E0;-1.022043037E1
7.240059500E0;-5.177392960E0;5.983249664E0;-1.391986561E1
7.250276500E0;-3.444439888E0;6.122159958E0;-7.890231609E0
7.270035500E0;-8.191902041E-1;9.001358986E0;-2.675322056E0
7.290380500E0;4.612964392E-1;1.145481968E1;-4.114737511E0
7.309975500E0;-2.647231221E-1;1.055502129E1;3.276604176E0
7.320056500E0;-1.958671510E-1;1.053011322E1;2.460097313E0
7.340230500E0;-1.265150785E0;9.796504021E0;-8.239050865E0
7.359869500E0;1.578978300E0;6.783948421E0;-2.959805012E0
7.369906500E0;2.857768059E0;5.459849834E0;-1.911220670E0
7.379998500E0;4.707466125E0;2.621014118E0;-3.879969597E0
7.390103500E0;7.559063435E0;-3.698594093E0;-2.327960253E0
7.409958500E0;3.727499485E0;-1.866251373E1;3.259049654E0
7.421431500E0;-4.090706348E0;-1.935736847E1;1.064440012E0
7.439948500E0;1.340775847E0;-1.114071083E1;-7.391974449E0
7.449994500E0;3.950477839E0;-7.560493469E0;-6.457310677E0
7.460792500E0;4.968260765E0;-6.876580238E0;-4.415064335E0
7.480060500E0;4.223052025E0;-1.013834286E1;7.129893303E-1
7.499814500E0;1.695699096E0;-9.553561211E0;3.288787365E0
7.509927500E0;-8.938420564E-2;-8.064154625E0;3.531423569E0
7.519963500E0;-1.323541760E0;-6.354910851E0;4.393280506E0
7.539987500E0;-1.794995785E0;-2.488053322E0;6.766556263E0
7.560129500E0;-1.189020634E0;1.662481308E0;7.046113968E0
7.574739500E0;-8.409077525E-1;3.849625111E0;7.071406841E0
7.590084500E0;-1.321939707E0;7.992162228E0;7.654946327E0
7.609986500E0;-8.349703550E-1;1.223511505E1;6.483451366E0
7.620094500E0;-2.442956567E-1;1.350160217E1;5.158282280E0
7.630160500E0;1.550606966E0;1.306644630E1;1.535761356E0
7.649936500E0;-1.492087096E-1;8.965147018E0;1.732413173E0
7.669807500E0;-3.439418972E-1;4.559970856E0;3.282796621E0
7.679944500E0;8.475363255E-2;3.663360596E0;1.698879004E0
7.690098500E0;1.856888682E-1;2.332478046E0;-3.951348305E0
7.709821500E0;3.493840218E0;-3.524303436E0;-2.864893723E1
7.720000500E0;3.353207350E0;-5.099127769E0;-1.686470413E1
7.739980500E0;-4.880310059E0;-1.079355335E1;2.171402740E1
7.759875500E0;-7.990297794E0;-5.908973694E0;2.024511719E1
7.769963500E0;-4.386194229E0;9.280214310E-1;2.017654800E1
7.780008500E0;-1.481306791E0;6.905962944E0;2.198996735E1
7.790124500E0;-1.796280622E0;8.352910995E0;2.022446442E1
7.810023500E0;-8.188051224E0;-2.521494865E0;1.025148201E1
7.820100500E0;-1.097068691E1;-8.429759979E0;3.150625467E0
7.840033500E0;-4.248663902E0;-2.121564865E1;-3.681411505E0
7.859968500E0;1.484064579E1;-1.773633194E1;-1.451279545E1
7.879886500E0;2.144093704E1;-1.821459579E1;-9.989491105E-1
7.890101500E0;1.925592041E1;-1.822234344E1;-1.463595510E0
7.911568500E0;9.152439117E0;-1.252906895E1;-1.786004639E1
7.930308500E0;6.734845638E0;-5.657072067E-1;-1.885161209E1
7.950054500E0;4.738611698E0;6.277782917E0;-1.673504639E1
7.969830500E0;-5.480844527E-3;8.244889259E0;-9.384000778E0
7.980747500E0;-1.062421203E0;8.777945518E0;-1.041344547E1
7.999891500E0;-9.118020535E-1;7.144217014E0;-4.652939320E0
8.009942500E0;-1.417147517E0;7.865048409E0;-1.846938491E0
8.029932500E0;1.054711342E0;1.334716892E1;-1.689771652E1
8.040067500E0;-1.994593024E0;1.080037403E1;-4.667212009E0
8.059899500E0;-1.786884785E0;9.743821144E0;4.093210220E0
8.070084500E0;-1.166079760E0;9.857841492E0;5.778824806E0
8.090037500E0;-5.717339516E-1;8.151833534E0;2.413783312E0
8.110074500E0;1.325164080E0;2.904717445E0;-1.106960869E1
8.120204500E0;3.734897852E0;-2.966255188E0;-1.264831161E1
8.139870500E0;2.034380913E0;-1.828658676E1;-3.801175833E0
8.150029500E0;-2.221655369E0;-2.166397667E1;2.438212872E0
8.169970500E0;-7.864151001E0;-2.136976624E1;9.464491844E0
8.189974500E0;-1.731700897E0;-1.929172707E1;2.738560915E0
8.209946500E0;5.278256893E0;-1.472990131E1;-5.857877731E0
8.229953500E0;8.259672165E0;-1.017539215E1;2.399150372E0
8.249949500E0;1.800168753E0;-8.240579605E0;7.923632622E0
8.260448500E0;-1.694983542E-1;-6.384305954E0;8.664749146E0
8.280126500E0;-1.045564175E0;-8.740983009E-1;9.150793076E0
8.290210500E0;-3.102161586E-1;2.355705738E0;9.025913239E0
8.310076500E0;3.048440814E-1;8.971343994E0;1.194456005E1
8.320116500E0;1.132243276E-1;1.220299339E1;1.306527042E1
8.339993500E0;5.423266888E-1;1.555290985E1;1.218781185E1
8.360027500E0;-3.680052161E-1;1.711132431E1;6.149132729E0
8.370105500E0;-3.585920930E-1;1.723317146E1;5.168651104E0
8.389998500E0;-2.118767977E0;1.255264091E1;5.779277802E0
8.409912500E0;-3.606165648E0;6.595945358E0;5.761075974E0
8.420460500E0;-8.718624711E-1;6.016444206E0;4.150412560E0
8.439836500E0;2.612462044E0;1.516266823E0;-1.788879967E1
8.449932500E0;3.387544632E0;-1.053752899E1;-3.589367676E1
8.470344500E0;3.183609247E0;-4.845087051E0;-1.661246681E1
8.490167500E0;-6.849582195E0;-7.918465614E0;3.084074402E1
8.509894500E0;-7.312159061E0;-7.754248619E0;3.149453735E1
8.529959500E0;-1.190144300E0;6.383369446E0;2.226195717E1
8.540058500E0;-2.833701372E0;6.021778107E0;1.662953186E1
8.560360500E0;-1.187725830E1;-6.467931747E0;7.633584023E0
8.579848500E0;-1.026010323E1;-1.540176678E1;3.231015444E0
8.589885500E0;-6.116310120E0;-1.917968750E1;2.235744238E0
8.600024500E0;-1.961588740E0;-2.329792213E1;2.592638016E0
8.619805500E0;3.152239990E1;-2.318986320E1;-3.598886108E1
8.629952500E0;2.558282280E1;-2.331775284E1;-1.593798542E1
8.650133500E0;8.972533226E0;-1.620525742E1;-2.721905231E0
8.669852500E0;3.532136202E0;-1.826620102E0;-1.981939125E1
8.690303500E0;3.067233324E0;8.188919067E0;-2.474669647E1
8.710188500E0;3.317211390E0;1.309372330E1;-1.603414536E1
8.720233500E0;3.794847727E0;1.452909279E1;-9.276215553E0
8.740008500E0;3.437185287E0;1.073788548E1;4.039771557E-1
8.750089500E0;9.273495674E-1;8.456140518E0;8.662164211E-1
8.760342500E0;-5.399157405E-1;9.120074272E0;1.386657715E0
8.780152500E0;1.706932187E-1;1.105895042E1;-7.294927835E-1
8.799921500E0;-3.883522987E0;1.032533550E1;-1.642365646E1
8.809993500E0;-5.753248334E-1;9.555927277E0;4.665452957E0
8.829879500E0;-9.431766272E-1;8.334489822E0;3.947864294E0
8.839885500E0;-2.247277260E0;5.826801300E0;-1.121432495E1
8.849998500E0;-1.118440866E0;2.309623241E0;-1.479256630E1
8.869884500E0;4.047071457E0;-4.212751389E0;-6.461197376E0
8.890136500E0;2.388923645E0;-1.873275757E1;-4.365098000E0
8.909947500E0;-4.991660595E0;-2.245026207E1;6.898709297E0
8.930334500E0;-7.417410374E0;-2.191364479E1;5.326957226E0
8.949771500E0;-5.820300579E-1;-1.941894531E1;-6.223080158E0
8.959919500E0;2.804738283E0;-1.781146240E1;-4.991313934E0
8.969937500E0;5.282186031E0;-1.630511284E1;-1.098897457E0
8.990022500E0;5.494991779E0;-1.358680344E1;6.405247688E0
9.010497500E0;-1.266494751E0;-5.016366005E0;1.042175293E1
9.030102500E0;-1.455155849E0;7.613663673E-1;9.910419464E0
9.050262500E0;6.059168577E-1;6.894578934E0;1.097109604E1
9.069986500E0;2.290062666E0;1.343033028E1;1.139085579E1
9.080189500E0;3.479172230E0;1.570005035E1;1.075412273E1
9.090236500E0;3.395176888E0;1.654575729E1;9.878993988E0
9.109994500E0;2.112070322E0;1.647279549E1;7.737588406E0
9.129931500E0;-4.720836878E-1;1.222540760E1;1.146654129E1
9.140072500E0;-2.235413074E0;8.027174950E0;1.046576500E1
9.160715500E0;-1.842883229E0;4.359542847E0;6.962423801E0
9.179812500E0;6.615364552E-1;5.726423264E0;2.661369324E0
9.190126500E0;1.977088571E0;4.649916649E0;-6.868782043E0
9.200273500E0;9.885320663E0;-1.417615891E1;-3.515760422E1
9.219829500E0;-1.223117590E0;-8.014547348E0;3.377754593E1
9.229950500E0;-9.729167938E0;-8.802447319E0;2.950271797E1
9.249917500E0;-1.068898392E1;-2.668660164E0;3.576230240E1
9.269941500E0;-6.174149990E0;8.049790382E0;2.626198387E1
9.280001500E0;-7.691697121E0;2.376945496E0;1.845653152E1
9.299789500E0;-1.610119629E1;-1.275852776E1;5.630117416E0
9.310359500E0;-1.578608894E1;-1.668540573E1;2.264952660E-2
9.322120500E0;-1.307097435E1;-2.025732994E1;-6.712905884E0
9.339875500E0;-4.279696047E-1;-2.248851013E1;-5.282369614E0
9.350054500E0;7.147149086E0;-2.394839859E1;-1.069831848E1
9.369807500E0;2.877738380E1;-2.559456062E1;-1.151284504E1
9.379964500E0;2.241683006E1;-2.253895187E1;3.990104198E0
9.389998500E0;5.489484787E0;-1.169809341E1;-8.279235840E0
9.410002500E0;-1.330825329E0;1.529459000E0;-3.058825302E1
9.430068500E0;4.687617302E0;1.041188240E1;-1.780899429E1
9.449944500E0;7.385441303E0;1.346751785E1;-2.536020756E0
9.460835500E0;6.748144627E0;1.252207851E1;-8.701215982E-1
9.479877500E0;1.853613257E-1;9.729798317E0;-1.079042077E0
9.490147500E0;-5.928295851E-1;1.056410027E1;-9.659370184E-1
9.510024500E0;-1.048091531E0;1.308642387E1;-1.839683342E1
9.529865500E0;-2.193301916E0;9.915646553E0;4.978809357E0
9.540419500E0;-2.439913750E0;9.561811447E0;4.673118591E0
9.559861500E0;-7.142117500E0;6.017980099E0;-1.525375938E1
9.569892500E0;-4.574834824E0;4.074041367E0;-1.053389931E1
9.590308500E0;2.562755108E0;-1.688177109E0;-1.088278770E0
9.609958500E0;4.041532040E0;-1.375718975E1;-2.808560848E0
9.619991500E0;2.144863129E0;-2.040382385E1;5.265595913E-1
9.630107500E0;-2.155908346E0;-2.531596756E1;2.698841095E0
9.640158500E0;-6.892497063E0;-2.767147827E1;3.935212374E0
9.660008500E0;-8.804296494E0;-2.651931190E1;1.971069336E0
9.679768500E0;-2.108455151E-1;-1.737496948E1;-1.411719322E0
9.689987500E0;4.331864834E0;-1.397038269E1;1.641225815E-1
9.700089500E0;6.714920521E0;-1.254887199E1;2.409563541E0
9.720273500E0;3.030506372E0;-1.170287323E1;9.358623505E0
9.740102500E0;-1.999696732E0;-7.926687241E0;1.007851696E1
9.759920500E0;-9.727602005E-1;-1.306072712E0;1.037418556E1
9.769983500E0;6.342661977E-1;2.526935339E0;1.103686428E1
9.789879500E0;4.801536560E0;1.399221611E1;1.561910534E1
9.799904500E0;6.149435043E0;1.635860443E1;1.631869125E1
9.809985500E0;5.719199181E0;1.736948204E1;1.529753685E1
9.829895500E0;2.688733816E0;1.808808327E1;1.248623753E1
9.839995500E0;1.717431664E0;1.696258354E1;1.303278351E1
9.859951500E0;-8.222702742E-1;1.113144302E1;1.021029186E1
9.870294500E0;-1.614679575E0;8.384191513E0;7.811129570E0
9.889896500E0;-1.884794235E-1;5.901634216E0;6.061353683E0
9.910102500E0;2.006917477E0;-2.466249466E-1;-2.328957558E1
9.930105500E0;4.227841496E-1;-1.527726078E1;-3.430797958E1
9.949784500E0;1.660171747E-1;-4.386785507E0;9.380970955E0
9.960105500E0;-1.357697010E0;-4.629945755E0;4.485528564E1
9.980144500E0;-1.461201191E0;-5.478816986E0;3.196172714E1
9.991952500E0;1.727643967E0;1.081201553E0;2.427214432E1
1.001041050E1;-5.095536232E0;-2.021949768E0;1.692692757E1
1.002997950E1;-1.124549389E1;-9.843353271E0;7.764685631E0
1.004991350E1;-7.490069866E0;-1.548721504E1;3.763257027E0
1.006992550E1;2.243611336E0;-2.304276466E1;6.285835743E0
1.009015350E1;1.171956635E1;-2.882606697E1;9.507214546E0
1.011008950E1;2.744215775E1;-2.604114151E1;-3.925347137E1
1.012997250E1;8.333121300E0;-1.393506432E1;-7.342553139E0
1.014011750E1;5.974554062E0;-5.560500145E0;-1.327133751E1
1.015988450E1;4.353240490E0;5.919645309E0;-2.252024078E1
1.016996550E1;3.955350161E0;1.001926231E1;-1.851120377E1
1.018985850E1;5.039775372E0;1.427883720E1;-8.043552637E-1
1.019993550E1;4.554620266E0;1.275183010E1;-1.026209354E0
1.021983350E1;2.504905701E0;1.196353436E1;-2.370170832E0
1.023004050E1;5.524127483E0;1.448765564E1;-1.381679249E1
1.024022350E1;1.183336973E0;1.342936897E1;-1.267729664E1
1.026052750E1;-1.187121153E0;1.039174175E1;2.624353647E0
1.027989050E1;-2.595994473E0;9.825765610E0;-5.248402596E0
1.028993550E1;-4.965555668E0;8.046646118E0;-1.758777809E1
1.031002050E1;2.113010883E-1;5.438238144E0;1.386798620E0
1.032017050E1;1.763778329E0;4.987178802E0;2.404939890E0
1.034000250E1;2.547709227E0;-4.729397774E0;-6.309335709E0
1.035028250E1;4.639283657E0;-1.279929352E1;-2.762511253E0
1.037016950E1;-4.897664070E0;-3.121458435E1;3.814244270E-1
1.038190050E1;-1.057769108E1;-3.146561432E1;1.481961250E0
1.039988050E1;-9.353430748E0;-2.614643478E1;-1.048122406E0
1.040997250E1;-3.117506266E0;-1.999873161E1;-1.861320972E0
1.043064850E1;4.970565319E0;-1.181525707E1;2.655467987E0
1.044992850E1;3.525395393E0;-8.897224426E0;1.123893261E1
1.047000050E1;1.136941910E0;-5.139397144E0;1.381218147E1
1.049017450E1;1.341378570E0;-8.588533401E-1;1.163871384E1
1.050044950E1;2.056980848E0;2.034613848E0;1.106780243E1
1.051984650E1;5.413145065E0;1.045619774E1;1.265297127E1
1.052987350E1;6.935758591E0;1.456590271E1;1.340952682E1
1.055001850E1;6.042914391E0;1.786173439E1;1.145788574E1
1.056989450E1;3.803809643E0;1.535310459E1;1.246769333E1
1.059000850E1;8.928117752E-1;1.052622986E1;9.993547440E0
1.060999950E1;-8.305935860E-1;4.788384438E0;5.713066101E0
1.063005250E1;1.695433140E0;2.752844334E0;8.555455208E-1
1.064978250E1;-4.192463398E0;-2.052183342E1;-3.448021698E1
1.065987150E1;6.286536694E0;-1.376576233E1;-3.359674835E1
1.067982450E1;4.106372833E0;-6.622056961E-1;4.238159561E1
1.069002450E1;1.352204204E0;-1.717077255E0;4.298977280E1
1.070998650E1;-7.132881641E0;-6.811440468E0;3.384127808E1
1.072031550E1;-3.350937366E0;-1.754848957E0;2.890051842E1
1.073986350E1;-4.174152851E0;2.421469212E0;2.358922958E1
1.074989450E1;-8.209138870E0;-3.223504066E0;1.751886368E1
1.075991050E1;-1.152917194E1;-8.627210617E0;9.934288025E0
1.076996150E1;-1.105929947E1;-1.470631504E1;8.458762169E-1
1.078042350E1;-9.475317001E0;-1.888344574E1;-8.366727829E-2
1.079984550E1;6.940016150E-1;-2.371652222E1;4.219144821E0
1.081006850E1;6.048357964E0;-2.708447075E1;5.043377876E0
1.082985150E1;3.149675941E1;-2.831987000E1;-2.675349808E1
1.083985850E1;2.265734291E1;-2.567220688E1;-1.501232529E1
1.084987750E1;9.102384567E0;-2.120858765E1;-4.190165520E0
1.086987250E1;3.959015846E0;-2.421373367E0;-2.432767296E1
1.088011850E1;5.586089134E0;3.826197624E0;-2.541569519E1
1.089048650E1;5.986520290E0;7.620684624E0;-1.949652100E1
1.091005750E1;4.018124580E0;1.232734299E1;-5.044123650E0
1.093004150E1;2.854582310E0;1.216296959E1;-1.817109585E0
1.095019350E1;2.408438444E0;1.170530224E1;-4.917088985E0
1.096989250E1;-7.502614856E-1;1.119040108E1;-3.209892750E0
1.098009250E1;-2.188454866E0;1.027440548E1;-1.238932133E0
1.099981950E1;-1.803287506E0;9.704750061E0;1.532310724E0
1.101009850E1;-2.173488617E0;9.019436836E0;3.395476341E-1
1.102991750E1;-2.558848858E0;4.520750046E0;-1.117979717E1
1.104020550E1;-8.943104744E-2;3.721214771E0;-2.041618824E0
1.105028050E1;1.627127767E0;3.100914001E0;2.048446417E0
1.107031450E1;3.398120880E0;-1.030876541E1;-3.996944904E0
1.109052350E1;9.421125650E-1;-2.594771385E1;1.648609161E0
1.111010950E1;-9.094724655E0;-3.199790001E1;6.254692554E0
1.113062850E1;-1.065298176E1;-2.767605209E1;-2.356305122E-1
1.114075450E1;2.268524647E0;-1.524249649E1;7.996678352E-1
1.115084550E1;4.874399185E0;-1.253452682E1;2.903779030E0
1.116174950E1;4.701298714E0;-1.148669052E1;6.180196762E0
1.117981150E1;1.252716541E0;-8.952054977E0;1.294706535E1
1.118988350E1;2.941203713E-1;-7.227055073E0;1.242175293E1
1.119996550E1;-6.463851929E-1;-5.588894844E0;1.157734489E1
1.122025850E1;-3.304417133E-1;-1.272763252E0;1.144669342E1
1.124000450E1;1.857407808E0;6.398851871E0;1.124138641E1
1.125000450E1;4.236647129E0;1.169435692E1;1.277875328E1
1.126987850E1;7.447895527E0;1.793262100E1;1.415760708E1
1.129001050E1;5.327600479E0;1.730880737E1;1.232001495E1
1.130012850E1;4.602371693E0;1.641127014E1;1.232381916E1
1.131982150E1;1.890949368E0;1.282246208E1;8.435720444E0
1.132990650E1;6.369342804E-1;1.064403725E1;5.157298565E0
1.133999950E1;2.968518734E-1;8.013745308E0;2.718998909E0
1.135989050E1;-2.313551903E-1;-4.193908691E0;-2.723838425E1
1.136997750E1;-2.912497044E0;-1.094273853E1;-3.351587296E1
1.139005450E1;5.601789474E0;-7.332175255E0;-2.939648819E1
1.141018550E1;-1.490442514E0;-5.087257862E0;4.392529297E1
1.142997950E1;2.253389359E-1;-5.829850197E0;4.289610672E1
1.144024550E1;5.306331635E0;2.064220905E0;3.303050232E1
1.146110650E1;5.019408703E0;6.154208183E0;2.217299652E1
1.147991150E1;-6.729664326E0;-7.019511223E0;1.411426163E1
1.149010750E1;-9.511727333E0;-1.334618855E1;1.060795307E1
1.151116050E1;-8.379100800E0;-2.173591995E1;4.956936836E0
1.152991850E1;-2.279419303E-1;-2.861130524E1;1.683997631E0
1.154982450E1;3.096236992E1;-2.816831207E1;-3.655983734E1
1.156139550E1;2.265736580E1;-2.401008415E1;-1.580002594E1
1.157984550E1;8.380675316E0;-9.030295372E0;5.265538692E0
1.158991350E1;5.677627563E0;-2.193286896E0;-7.053713322E0
1.160019550E1;3.876963854E0;4.098267078E0;-2.538872719E1
1.161035050E1;4.548017502E0;8.617939949E0;-2.922422409E1
1.162989250E1;6.045474529E0;1.175853157E1;-8.326753616E0
1.164005050E1;4.903069019E0;1.184202766E1;-2.269674540E0
1.165984250E1;2.689127922E0;1.115549946E1;-2.113058329E0
1.167984850E1;5.533131599E0;1.351687813E1;-1.412329102E1
1.169043050E1;4.112205982E0;1.394994640E1;-2.301078415E1
1.171001050E1;-1.211028337E0;1.025476933E1;-1.682219625E0
1.173000650E1;5.083081722E-1;9.872410774E0;4.838665009E0
1.174011950E1;-9.739422798E-2;8.832493782E0;5.106343269E0
1.175990450E1;-1.726822734E0;3.767699718E0;-3.906216621E0
1.177983550E1;1.877377391E0;-8.280677795E-1;-7.639636993E-1
1.178992050E1;4.051888943E0;-8.436015129E0;-4.318401337E0
1.181003650E1;2.772809982E0;-2.740000916E1;2.824506998E0
1.182019950E1;-1.126024246E0;-3.135770798E1;6.207350731E0
1.183058150E1;-5.458487988E0;-3.172433090E1;7.908073902E0
1.185036950E1;-5.155262947E0;-2.683659935E1;-3.478645325E0
1.186189750E1;-2.456707954E-1;-1.920248222E1;-1.779135704E0
1.188015550E1;7.048264027E0;-1.036600113E1;4.933947086E0
1.189995150E1;6.718543053E0;-9.026617050E0;1.028808403E1
1.191001250E1;3.037134171E0;-8.910902023E0;1.232155228E1
1.192012050E1;5.281354189E-1;-7.805334568E0;1.169058990E1
1.194000950E1;-1.714133024E-1;-3.405594826E-1;1.036435318E1
1.195999450E1;2.220836878E0;7.033310890E0;9.907187462E0
1.196999950E1;4.094148636E0;1.091091537E1;1.088961315E1
1.198991950E1;6.654946327E0;1.598185635E1;1.351918793E1
1.201014450E1;4.444372654E0;1.601710510E1;1.051937771E1
1.203019250E1;1.702110767E0;1.333421707E1;1.006133938E1
1.204981250E1;1.120877266E-2;8.246322632E0;8.123686790E0
1.205989650E1;1.041395545E0;6.505864620E0;6.731107235E0
1.207999350E1;2.028291702E0;4.189534664E0;-4.061703205E0
1.209987350E1;-2.514458895E-1;-1.151417637E1;-3.296345520E1
1.211090650E1;5.473672390E0;-1.427396584E1;-3.229506683E1
1.212998950E1;3.313476086E0;-5.715749741E0;4.389026642E1
1.214008050E1;-5.861323833E0;-1.084618950E1;3.991038513E1
1.215031450E1;-3.490469217E0;-8.434967995E0;4.060625839E1
1.217131450E1;2.873873234E0;4.650039673E0;2.564761925E1
1.218994350E1;-6.504382610E0;-2.933049202E0;1.760443306E1
1.220031850E1;-1.041730213E1;-8.335300446E0;1.222814655E1
1.221982450E1;-1.045615864E1;-1.507457256E1;4.703080654E0
1.222993550E1;-7.414879799E0;-1.962918663E1;3.009837151E0
1.223999850E1;-2.994095087E0;-2.407489014E1;2.989728451E0
1.226018250E1;7.561060429E0;-2.979238510E1;3.971776009E0
1.227979350E1;3.167289162E1;-2.782807922E1;-3.801948547E1
1.229017650E1;2.069787979E1;-2.262902641E1;-1.589640617E1
1.230987950E1;5.498918056E0;-8.070862770E0;-4.121438980E0
1.232988950E1;1.285217762E0;1.039073563E1;-2.096590805E1
1.234005050E1;1.657516003E0;1.198287964E1;-1.159261036E1
1.235992750E1;2.975271702E0;1.241770840E1;-1.634424448E0
1.237983650E1;2.942130089E0;1.259407902E1;-8.315189362E0
1.238990350E1;3.936864376E0;1.362948418E1;-1.353449631E1
1.239993150E1;1.567093372E0;1.191458797E1;-4.801544666E0
1.241005650E1;2.947324514E-2;1.048719025E1;2.394788027E0
1.242081150E1;1.636955142E-1;1.020736217E1;4.688910484E0
1.243986250E1;1.406196356E-1;1.009163666E1;4.184867859E0
1.244987550E1;-5.069625378E-1;9.799210548E0;1.582188487E0
1.245992250E1;-3.047784805E0;8.854043007E0;-1.073037910E1
1.246999250E1;-2.893972874E0;7.149781227E0;-5.704251289E0
1.248994850E1;1.855466604E0;5.901036263E0;1.057245135E0
1.251001750E1;2.401328802E0;-7.531375885E-1;-1.145940399E1
1.252016850E1;3.620327950E0;-9.218958855E0;-1.113748264E1
1.254037850E1;-2.483680964E0;-3.156811905E1;9.450113297E0
1.255983850E1;-8.470966339E0;-3.216398239E1;1.064838886E1
1.256989050E1;-4.031961441E0;-2.743814659E1;-6.853756905E-1
1.259050650E1;3.521413326E0;-1.382053757E1;-1.929717064E-1
1.261000250E1;4.482577801E0;-8.271247864E0;8.046336174E0
1.262999050E1;1.917247653E0;-5.796143532E0;1.481259441E1
1.265152250E1;1.146604538E0;-2.437873363E0;1.119906425E1
1.267001550E1;2.363013268E0;2.765361547E0;9.351421356E0
1.268992750E1;4.538280487E0;1.053336525E1;9.823224068E0
1.271012650E1;6.948984146E0;1.567895508E1;1.296180916E1
1.272990150E1;3.173154354E0;1.490123844E1;1.230398083E1
1.274987250E1;-2.498800755E-1;1.067944813E1;1.285235214E1
1.275995350E1;-1.221909761E0;8.257052422E0;1.068181038E1
1.277980450E1;4.818009138E-1;5.754374027E0;6.313872337E0
1.278989150E1;1.584915042E0;5.632392883E0;2.943666697E0
1.281011550E1;-1.186902404E0;-1.310979557E1;-3.366073990E1
1.283032350E1;8.650009155E0;-1.291775227E1;-2.433808517E1
1.284986550E1;-3.170728683E-3;-9.152160645E0;4.580567932E1
1.285987250E1;-7.467103004E-1;-1.089412117E1;4.559503174E1
1.286990650E1;2.679215193E0;-6.344719410E0;4.138381577E1
1.288992550E1;5.793308735E0;6.397798538E0;2.585699081E1
1.290026350E1;1.858385801E0;3.267822266E0;1.999058533E1
1.291985450E1;-1.059723186E1;-1.382777786E1;7.537989140E0
1.293001850E1;-1.176146889E1;-1.869592667E1;4.453377724E0
1.294060750E1;-1.089182854E1;-2.292757607E1;2.505167961E0
1.295991150E1;-2.527796030E0;-2.910813522E1;2.777346611E0
1.297992850E1;1.484768391E1;-2.984043884E1;-1.075433731E0
1.300060850E1;2.978777695E1;-2.148960876E1;-3.189579010E1
1.301092950E1;1.678442574E1;-1.583251858E1;-3.510990620E0
1.302992550E1;5.716424465E0;-1.176306725E0;-1.048742390E1
1.304010250E1;4.109282970E0;4.695487022E0;-1.822150230E1
1.306006650E1;3.869324446E0;1.151698875E1;-1.024508476E1
1.307996150E1;2.797867775E0;1.194039059E1;-1.636387706E0
1.308996450E1;2.139175892E0;1.212273788E1;-3.191535234E0
1.310992450E1;4.402446747E0;1.436536598E1;-1.816797256E1
1.313021650E1;-2.982327938E0;9.370172501E0;-2.298333168E0
1.314984550E1;-1.093359947E0;9.402348518E0;7.113687038E0
1.316004350E1;-2.521414459E-1;9.398455620E0;8.541972160E0
1.317008050E1;-2.005676031E-1;9.153525352E0;7.652077675E0
1.318993750E1;-1.108057022E0;5.341647148E0;-9.471508026E0
1.319997450E1;7.030265331E-1;3.262419701E0;-4.820445061E0
1.321012250E1;2.072707176E0;2.216299057E0;-7.675886154E-2
1.323006650E1;2.659198761E0;-1.171104336E1;-7.990440369E0
1.324989050E1;-4.235578537E0;-2.871835136E1;2.929108381E0
1.325991150E1;-9.432910919E0;-3.171844292E1;1.137032700E1
1.327000750E1;-1.312730122E1;-3.195414543E1;1.334646225E1
1.329005550E1;-3.278912067E0;-2.508849335E1;-1.239122868E0
1.330012150E1;7.950540781E-1;-1.704391098E1;9.219121933E-1
1.331033350E1;3.695001602E0;-8.777688980E0;4.989967823E0
1.332997750E1;-6.548258066E-1;-7.102315426E0;9.914119720E0
1.334998550E1;-3.193929195E0;-4.166242599E0;1.020788193E1
1.337031150E1;-2.262395144E0;1.135023594E0;1.040860748E1
1.339047550E1;3.089420557E0;9.645772934E0;1.190419102E1
1.340951250E1;7.374917984E0;1.604066086E1;1.296507931E1
1.342717450E1;7.388255596E0;1.622414398E1;1.279818344E1
1.344005550E1;4.495959759E0;1.510340786E1;1.083040047E1
1.346104450E1;1.504569769E0;1.239341164E1;8.491451263E0
1.348008350E1;-1.717711687E-1;7.356742859E0;6.931283474E0
1.349999650E1;9.724835753E-1;4.990416050E0;5.156865120E0
1.351000950E1;-1.948019147E0;-5.856405735E0;-3.267357635E1
1.352989350E1;6.118805885E0;-5.116227150E0;-2.860028648E1
1.353994350E1;2.650262117E0;-1.973020554E0;2.348405457E1
1.356060350E1;-5.560325623E0;-4.070757866E0;3.116237640E1
1.357985650E1;-7.632605076E0;-9.731756210E0;3.075854492E1
1.359019650E1;-7.299873352E0;-8.470903397E0;2.628014565E1
1.360987050E1;-7.238014221E0;-8.039099693E0;1.655464363E1
1.361995550E1;-8.303275108E0;-9.852948189E0;1.209787846E1
1.364111850E1;-7.599051476E0;-1.218003654E1;4.889567375E0
1.365982650E1;-3.068979263E0;-1.749049377E1;5.116015434E0
1.366988550E1;-2.403955460E-1;-2.024946213E1;4.942142487E0
1.367992150E1;4.285447121E0;-2.282528114E1;3.547655582E0
1.369000950E1;9.472366333E0;-2.622524261E1;6.447800159E0
1.370001350E1;2.641649055E1;-2.875660324E1;-3.263122940E1
1.371008950E1;1.632043266E1;-1.823228836E1;-1.711987877E1
1.372991050E1;7.609976292E0;-8.377304077E-1;-9.744054794E0
1.373997650E1;3.826209068E0;2.558516502E0;-1.714447975E1
1.375997650E1;-1.137431383E0;9.094283104E0;-1.735120392E1
1.377987950E1;-9.424892664E-1;1.154860497E1;-4.990501404E0
1.378998350E1;1.814197004E-1;1.157027054E1;-7.446797490E-1
1.381002350E1;2.149627447E0;1.369729996E1;-1.246321678E1
1.382990450E1;2.571677864E-1;1.151257038E1;-6.015169024E-1
1.383994650E1;-1.617271304E-1;1.103991318E1;1.694779754E0
1.385014750E1;-3.342900574E-1;1.086314678E1;2.141290188E0
1.387127950E1;-5.149830580E-1;1.022110462E1;1.578794956E0
1.388305650E1;-2.989050865E0;8.494016647E0;-8.428993225E0
1.389991550E1;1.099555969E0;6.582168579E0;3.319720268E0
1.390994550E1;2.064832449E0;5.874743462E0;5.162134171E0
1.392994950E1;2.140854359E0;-6.775417328E-1;-5.219746590E0
1.395004050E1;1.598536730E0;-2.765728378E1;-6.716480732E0
1.396983750E1;-1.294249344E1;-3.141885757E1;8.247526169E0
1.397996950E1;-1.891164017E1;-3.155038452E1;1.133413887E1
1.398999450E1;-1.606715393E1;-3.078420067E1;9.253444672E0
1.401006750E1;-2.971588373E0;-1.395682526E1;4.204139709E0
1.403009150E1;7.500225306E-1;-4.811628819E0;6.179664135E0
1.404009350E1;1.273170948E0;-2.450416088E0;9.334331512E0
1.405986250E1;-1.411034822E0;-1.114646435E0;1.200040722E1
1.406990750E1;-2.663598061E0;-7.183699608E-1;1.078842545E1
1.408997250E1;-1.545280695E0;3.231496572E0;1.045242596E1
1.410986250E1;2.908615112E0;1.299923515E1;1.019041538E1
1.412007550E1;3.873677492E0;1.505656528E1;9.780342102E0
1.414004650E1;3.275478601E0;1.491531849E1;9.013103485E0
1.415006050E1;2.648973465E0;1.403395462E1;8.573148727E0
1.416991750E1;1.131889701E0;1.159720230E1;7.290463924E0
1.418046450E1;5.706112981E-1;1.023546696E1;4.974499226E0
1.420020150E1;3.478416800E-1;7.052844524E0;2.683423042E0
1.421997450E1;1.020650268E0;-1.596378326E0;-1.727708054E1
1.424012750E1;2.976667166E0;-4.089236736E0;-2.911000633E1
1.425987450E1;-3.336435318E0;1.120750427E0;3.130334854E1
1.427997150E1;-1.006640816E1;-2.984282970E0;1.387103653E1
1.429001650E1;-1.325886631E1;-1.525079250E1;2.980924225E1
1.431004550E1;-1.358809662E1;-1.735950470E1;2.744120026E1
1.433001550E1;-7.519661903E0;-1.606720734E1;1.259192848E1
1.434011850E1;-6.981141090E0;-1.695694351E1;8.111618996E0
1.436000250E1;-6.568531990E0;-1.852567101E1;3.399890423E0
1.437001550E1;-4.501688957E0;-1.889472580E1;2.444140434E0
1.438992450E1;2.496201038E0;-2.069977951E1;-3.009418726E0
1.439995650E1;1.805044746E1;-1.716610909E1;-3.607691956E1
1.441029050E1;1.603526306E1;-1.494903564E1;-3.034355354E1
1.442034950E1;9.767724991E0;-1.321427250E1;-5.641692162E0
1.444134550E1;4.104586601E0;-3.427022934E0;4.121431351E0
1.446053850E1;-1.498855114E0;4.922472000E0;-1.895529366E1
1.447997550E1;-2.487211943E0;9.452815056E0;-1.236954403E1
1.449983650E1;1.101777315E0;1.123876190E1;2.968627691E0
1.450998150E1;7.599150538E-1;1.098152065E1;2.070698738E0
1.452990450E1;4.240545273E0;1.323012924E1;-9.588742256E0
1.455013850E1;6.745610237E-1;1.212038994E1;-4.617394447E0
1.456992450E1;-2.989690542E0;1.008698082E1;-3.993785381E-1
1.458993850E1;-2.610291004E0;9.385715485E0;8.450486660E-1
1.460979750E1;-8.332849145E-1;5.612511158E0;-1.265854836E0
1.461982550E1;2.460988760E0;4.845887184E0;3.626140594E0
1.462998450E1;4.641524792E0;3.656280518E0;4.152887344E0
1.464016350E1;7.545266628E0;-2.436222076E0;2.079398632E0
1.465987050E1;7.898779869E0;-2.632238770E1;3.444014549E0
1.466995650E1;4.476022422E-1;-3.116584969E1;8.066328049E0
1.468014550E1;-1.099484539E1;-3.142535400E1;4.227887154E0
1.469982650E1;-7.733688831E0;-1.768594360E1;4.448820114E0
1.470992950E1;-6.960246563E0;-1.205100727E1;6.566337585E0
1.472003050E1;-5.003739834E0;-8.032661438E0;7.895467281E0
1.474006250E1;-1.865935326E0;-3.290834904E0;9.974371910E0
1.476135950E1;9.100915790E-1;-1.899065018E0;7.390947342E0
1.478080550E1;-2.453402042E0;-3.245607853E0;8.443592072E0
1.480015950E1;-4.444086552E0;1.040632725E0;9.163927078E0
1.481983950E1;-6.696126461E-1;7.430604458E0;8.259579659E0
1.482991550E1;6.028130054E-1;9.542371750E0;7.100377560E0
1.484001050E1;1.465513349E0;1.138968372E1;5.530014992E0
1.485003950E1;1.953672171E0;1.254361916E1;5.412804127E0
1.486986850E1;1.613720179E0;1.262381744E1;7.786813259E0
1.487993550E1;1.222690582E0;1.119716263E1;7.646677017E0
1.489038950E1;1.200984716E0;1.063042450E1;6.562552452E0
1.490997550E1;1.686995745E0;9.921206474E0;3.299600363E0
1.492991450E1;1.976029158E0;3.662961960E0;-9.610744476E0
1.494034050E1;-2.616175413E-1;1.990890503E0;-1.082161522E1
1.495998250E1;2.053057194E0;-3.466718197E0;-2.752400970E1
1.497993450E1;-2.656718969E0;1.899475098E0;3.379175949E1
1.499018350E1;-6.161913872E0;-9.236836433E-1;1.656348038E1
1.500998150E1;-4.012963772E0;-1.078112125E0;1.297622585E1
1.502995550E1;-7.601760864E0;-1.645460320E1;2.872065735E1
1.504029750E1;-7.108626366E0;-1.971982956E1;3.201249695E1
1.505983250E1;1.684743404E0;-1.883787346E1;1.634784698E1
1.507005550E1;1.233754396E0;-1.981865120E1;6.143491268E0
1.508998550E1;5.975780487E0;-1.763521576E1;-1.096624947E1
1.510989250E1;9.232197762E0;-1.381136608E1;-1.050897026E1
1.512990250E1;5.612139702E0;-1.064532089E1;-4.252859592E0
1.513991050E1;5.906087875E0;-6.706960678E0;-5.373356342E0
1.515992250E1;5.486846447E0;-1.419249535E0;-7.743766785E0
1.516999250E1;3.555935144E0;7.394981384E-2;-6.651387215E0
1.519005750E1;-7.066460252E-1;3.324222565E0;-7.579813957E0
1.521074550E1;-4.202946186E0;5.882925987E0;-4.889606476E0
1.523008750E1;-1.311991572E0;7.653707981E0;5.547725677E0
1.524991750E1;-8.565616608E-2;1.014671040E1;4.243314743E0
1.526991350E1;-9.316778183E-2;1.021378422E1;-8.180145264E0
1.529001350E1;1.109819412E0;9.154712677E0;2.700022459E0
1.530009750E1;1.499712825E0;8.862218857E0;4.353470802E0
1.531119350E1;1.623611927E0;8.713476181E0;4.586994648E0
1.532993450E1;1.071941853E-1;7.876078129E0;-2.503393173E0
1.534023550E1;3.475041389E-1;7.024644852E0;-2.446626425E0
1.535990550E1;4.697096348E0;5.702061653E0;2.353487492E0
1.537987150E1;6.390649796E0;4.630994797E-1;-2.672133923E0
1.539005450E1;8.468038559E0;-8.191389084E0;-7.158392906E0
1.541075150E1;1.332721710E0;-3.180809402E1;-5.524405479E0
1.542588550E1;-1.235972786E1;-3.285735321E1;8.944511414E0
1.543986950E1;-5.548601627E0;-2.923464012E1;8.043104172E0
1.544990150E1;1.927355051E0;-1.751034355E1;5.411734104E0
1.545992050E1;5.271881104E0;-1.039546204E1;4.730313301E0
1.547075450E1;6.813776016E0;-3.692330837E0;4.722569466E0
1.548160650E1;7.041336536E0;-2.628891468E0;4.775847435E0
1.549995750E1;4.479893684E0;-4.962628365E0;5.888617992E0
1.551002750E1;1.959528804E0;-6.736967564E0;7.294867516E0
1.552988450E1;1.524055004E-1;-4.594785213E0;9.688009262E0
1.553997550E1;2.219169378E0;-2.097687721E-1;9.802729607E0
1.556009550E1;3.318323135E0;6.588266850E0;7.390395164E0
1.557019650E1;3.659404993E0;9.405616760E0;5.016788960E0
1.559014050E1;5.057863712E0;1.184455299E1;3.499696255E0
1.561007450E1;5.430389881E0;1.127242756E1;5.731769085E0
1.562997950E1;5.885249138E0;9.694059372E0;8.125806808E0
1.564993250E1;5.453896999E0;7.037610531E0;4.123245716E0
1.565993350E1;7.271298409E0;5.336309433E0;-1.188169575E1
1.567004750E1;5.383674622E0;-2.677536964E0;-2.957731819E1
1.569036250E1;1.567627192E0;-2.456757736E1;-3.711279392E0
1.571005950E1;-9.266584396E0;-1.419427586E1;4.363640213E1
1.572996050E1;3.862910271E-1;5.013119698E0;3.381363297E1
1.574016450E1;4.052783966E0;1.050251675E1;2.754737473E1
1.576018150E1;-7.618277073E-1;3.381567955E0;1.845876312E1
1.578006050E1;-1.073110771E1;-1.076788521E1;1.384337807E1
1.579010550E1;-1.241511536E1;-1.622548103E1;1.094967079E1
1.580993750E1;-6.556486607E0;-2.153198624E1;-4.449140549E0
1.582010250E1;-1.102692485E0;-2.129878616E1;-1.102495003E1
1.584063950E1;1.343526363E1;-2.115440941E1;-1.353006840E1
1.586024450E1;1.266694641E1;-1.697885323E1;5.679542065E0
1.588005450E1;2.485534668E0;-7.424184799E0;-1.237410164E1
1.589041950E1;-8.546938896E-1;-3.473354340E0;-2.396317673E1
1.591016850E1;8.913679123E-1;4.003769875E0;-1.855779648E1
1.593018250E1;7.831033468E-1;8.215429306E0;-8.673010826E0
1.594990550E1;1.379701614E0;8.544507027E0;-2.689858198E0
1.595990650E1;1.807158232E0;9.076203346E0;-4.650042057E0
1.597986150E1;3.676977634E0;1.173430443E1;-9.519072533E0
1.598987850E1;3.551625013E0;1.183497143E1;-8.241996765E0
1.599991150E1;2.603838682E0;1.106533146E1;-3.168649197E0
1.600993250E1;1.750102520E0;1.014912224E1;1.265955210E0
1.602995450E1;1.704220891E0;9.565290451E0;4.717631817E0
1.603999450E1;1.532807589E0;9.416987419E0;4.428900242E0
1.606005850E1;-4.946467876E-1;5.781952858E0;-1.128629494E1
1.607985350E1;3.440120220E0;3.616363049E0;1.100695610E0
1.608992850E1;5.333614349E0;-1.947151184E0;2.231479168E0
1.610010250E1;4.774515152E0;-1.471243286E1;-1.944531441E0
1.612059650E1;-6.061990261E-1;-3.105724335E1;2.651634216E-1
1.613987050E1;-5.937722206E0;-3.085982132E1;7.762538910E0
1.615006650E1;-1.403104544E0;-2.192500305E1;4.237540722E0
1.616009650E1;1.852408290E0;-1.367394066E1;3.550247908E0
1.617098750E1;2.549990177E0;-9.116685867E0;3.569268465E0
1.619007050E1;4.937113762E0;-4.419569969E0;3.831406116E0
1.621015250E1;6.023808956E0;-3.787129879E0;6.990001678E0
1.622991350E1;7.037527561E-1;-4.241892338E0;9.897026062E0
1.625008950E1;1.087486982E0;4.216106415E0;9.807939529E0
1.626020650E1;1.667668343E0;7.546127319E0;1.193097687E1
1.627991350E1;3.301062107E0;1.238938141E1;1.260529709E1
1.629004750E1;3.687397242E0;1.358813477E1;1.056700706E1
1.630028350E1;3.805780411E0;1.445108414E1;9.212027550E0
1.631986350E1;3.305710077E0;1.297518539E1;7.386700153E0
1.632997750E1;2.696769714E0;1.147168064E1;6.796461105E0
1.634007450E1;2.221042156E0;1.039514065E1;6.437304497E0
1.635991750E1;1.709864378E0;9.677666664E0;3.584795475E0
1.637984650E1;-1.380190849E-1;5.976302147E0;-1.681938553E1
1.639038450E1;-1.697181225E0;1.168172359E0;-3.098292160E1
1.640995750E1;-4.858113289E0;-1.024986076E1;-3.380352020E1
1.642468850E1;-1.041156530E0;-3.289702415E0;4.514460373E1
1.644001250E1;4.707741737E-2;-3.721507072E0;4.156912613E1
1.645988450E1;3.658407450E0;-5.902939796E0;2.851558876E1
1.648085750E1;4.294686794E0;-5.193835258E0;1.488327408E1
1.649993050E1;-1.125568628E0;-1.228696918E1;1.127879524E1
1.651223550E1;-2.775528193E0;-1.759323692E1;9.034971237E0
1.652989950E1;-2.384844065E0;-2.334498787E1;4.707562447E0
1.653996350E1;3.956552744E-1;-2.287022018E1;2.461637974E0
1.655990250E1;5.307143688E0;-2.123441887E1;4.953384399E-1
1.656992450E1;1.835923767E1;-1.538031101E1;-3.697887421E1
1.658996950E1;9.422399521E0;-3.726584435E0;-1.568588257E1
1.660042250E1;6.840328693E0;9.971685410E-1;-3.153966904E0
1.661978550E1;2.362628222E0;3.714607716E0;-1.011992168E1
1.663008050E1;8.471292257E-1;5.572233677E0;-1.265560627E1
1.664982950E1;1.757926464E0;9.361703873E0;7.382575870E-1
1.665987150E1;2.930818081E0;1.166783905E1;-3.651120901E0
1.666992350E1;5.225670338E0;1.341683674E1;-9.760234833E0
1.669008850E1;3.391633987E0;1.143215275E1;3.107757568E-1
1.671000650E1;2.372161150E0;1.083553505E1;1.340417981E0
1.673006150E1;2.532029152E-1;9.148509979E0;2.281296015E0
1.674013950E1;6.393354535E-1;7.164383888E0;2.481714725E0
1.676160450E1;1.938373446E0;3.941022873E0;-7.756493568E0
1.677989750E1;-8.827060461E-1;-1.834514999E1;-8.010207176E0
1.679002550E1;-3.306381226E0;-2.503803635E1;4.390575409E0
1.681002650E1;-5.053633213E0;-2.876660538E1;1.719827461E1
1.682998550E1;8.873784542E-1;-2.435174179E1;4.055056572E0
1.684999850E1;1.507729292E0;-5.765818119E0;9.878234863E-1
1.686990550E1;2.102066427E-1;-1.531892300E0;7.348088264E0
1.688993750E1;-4.801236391E-1;7.566595078E-1;9.668936729E0
1.690991550E1;-1.611657858E0;3.498428345E0;9.954530716E0
1.692001050E1;-1.105168104E0;5.369340897E0;8.903203964E0
1.693987250E1;9.915695190E-1;9.774301529E0;7.863141537E0
1.695987650E1;1.935374141E0;1.279799938E1;4.933648586E0
1.697996150E1;1.465105534E0;1.255426788E1;5.382411957E0
1.699984950E1;1.662930012E0;1.110747433E1;3.753258944E0
1.700996650E1;1.716340661E0;1.058572960E1;2.982494354E0
1.702000150E1;2.179104090E0;1.035466003E1;1.477042317E0
1.704028450E1;3.146946430E0;2.822994709E0;-2.059043884E1
1.705999950E1;-1.981634736E0;1.537676334E0;1.912661171E1
1.707032550E1;-5.296811104E0;2.283878803E0;1.684941101E1
1.708994150E1;-1.191988373E1;-4.417589188E0;1.286987591E1
1.711009950E1;-1.231201935E1;-8.978024483E0;1.934394836E1
1.712994250E1;-6.725088120E0;-5.844616890E0;1.841831589E1
1.714994650E1;-8.120606422E0;-1.283746243E1;8.117494583E0
1.716987250E1;-3.724276543E0;-1.465069866E1;2.713558674E0
1.717988150E1;-1.279547930E0;-1.555723381E1;2.377116203E0
1.718991750E1;2.565435410E0;-1.669793892E1;1.712211847E0
1.720027950E1;5.193360806E0;-1.873942947E1;2.907840967E0
1.721983150E1;2.280519676E1;-1.365080547E1;-3.909391403E1
1.722997150E1;1.091418266E1;-9.365989685E0;1.856619239E0
1.725005350E1;3.574503422E0;-2.759049416E0;-6.928582191E0
1.726988650E1;-1.821310520E-1;4.366550446E0;-1.529370975E1
1.728062950E1;1.254580736E0;7.729470253E0;-7.512425900E0
1.729104850E1;2.898951530E0;1.027729225E1;-1.675474763E0
1.731051750E1;8.782581329E0;1.541776466E1;-1.602214050E1
1.732995850E1;7.673802376E0;1.264166260E1;-5.098481655E0
1.735004350E1;5.410826683E0;1.217517567E1;-2.533582687E0
1.736978450E1;8.617497087E-1;1.161052227E1;-1.947875500E0
1.737984250E1;7.318445444E-1;1.060327148E1;1.302332401E0
1.738990050E1;1.910360456E0;9.291667938E0;1.609282255E0
1.740988850E1;3.754721403E0;4.622683048E0;-1.130079937E1
1.741997850E1;7.183860779E0;-7.605080605E0;-1.951343155E1
1.744074150E1;-3.201066017E0;-3.033744049E1;8.263444901E-1
1.745983750E1;-1.134462833E1;-3.082934189E1;1.233952045E1
1.747995450E1;-3.205172777E0;-2.602658653E1;4.225683212E0
1.749979850E1;3.896781206E0;-1.681531525E1;-5.441641808E-1
1.751000150E1;6.746917248E0;-1.442089081E1;3.372889519E0
1.752989250E1;4.165342331E0;-1.288473606E1;1.109704018E1
1.753993550E1;5.988001823E-1;-1.280020332E1;1.107660866E1
1.754995650E1;-1.207821727E0;-1.138650894E1;9.456271172E0
1.756990350E1;-1.343526602E0;-5.975414276E0;9.515519142E0
1.758030550E1;1.048061490E0;-1.933366299E0;1.358423424E1
1.759981950E1;7.754936218E0;1.082171822E1;2.038948822E1
1.761024250E1;1.087082481E1;1.565703392E1;1.941809654E1
1.762994550E1;6.340003967E0;2.185047722E1;1.873697472E1
1.764991850E1;2.579264164E0;2.015078735E1;1.406135368E1
1.766048950E1;1.387598872E0;1.781256485E1;1.034439278E1
1.767994250E1;-2.599456310E-1;1.323122978E1;6.759211540E0
1.769015050E1;-2.649836540E-1;1.112274361E1;4.888602734E0
1.771016250E1;-5.265573502E0;-1.977132797E0;-3.055248070E1
1.773001250E1;-8.702680588E0;-1.306826878E1;-3.231406403E1
1.775005050E1;4.720997810E0;-4.990996361E0;-2.990921783E1
1.776987150E1;4.717841148E0;-1.090546131E0;4.367975616E1
1.777999050E1;-4.724774361E-1;-8.321603775E0;4.125135803E1
1.779983850E1;6.120184422E0;-5.043397903E0;2.401264191E1
1.780987450E1;8.459950447E0;-1.160097122E-1;1.671552467E1
1.783005750E1;1.872872114E0;-6.333305359E0;1.598758698E1
1.784014450E1;-5.319864750E-1;-1.280447292E1;1.421249008E1
1.785988350E1;3.500353336E0;-2.479277802E1;1.083972359E1
1.787000550E1;8.396298409E0;-2.828929710E1;9.164874077E0
1.789005550E1;1.535145664E1;-2.980417633E1;1.396029663E1
1.791004750E1;3.313557434E1;-2.584734726E1;-3.814610291E1
1.792020350E1;2.516927338E1;-1.364073563E1;-3.791812134E1
1.793988750E1;9.419943810E0;-2.874758720E0;-3.979865074E0
1.794988850E1;6.069253922E0;1.691206932E0;-9.744181633E0
1.796051750E1;2.954212666E0;4.645853043E0;-1.371069050E1
1.798001650E1;2.329525948E0;9.566969872E0;-4.639511585E0
1.799032850E1;1.983959079E0;1.122516441E1;-4.040463924E0
1.801016350E1;5.956126213E0;1.452882576E1;-1.107811546E1
1.802988450E1;1.631637096E0;1.040189552E1;-4.766063094E-1
1.804986850E1;2.869683743E0;9.832982063E0;4.139582157E0
1.805988550E1;3.195021152E0;9.770933151E0;2.975393534E0
1.806995550E1;1.907930255E0;9.859979630E0;-7.122233868E0
1.808995550E1;2.784090281E0;7.563689232E0;-3.148056269E0
1.810046050E1;4.189444542E0;6.653437614E0;3.285672426E0
1.811987550E1;4.957404137E0;3.613061428E0;3.743009567E-1
1.812989350E1;4.813208580E0;-1.188597679E-1;-5.249653339E0
1.815008350E1;4.872439861E0;-2.179497337E1;-7.925595760E0
1.816121350E1;-8.012919426E-1;-3.138290024E1;-3.217150688E0
1.817990150E1;-1.641329956E1;-3.215159607E1;9.186239243E0
1.819103450E1;-1.263895035E-1;-2.505108261E1;-5.641922951E-1
1.820991750E1;5.701963425E0;-1.011326981E1;2.802852869E0
1.823016350E1;3.070995808E0;-4.328176498E0;9.570809364E0
1.825002850E1;1.007091045E0;-2.092518806E0;7.836986065E0
1.826125050E1;1.059220433E0;-3.309845924E-1;7.647037506E0
1.828008050E1;3.354139328E0;5.495407104E0;9.541952133E0
1.830026050E1;5.621685505E0;1.196079445E1;1.180335236E1
1.832026850E1;8.049752235E0;1.607005310E1;1.209439468E1
1.834003950E1;5.744069576E0;1.666711617E1;1.142336464E1
1.836008150E1;2.562826395E0;1.240720177E1;1.212590981E1
1.837991950E1;2.379331589E-1;7.528101444E0;9.506226540E0
1.839993850E1;1.478018522E0;5.317011833E0;4.981676579E0
1.841930750E1;2.150130033E0;-1.347332954E1;-3.571284103E1
1.843036250E1;6.145341873E0;-5.504829407E0;-2.802384186E1
1.844061350E1;2.779048443E0;8.172960281E-1;3.152048111E1
1.846030550E1;4.137157440E0;2.213399887E0;3.975640106E1
1.848079850E1;-1.442894936E0;-7.240975380E0;2.866897202E1
1.849990750E1;-6.881547928E0;-1.295139885E1;1.471873665E1
1.851006350E1;-7.782841682E0;-1.357745457E1;5.466528893E0
1.853003750E1;-6.171007633E0;-1.590066528E1;-1.641369581E0
1.854978250E1;1.268429637E0;-1.833520126E1;-1.064241886E0
1.855988150E1;7.157911301E0;-2.124899673E1;1.314991236E0
1.856992350E1;1.623795700E1;-2.517296982E1;3.843849421E0
1.858990350E1;2.470622063E1;-2.647162056E1;-2.740505981E1
1.860994050E1;2.470208883E0;-6.646453857E0;-1.718015289E1
1.862001450E1;2.114354134E0;1.088474274E0;-3.192748260E1
1.864163950E1;3.302580833E0;6.831417084E0;-1.862428856E1
1.866002650E1;3.441961765E0;1.092309380E1;-1.309751701E1
1.867981350E1;6.702608585E0;1.106364822E1;-6.678595066E0
1.869007150E1;7.421545029E0;1.195644951E1;-1.084550667E1
1.870995850E1;2.711184502E0;1.138273716E1;-6.806003571E0
1.872007450E1;9.791519642E-1;9.741216660E0;1.911251545E0
1.873985550E1;1.270139694E0;9.649580956E0;3.594894409E0
1.874989250E1;8.110104799E-1;9.590897560E0;-9.114069343E-1
1.875990250E1;-1.800434113E0;6.737384796E0;-2.407626152E1
1.877980650E1;2.702146053E0;4.419622421E0;1.328224182E0
1.878993750E1;3.626864433E0;3.186564922E0;1.478100538E0
1.881033950E1;-2.308627605E0;-3.056980515E1;-2.909067392E0
1.883002850E1;-9.660977364E0;-3.104571152E1;1.061731720E1
1.884016250E1;-4.903450489E0;-2.977789116E1;7.000066280E0
1.885989450E1;5.428879738E0;-1.829675293E1;-2.372936726E0
1.887022550E1;8.595806122E0;-1.440863132E1;1.320843697E-1
1.889014550E1;8.723296165E0;-9.783529282E0;9.627260208E0
1.891008250E1;4.901634216E0;-6.041790962E0;1.162439346E1
1.892993150E1;2.607855558E0;-1.606808186E0;7.814481258E0
1.894011750E1;2.613758802E0;4.908242226E-1;7.545645714E0
1.895985950E1;3.493978739E0;6.801161289E0;1.306576920E1
1.896986650E1;4.962887287E0;1.075131798E1;1.546669769E1
1.898995550E1;6.033596992E0;1.750460052E1;1.285835075E1
1.900000750E1;4.431468964E0;1.958083725E1;1.265018177E1
1.901988750E1;2.311193943E0;1.564988232E1;1.588928413E1
1.902995750E1;5.130937099E-1;1.201543808E1;1.312856674E1
1.905002150E1;-1.229789495E0;8.002948761E0;9.484744072E0
1.906011350E1;-1.076669216E0;6.840286255E0;7.334908485E0
1.907992550E1;-1.094773054E0;3.414437294E0;-2.523141384E0
1.909997250E1;-2.034842968E0;-1.549669456E1;-3.676989365E1
1.911111450E1;2.819356918E0;-4.586526871E0;-3.625717926E1
1.912995350E1;7.751342773E0;2.370911121E0;4.254284668E1
1.914995150E1;4.056619167E0;-2.858137131E0;4.204034805E1
1.916992950E1;3.171492577E0;-4.962702751E0;2.225141716E1
1.917994550E1;-4.046392441E-2;-7.378186226E0;1.359773636E1
1.920023350E1;-4.030090332E0;-1.667759705E1;1.829479218E0
1.921998850E1;7.145490646E-1;-2.380988121E1;4.099270821E0
1.923005550E1;5.641339302E0;-2.933992767E1;8.594882965E0
1.924033950E1;2.216344070E1;-2.989002037E1;-1.575684357E1
1.925993450E1;2.547567558E1;-2.448456764E1;-2.299402046E1
1.927987750E1;7.720331669E0;-1.555235004E1;7.216445923E0
1.928996750E1;4.961746216E0;-8.046426773E0;-1.036284256E1
1.930018950E1;5.493382931E0;-1.055694580E0;-3.452201843E1
1.931041850E1;7.789921761E0;3.726341248E0;-2.920283127E1
1.933004150E1;4.869212627E0;8.236495972E0;-8.531730652E0
1.934980550E1;3.909408569E0;9.848938942E0;-6.047919273E0
1.936030150E1;5.305227757E0;9.783899307E0;-6.600649834E0
1.937982650E1;9.874320984E0;1.399440384E1;-2.584992790E1
1.939001650E1;2.535216808E0;1.074328709E1;-8.657017708E0
1.940031950E1;3.414788246E-1;1.035467625E1;-2.399060726E0
1.941990850E1;1.567028999E0;1.048343468E1;3.469990730E0
1.942996050E1;1.409267068E0;9.438725471E0;2.215015411E0
1.944015450E1;3.328526020E-1;7.149297237E0;-1.402777576E1
1.945992450E1;1.198778272E0;2.901813984E0;-3.325922489E0
1.946993650E1;2.569097042E0;3.047704220E0;3.322786570E0
1.949035450E1;4.486811638E0;-5.153761864E0;1.735160351E-1
1.950998350E1;6.840680122E0;-2.677374077E1;4.760049343E0
1.952992750E1;2.143703222E0;-3.095300102E1;-3.364979744E0
1.954994450E1;8.255018592E-1;-3.029208755E1;-5.233824253E0
1.956991150E1;7.245385647E0;-1.295852661E1;5.695257187E0
1.958140050E1;6.961578846E0;-3.965326309E0;9.742524147E0
1.959984850E1;3.322273731E0;-8.905062675E-1;9.067962646E0
1.961041050E1;8.259855509E-1;-3.272380829E-1;8.729855537E0
1.962995850E1;8.096852899E-1;2.671020985E0;1.153049660E1
1.964981450E1;3.122194529E0;8.915150642E0;1.293712997E1
1.966010950E1;4.764969349E0;1.211249924E1;1.623627281E1
1.967987950E1;4.419483185E0;1.768836975E1;1.544132423E1
1.968999650E1;3.387634516E0;1.946461868E1;1.600488663E1
1.971002050E1;2.144134760E0;1.772205353E1;1.494935417E1
1.972995250E1;-6.570711136E-1;1.386395073E1;5.864379883E0
1.974985850E1;-2.750275373E0;8.442828178E0;2.447723389E0
1.976076550E1;-1.880349159E0;6.940792084E0;-8.130097985E-1
1.977106450E1;-3.793616056E0;-7.165109634E0;-3.781483078E1
1.978990050E1;1.166521549E0;-8.588024139E0;-3.788958359E1
1.979993450E1;3.100142717E0;1.983337402E-1;-3.163338470E1
1.981000250E1;4.096342564E0;3.500914097E0;3.371575928E1
1.982987450E1;6.041722298E0;-1.757322311E0;4.078770828E1
1.983996350E1;6.314562321E0;-7.227835655E0;3.725984573E1
1.985001750E1;6.555006027E0;-7.575406075E0;2.441742134E1
1.986008350E1;4.768373966E0;-7.768441200E0;1.368129730E1
1.987985150E1;-4.534512043E0;-1.482888412E1;4.166074753E0
1.989014250E1;-5.202903748E0;-1.839402390E1;2.194527864E0
1.991009650E1;2.568366528E-1;-2.486416245E1;2.028847456E0
1.992993550E1;1.365170860E1;-2.986226273E1;1.116871262E1
1.994991150E1;3.406368256E1;-2.857967377E1;-4.080264282E1
1.996988450E1;7.461289406E0;-1.916651154E1;-7.021095753E0
1.998989550E1;3.364401340E0;3.427767277E0;-3.935572815E1
2.000994450E1;3.762937069E0;7.010615826E0;-1.362761784E1
2.002003150E1;4.547005653E0;8.353941917E0;-5.095207691E0
2.004035850E1;6.834188938E0;1.089939690E1;-8.113230705E0
2.006004850E1;6.907311440E0;1.164180946E1;-1.338063431E1
2.008016550E1;3.724353313E0;1.125538540E1;-8.889763832E0
2.009997650E1;3.019870520E0;1.014861965E1;-6.456856728E-1
2.011042550E1;3.985077858E0;9.879641533E0;2.090263844E0
2.012980450E1;4.051318169E0;9.443498611E0;1.037360311E0
2.014012950E1;4.505245686E0;9.060371399E0;-8.000514030E0
2.015981450E1;4.861296654E0;4.945999146E0;-1.140928984E0
2.016983750E1;6.756276131E0;3.649361610E0;8.780448437E-1
2.018993050E1;1.113511372E1;-1.877634048E1;-3.934618473E0
2.020014850E1;8.148303986E0;-2.985425949E1;-3.397047758E0
2.021989050E1;-1.255522013E0;-3.109885597E1;4.082421303E0
2.022991050E1;-3.835449219E0;-3.120226669E1;7.265377045E-2
2.024026950E1;1.656809092E0;-2.998067665E1;-4.102156639E0
2.026031850E1;8.186479568E0;-1.431964874E1;1.776698351E0
2.027986450E1;5.874671936E0;-7.270801067E0;8.238738060E0
2.029053250E1;3.671632767E0;-5.716422081E0;1.142464256E1
2.030232550E1;2.087355614E0;-4.478242874E0;1.174972343E1
2.031995050E1;-3.629777431E-1;-1.391963959E0;8.594816208E0
2.032999650E1;-1.030949831E0;2.893161774E-1;9.152386665E0
2.034003650E1;-6.744780540E-1;2.489497185E0;9.612991333E0
2.035991550E1;1.147112608E0;8.562648773E0;9.407894135E0
2.037984850E1;6.066245556E0;1.788178635E1;7.825591564E0
2.039031150E1;5.370928288E0;1.811973190E1;6.098164082E0
2.040993650E1;4.487604618E0;1.754671478E1;6.628042221E0
2.042205150E1;3.894353628E0;1.590257835E1;9.359848976E0
2.044000950E1;1.792231560E0;1.094447708E1;1.036059475E1
2.045019650E1;1.210069418E0;9.094731331E0;9.059098244E0
2.046995450E1;2.083688736E0;7.385992050E0;4.540771484E0
2.048992650E1;4.043594837E0;7.324589729E0;-1.062534690E0
2.051048050E1;2.317191124E0;-1.688095093E0;-2.811922455E1
2.052983250E1;6.188170433E0;-1.888476372E0;-3.562034225E1
2.054989550E1;1.253652191E1;6.621956348E0;4.253504944E1
2.056040450E1;2.825661421E0;-1.671056747E-1;2.783535385E1
2.058004650E1;-2.158029079E-1;-5.527020454E0;2.123810577E1
2.059010250E1;-4.503440857E0;-1.477271652E1;1.943389893E1
2.061004850E1;-2.171276331E0;-2.369641685E1;1.143639565E1
2.063002050E1;1.173033953E0;-2.644299698E1;3.666960239E0
2.064028450E1;2.522926092E0;-2.886845970E1;1.037069798E0
2.065988350E1;1.182501602E1;-2.500957489E1;-3.233091354E1
2.066988950E1;1.379419136E1;-2.211158752E1;-3.932950592E1
2.068987950E1;9.268544197E0;-1.701138306E1;1.056899738E1
2.071017950E1;4.897457600E0;-6.606445312E0;-8.011711121E0
2.072992050E1;-2.811250687E-1;4.205366135E0;-3.200858688E1
2.074009950E1;3.501768112E-1;6.339174747E0;-2.224779510E1
2.076006350E1;1.980552435E0;7.241594315E0;-6.274130344E-1
2.077012750E1;2.707899809E0;7.715750694E0;-1.155844688E0
2.079135050E1;4.375939369E0;1.158803749E1;-1.897913170E1
2.080996250E1;2.303709745E0;1.100605583E1;-1.364657307E1
2.082993750E1;1.260252595E0;9.209558487E0;-3.749358654E-2
2.084014250E1;1.951978445E0;9.109093666E0;3.901840687E0
2.085989050E1;1.925778866E0;9.143872261E0;3.750850201E0
2.086992050E1;1.788234234E0;9.004347801E0;2.663036108E0
2.088991450E1;-5.725717545E-2;7.061092377E0;-1.349515152E1
2.090995950E1;4.211107731E0;4.924562454E0;-1.555743098E0
2.092993950E1;6.151608467E0;-4.102516174E-2;-3.210099220E0
2.094038950E1;9.564742088E0;-1.135337448E1;-1.063566589E1
2.095988650E1;-4.811378956E0;-3.064469528E1;3.144885540E0
2.097979950E1;2.558295012E0;-2.896619987E1;-3.493545532E0
2.098996750E1;8.117066383E0;-1.913175774E1;-2.483606100E0
2.100996150E1;1.084640789E1;-6.343719006E0;1.238854408E0
2.102988350E1;5.507107735E0;-2.386202335E0;5.830753803E0
2.103994750E1;3.247358799E0;-1.794693470E0;7.026324749E0
2.104994850E1;2.364414215E0;-8.957247734E-1;7.513707638E0
2.105996050E1;1.681328416E0;7.567372322E-1;8.003636360E0
2.107084450E1;1.883677959E0;2.816525459E0;8.221961021E0
2.109000450E1;3.799852371E0;9.213790894E0;6.304700851E0
2.111057150E1;5.029384613E0;1.369246674E1;8.191903114E0
2.112991450E1;5.039783955E0;1.559734535E1;9.250118256E0
2.114023450E1;4.384233952E0;1.469998932E1;1.146669483E1
2.116021650E1;2.047111034E0;1.035765457E1;9.105649948E0
2.118009850E1;1.779264688E0;8.795428276E0;3.361990452E0
2.119978950E1;1.500340223E0;6.914783478E0;1.267063975E0
2.121009050E1;3.651192188E-1;4.572431564E0;-8.787475586E0
2.122986750E1;2.313611031E0;-2.193746567E-1;-3.314122772E1
2.123992550E1;4.377415180E0;6.612155437E0;-3.568290710E1
2.125980950E1;1.862041354E0;2.650879860E0;4.123567581E1
2.127993050E1;-3.561491966E0;-9.398284912E0;3.782226562E1
2.128993750E1;-3.437025547E0;-1.474077415E1;3.311966324E1
2.129997550E1;-3.482010841E0;-1.767340469E1;2.894432068E1
2.131994850E1;-1.233665943E-1;-1.307672310E1;1.165313816E1
2.134005850E1;2.911114693E-2;-1.447462940E1;4.613693237E0
2.136003250E1;7.187464714E0;-2.125054550E1;9.168715477E0
2.137986350E1;3.038443184E1;-2.381068039E1;-3.828766632E1
2.139025250E1;2.440502930E1;-1.961321831E1;-2.317870903E1
2.140999050E1;6.778314590E0;-1.384596539E1;-3.280502796E0
2.142359850E1;5.926901817E0;-7.458764076E0;-1.736752701E1
2.143449750E1;6.543546200E0;-2.086383820E0;-2.339125252E1
2.145000550E1;3.711133957E0;4.852419376E0;-1.835087776E1
2.146002250E1;4.310599566E-1;6.902858734E0;-1.430849743E1
2.147025450E1;-1.161505461E0;8.206920624E0;-9.777131081E0
2.148997050E1;6.984608173E-1;1.010414982E1;-8.972706795E0
2.151009850E1;-3.349692822E-1;1.181756115E1;-1.615884972E1
2.152062550E1;-6.049325466E-1;1.092048645E1;-7.576630592E0
2.154271650E1;2.855884552E0;1.090860939E1;4.304758549E0
2.155629150E1;4.255424023E0;1.069443798E1;5.752227306E0
2.156997750E1;3.965905905E0;1.042651749E1;3.410541058E0
2.158275850E1;3.400854588E0;9.205923080E0;6.629986167E-1
2.159586150E1;4.517754078E0;4.393807888E0;-1.072869492E1
2.161002350E1;6.145171165E0;4.034395218E-1;-3.969078064E-1
2.162993350E1;3.222631931E0;-2.175810242E1;-5.078991890E0
2.164147950E1;-2.962157488E0;-3.037674713E1;-5.852064133E0
2.166034950E1;-7.143294334E0;-3.096963120E1;7.186315060E0
2.167990550E1;7.449281812E-1;-2.260475159E1;3.340941906E0
2.169015650E1;4.886745453E0;-1.693917084E1;1.295153141E0
2.171020050E1;9.396405220E0;-9.969156265E0;2.480663061E0
2.172991650E1;6.447217941E0;-8.091768265E0;1.009192944E1
2.174989550E1;-2.337940216E0;-4.739511490E0;7.006082535E0
2.175989950E1;-1.886864185E0;-1.504116535E0;7.268553734E0
2.176993250E1;-1.246222019E0;2.490987778E0;1.051764584E1
2.179011850E1;2.652756691E0;1.115543938E1;1.493649864E1
2.181002950E1;4.283933640E0;1.715340424E1;1.414019203E1
2.183050050E1;2.772142410E0;1.847576904E1;1.104135799E1
2.184987850E1;1.852204680E0;1.704796600E1;1.077655602E1
2.185996350E1;7.474377155E-1;1.534251308E1;9.495775223E0
2.187992250E1;-1.114906073E0;1.227487278E1;8.307401657E0
2.188997450E1;-1.387751341E0;1.016847515E1;5.846881390E0
2.190986950E1;6.455266476E-1;8.418841362E0;-4.556813240E-1
2.191993650E1;-3.404173136E0;-2.168566704E0;-3.423385620E1
2.192994550E1;-5.298221588E0;-8.787097931E0;-3.567270660E1
2.194000950E1;-2.985691786E0;-2.294712067E-1;-3.615034866E1
2.195988750E1;6.990096092E0;6.200601578E0;4.299240875E1
2.196993550E1;1.024401855E1;3.332822323E0;4.300051117E1
2.198005650E1;7.098033428E0;-5.004897118E0;4.250033188E1
2.199020850E1;5.982471466E0;-9.175987244E0;3.570604706E1
2.201006650E1;1.143819094E0;-1.025354481E1;1.394827175E1
2.203033250E1;-5.792339325E0;-1.392188072E1;7.630984783E0
2.204060750E1;-5.709407806E0;-1.677704620E1;5.387142658E0
2.206006650E1;-2.838536263E0;-2.114770317E1;2.822998762E0
2.207008550E1;5.608895421E-2;-2.238746643E1;2.821948528E0
2.208989550E1;2.337817574E1;-2.811742592E1;-2.574247169E1
2.210010250E1;3.211101151E1;-2.133678055E1;-3.840137482E1
2.211100650E1;2.127903175E1;-1.919239044E1;-1.511265945E1
2.213012750E1;1.175985622E1;-3.556000710E0;-2.813792467E0
2.214030150E1;1.018535328E1;2.556954384E0;-2.481228828E1
2.215985650E1;7.222068787E0;9.253767014E0;-2.115877724E1
2.216997050E1;4.846324444E0;9.957981110E0;-1.264716053E1
2.219003850E1;2.405336380E0;1.052972221E1;-7.304294109E0
2.220007450E1;3.093061447E0;1.068210220E1;-7.059253693E0
2.221982850E1;5.597460747E0;1.444531536E1;-2.410422897E1
2.222998550E1;2.161994457E0;1.254163170E1;-1.443600655E1
2.224014850E1;-6.621788740E-1;1.083943939E1;-6.117952347E0
2.226004850E1;-1.672118664E0;1.051352119E1;5.941408277E-1
2.227985650E1;1.169090033E0;9.376626015E0;2.986446381E0
2.228999950E1;1.422019005E-1;7.900311470E0;-4.124864578E0
2.231006850E1;8.084077835E-1;2.770491600E0;-8.375770569E0
2.233016150E1;5.042420387E0;-1.042389679E1;-2.065216780E0
2.234161350E1;6.915161610E0;-2.122316360E1;2.207115412E0
2.236023950E1;4.727554321E0;-3.088761520E1;5.955707073E0
2.237099250E1;1.299930811E0;-3.108180809E1;-2.069451332E0
2.239011150E1;1.706123590E0;-2.873205566E1;-3.292955399E0
2.241061050E1;6.324734211E0;-1.199299049E1;5.729722500E0
2.243014350E1;6.537723541E0;-3.972222805E0;1.200648499E1
2.244203750E1;6.021208763E0;-1.649252892E0;1.199108315E1
2.245522800E1;1.651987195E0;9.399604797E-2;1.115133476E1
2.246996150E1;9.787561893E-1;1.122609138E0;1.184291458E1
2.247996150E1;8.757259846E-1;2.828798532E0;1.221254539E1
2.249986850E1;1.836652756E0;8.360259056E0;1.680810547E1
2.250997550E1;2.986850977E0;1.199639320E1;1.612473297E1
2.252987450E1;2.855577230E0;1.951703835E1;1.410559368E1
2.254069450E1;2.252121925E0;1.889788437E1;1.435300827E1
2.256044350E1;2.200988531E-1;1.612669373E1;8.772654533E0
2.257982250E1;-2.168402672E0;1.235441303E1;7.792721748E0
2.258996350E1;-2.270457268E0;1.032175159E1;5.621256828E0
2.260132850E1;-1.478903055E0;8.957931519E0;1.230260134E0
2.261982350E1;-2.443707705E0;-1.315489769E0;-2.783479118E1
2.262985350E1;-1.603599548E0;-8.859361649E0;-3.652441788E1
2.263986750E1;-3.010106087E0;-1.182958889E1;-3.030317116E1
2.265989250E1;2.418052673E0;4.963903427E-1;-3.113447571E1
2.267987750E1;1.062449455E1;5.051546097E0;4.235361481E1
2.268989350E1;5.287450790E0;-5.344070435E0;4.219963455E1
2.271004950E1;3.048960209E0;-1.290192032E1;2.615373993E1
2.272990050E1;-2.421288013E0;-1.247615623E1;4.190968513E0
2.274994550E1;-4.902577400E-1;-1.775083160E1;3.875495911E0
2.276990050E1;5.506427765E0;-2.397051048E1;1.470354080E1
2.279000450E1;3.274137878E1;-2.732399750E1;-3.601560211E1
2.280991750E1;1.309698868E1;-1.978245163E1;-1.296755981E1
2.282985750E1;9.439020157E0;-7.083642006E0;-3.679883957E0
2.283985850E1;1.169238281E1;-8.685235977E-1;-1.955148888E1
2.284998650E1;1.170129204E1;3.157614708E0;-2.614218330E1
2.286006250E1;1.083740902E1;4.406291962E0;-1.868863869E1
2.288016650E1;3.218133688E0;7.339753151E0;-8.417055130E0
2.289985650E1;2.436904907E0;1.046014977E1;-6.739161491E0
2.290995250E1;4.291083813E0;1.238554573E1;-1.431246281E1
2.293012550E1;5.452739716E0;1.225036812E1;-7.403342247E0
2.294988450E1;1.760332584E0;1.159025955E1;-3.132733345E0
2.296010550E1;1.485795259E0;1.121127892E1;-2.847130060E0
2.297982250E1;1.916225553E0;8.469913483E0;-1.172552872E1
2.299000450E1;2.748786449E0;5.867724419E0;-1.449583817E1
2.300998350E1;2.815270424E0;3.419296741E0;-7.705130577E-1
2.303001650E1;4.460758686E0;-5.530126572E0;1.046571970E0
2.304008850E1;5.774944782E0;-1.639333725E1;7.112157345E-1
2.306006150E1;2.884135246E0;-3.084049225E1;2.380163431E0
2.307992150E1;-3.576374292E0;-3.115459061E1;-3.390370846E0
2.309007350E1;-3.778234005E0;-3.076447105E1;-6.296439171E-1
2.311010950E1;6.633092403E0;-8.106857300E0;6.297223568E0
2.312996550E1;2.813466072E0;-3.939328194E0;8.851571083E0
2.314024850E1;1.325555086E0;-2.157735825E0;8.867444992E0
2.315988750E1;5.096437931E-1;1.006457806E0;7.049747944E0
2.317984550E1;2.425360680E0;5.163320065E0;1.253878689E1
2.318999650E1;3.217952251E0;8.133217812E0;1.746226311E1
2.321001450E1;3.419836521E0;1.453828144E1;1.550047302E1
2.322989250E1;2.999394894E0;1.967578125E1;1.362063217E1
2.323990650E1;2.002783298E0;1.975982285E1;1.488270950E1
2.326000550E1;-5.465042591E-1;1.544824505E1;1.095261288E1
2.327985550E1;-3.859101772E0;1.039108658E1;6.972940445E0
2.329003850E1;-4.794265747E0;8.206933975E0;4.696749210E0
2.331001750E1;-3.295946836E0;1.973049641E0;-1.301017094E1
2.332991250E1;4.820693016E0;-9.183609962E0;-3.745965195E1
2.334990550E1;-8.502340317E-2;1.384174824E0;3.646803284E1
2.336009450E1;2.796322584E0;1.519381046E0;4.174806213E1
2.337983250E1;-3.880409718E0;-8.763035774E0;3.111669350E1
2.338993850E1;-4.023291588E0;-9.304863930E0;2.159692192E1
2.341039850E1;-4.923198700E0;-1.004420853E1;5.929199696E0
2.342994450E1;-4.641340733E0;-1.448019505E1;1.137184501E0
2.343997050E1;-1.026217699E0;-1.617786789E1;2.551895857E0
2.346005650E1;6.067135811E0;-2.272572327E1;7.982159138E0
2.348023250E1;3.337758636E1;-2.831326675E1;-3.011599350E1
2.349984450E1;9.337344170E0;-2.285396385E1;-5.939525127E0
2.350999850E1;8.717388153E0;-8.343351364E0;-6.053789616E0
2.352000050E1;9.833108902E0;-1.602409363E0;-1.869735909E1
2.353006850E1;1.035226631E1;2.566113949E0;-2.491186714E1
2.354010950E1;9.225426674E0;5.939893723E0;-2.333653641E1
2.355987150E1;3.398354292E0;8.057122231E0;-1.216234016E1
2.356987550E1;3.018236876E0;8.334624290E0;-7.791019440E0
2.358997150E1;4.781646729E0;1.071736431E1;-1.094880581E1
2.360993350E1;5.970619678E0;1.223412418E1;-1.366708088E1
2.362987250E1;2.302845478E0;1.112126827E1;-5.018286705E0
2.364065850E1;1.163162708E0;1.104085732E1;-3.802088022E0
2.366021150E1;2.331503153E0;1.059465504E1;-4.403665364E-1
2.367981450E1;1.492999792E0;7.290902615E0;-1.323327446E1
2.368998550E1;1.613148808E0;4.770678043E0;-1.591918087E1
2.370015050E1;2.830072165E0;3.840065002E0;1.120097041E0
2.371983050E1;3.905299902E0;-4.831749916E0;-8.312036991E-1
2.372990050E1;4.883999825E0;-1.592039680E1;-1.529585361E0
2.374003250E1;4.874399185E0;-2.618705940E1;2.418361664E0
2.375981950E1;-2.705454826E-2;-3.100806046E1;1.805239916E0
2.376986150E1;-4.614841461E0;-3.113864136E1;-2.608861446E0
2.378069150E1;-2.125917673E0;-3.064237976E1;-4.973903179E0
2.380064350E1;5.796819210E0;-1.463015747E1;1.325198650E0
2.381982150E1;4.126550198E0;-7.301731586E0;9.979601860E0
2.382999250E1;2.450334787E0;-5.311604977E0;1.088043880E1
2.384990250E1;7.399821281E-1;-1.201003551E0;9.447957039E0
2.386978250E1;1.084500432E0;1.912674904E0;9.285865784E0
2.387982650E1;1.520590782E0;3.756290674E0;1.018391991E1
2.388992250E1;3.072247505E0;5.723656178E0;1.429249382E1
2.389997950E1;4.272481918E0;1.248506927E1;1.443558693E1
2.391995450E1;4.551199913E0;1.705433846E1;1.041928387E1
2.393009750E1;3.663686752E0;1.838000298E1;8.384740829E0
2.394993450E1;1.907918096E0;1.653508377E1;1.149895859E1
2.396982950E1;-6.871852875E-1;1.137695217E1;8.565315247E0
2.397985750E1;-1.278762579E0;9.369248390E0;7.944479465E0
2.398988150E1;-7.210404873E-1;8.039529800E0;7.098384857E0
2.400991850E1;7.874357700E-1;6.784663677E0;3.217025995E0
2.402978450E1;-1.043201208E0;-8.749632835E0;-3.588831711E1
2.404013850E1;1.589896798E0;-7.072126389E0;-3.515375519E1
2.405979950E1;5.384805202E-1;3.251333714E0;3.754135132E1
2.406980250E1;5.062699318E0;4.746652603E0;4.254541397E1
2.407981750E1;2.813363075E-2;1.260643005E-1;3.311139297E1
2.409982950E1;-7.592411041E0;-1.808921051E1;2.190452194E1
2.411003950E1;-8.063619614E0;-1.862444496E1;1.268272018E1
2.412993050E1;-6.129763126E0;-2.113282204E1;3.675583601E0
2.414988450E1;-2.170850039E-1;-2.058850288E1;3.117520809E0
2.416010450E1;3.010215044E0;-2.066857529E1;3.540716887E0
2.418035450E1;2.135649490E1;-2.679772949E1;-6.678354740E0
2.419978850E1;2.355462646E1;-2.034809303E1;-2.201609993E1
2.421012850E1;1.262859058E1;-1.898115158E1;-7.906949043E0
2.422989450E1;9.962988853E0;-2.728314400E0;-6.832165241E0
2.424004450E1;8.525830269E0;1.487153530E0;-2.187322426E1
2.425986050E1;6.366009712E0;7.396551132E0;-1.913782692E1
2.427000050E1;5.433110237E0;9.262139320E0;-1.299678040E1
2.428994350E1;6.871412277E0;1.151483536E1;-6.076164722E0
2.430996850E1;7.494242668E0;1.203703499E1;-9.824683189E0
2.432987850E1;5.425631046E0;1.198799515E1;-4.945394993E0
2.434012250E1;3.533333302E0;1.144967365E1;-2.630464315E0
2.435979950E1;4.806207657E0;1.254171276E1;-5.148456097E-1
2.436983150E1;3.727299213E0;1.000662041E1;-2.174937725E0
2.437985450E1;2.564693689E0;6.779585838E0;-9.752207756E0
2.438992950E1;2.930349827E0;4.707908630E0;-5.623636246E0
2.440991750E1;3.373471260E0;3.429003239E0;3.534875870E0
2.442764250E1;4.418001175E0;-1.828681755E1;-5.373586178E0
2.443984950E1;3.987065315E0;-2.718660545E1;-1.981313705E0
2.444991250E1;5.692433119E-1;-3.130639648E1;2.368556261E0
2.446997850E1;-7.888821125E0;-3.177457428E1;6.680387497E0
2.448118650E1;-2.231322289E0;-2.585983276E1;1.904001713E0
2.449372250E1;4.044335842E0;-1.818187714E1;8.456144333E-1
2.451059350E1;8.240944862E0;-1.053353786E1;6.045606613E0
2.453009350E1;2.357305288E0;-8.352632523E0;1.218893623E1
2.454215550E1;7.858896852E-1;-7.216739655E0;1.151012516E1
2.455991050E1;-1.703533769E0;-4.009431839E0;8.515215874E0
2.456993750E1;-1.731117010E0;-2.268869400E0;9.158194542E0
2.457997150E1;-7.632029057E-1;4.003834724E-1;1.054586506E1
2.459002750E1;7.262872458E-1;4.146928310E0;1.301283836E1
2.460008050E1;2.658873796E0;8.279373169E0;1.449195671E1
2.461999950E1;5.759893417E0;1.510165787E1;1.389165688E1
2.463016750E1;6.436118126E0;1.718691635E1;1.410030174E1
2.465023150E1;3.966499090E0;1.849738503E1;1.053904438E1
2.466095650E1;1.633089781E0;1.416553116E1;1.082116508E1
2.467736650E1;6.407418251E-1;1.154960251E1;1.002551270E1
2.468988650E1;-8.324623108E-2;8.237616539E0;7.133550644E0
2.471001850E1;1.327463388E0;6.627667904E0;2.243116856E0
2.472223350E1;8.673977852E-2;2.747720718E0;-9.799317360E0
2.474100150E1;2.147092581E0;-1.107369137E1;-3.502400970E1
2.475154950E1;1.618786812E0;-3.320188999E0;-2.496557617E1
2.477013250E1;8.835960388E0;4.333631992E0;4.369628143E1
2.478251950E1;3.884330750E0;-2.194347382E-1;3.469885254E1
2.479540950E1;-3.172701597E0;-1.167189503E1;3.039590073E1
2.480991950E1;-5.122176170E0;-1.373552608E1;2.431845284E1
2.483018450E1;-6.176075935E0;-1.262123203E1;9.545571327E0
2.484058850E1;-5.934399605E0;-1.368321514E1;5.961822510E0
2.485991650E1;-3.132416010E0;-1.668109131E1;4.597143173E0
2.487006650E1;2.108327866E0;-1.913373184E1;5.019373894E0
2.488990050E1;1.698270416E1;-2.896778488E1;1.214309216E0
2.490999250E1;2.271820450E1;-2.171868134E1;-2.432380295E1
2.492983950E1;1.005267715E1;-1.171523952E1;-1.006264329E0
2.494029350E1;1.089944649E1;-1.542581558E0;-3.977619886E0
2.495997250E1;9.895449638E0;5.431263924E0;-1.921341324E1
2.497981150E1;7.389393806E0;8.609001160E0;-9.683215141E0
2.499022150E1;6.421733856E0;9.282369614E0;-7.930482864E0
2.501027150E1;6.188590050E0;1.102081490E1;-6.349241257E0
2.502980750E1;8.249022484E0;1.360319710E1;-1.658554268E1
2.504002650E1;6.149958611E0;1.287622738E1;-9.530875206E0
2.506005350E1;4.031301975E0;1.341453362E1;-3.466773748E0
2.507980350E1;4.020531654E0;9.171522141E0;-1.689426899E-1
2.509004450E1;3.151918173E0;7.794298649E0;-6.273102760E-2
2.510989850E1;-9.289286137E-1;2.963509083E0;-6.887183189E0
2.512994850E1;1.743350029E0;2.002502918E0;5.216718197E0
2.513997950E1;2.777362347E0;-5.244431019E0;2.877126455E0
2.515000250E1;4.449087620E0;-1.821745682E1;-1.383090496E0
2.517014150E1;2.114402771E0;-3.200304031E1;2.883466482E0
2.519001350E1;-8.645013809E0;-3.247603226E1;3.949138165E0
2.521053650E1;-4.757284164E0;-2.689484406E1;8.932194710E-1
2.522989150E1;7.521153927E0;-1.244083023E1;5.687970638E0
2.524128550E1;7.948504925E0;-8.928682327E0;8.910811424E0
2.525992150E1;4.258312225E0;-5.005054474E0;1.245870781E1
2.527986050E1;8.208539486E-1;-2.650109768E0;1.135834122E1
2.529005550E1;1.486121893E0;-1.475287914E0;1.079574966E1
2.530014250E1;2.485497236E0;5.401463509E-1;1.174710846E1
2.532209150E1;5.326626778E0;7.546282291E0;1.714613533E1
2.534070750E1;5.263550758E0;1.457993698E1;1.382432938E1
2.536026950E1;4.961501122E0;1.784691429E1;1.182859802E1
2.538014150E1;3.702422142E0;1.474617195E1;1.230292320E1
2.540015650E1;2.011046410E0;1.042938614E1;1.021917725E1
2.541998000E1;1.778719664E0;6.456555843E0;5.546794415E0
2.544111050E1;-3.181921244E0;-8.587626457E0;-3.398152542E1
2.545998750E1;-4.323005676E-1;-5.428716183E0;-3.444978333E1
2.548007450E1;2.689815521E0;2.907226562E0;3.820514679E1
2.549124150E1;8.230064392E0;5.277040482E0;4.467356491E1
2.551027450E1;-4.089069366E-1;-8.514686584E0;3.264222717E1
2.552988450E1;-4.660816669E0;-1.700088692E1;2.443815994E1
2.554010250E1;-4.915899277E0;-1.660799026E1;1.532490063E1
2.556072650E1;-3.135353804E0;-1.869197083E1;8.531307220E0
2.558037850E1;1.002769947E0;-1.786466599E1;7.142157555E0
2.559984450E1;6.291471958E0;-2.195244980E1;1.624865723E1
2.560998550E1;1.635866547E1;-2.686942291E1;4.655246258E0
2.562990750E1;2.328339767E1;-2.064273453E1;-2.900072098E1
2.564991850E1;8.907055855E0;-1.414239788E1;5.266416073E0
2.566014650E1;9.809865952E0;1.738080978E-1;-2.300492287E1
2.567980650E1;7.110193729E0;4.165564537E0;-1.726837730E1
2.569021250E1;5.101171494E0;5.893136978E0;-1.017573547E1
2.570990050E1;-2.753942013E-1;8.992610931E0;-4.177964211E0
2.573005950E1;4.148788452E0;1.179530144E1;-2.068478584E0
2.574998650E1;6.736564636E0;1.215266800E1;-7.709012032E0
2.576009550E1;7.546847820E0;1.259297562E1;-1.019861031E1
2.578007450E1;3.978367329E0;1.030133820E1;1.831123471E0
2.579028050E1;3.499586582E0;1.007499313E1;2.950461388E0
2.581000450E1;1.714982271E0;9.842944145E0;-2.036137581E0
2.582991450E1;9.387601614E-1;5.305006027E0;-7.932779312E0
2.584997350E1;3.024785042E0;2.531795025E0;5.027974129E0
2.586023950E1;4.636714458E0;-2.450078964E0;4.046281815E0
2.587998350E1;7.241077423E0;-2.870152092E1;3.387174845E0
2.590019750E1;-1.692499399E0;-3.267868042E1;2.019021511E0
2.591979950E1;-7.203318596E0;-3.227199173E1;-1.551747799E0
2.593002450E1;-1.697278738E0;-2.345218849E1;5.078516006E-1
2.595000550E1;7.126396656E0;-1.191119862E1;6.294886589E0
2.596996050E1;6.083442688E0;-7.066568375E0;1.163621712E1
2.598988150E1;2.042091370E0;-5.563005447E0;1.163951015E1
2.599988750E1;4.325699806E-1;-4.469917297E0;9.802783966E0
2.600995150E1;-6.910218000E-1;-3.234458447E0;9.249953270E0
2.602995450E1;-5.898904800E-2;1.055510759E0;1.138577843E1
2.604040950E1;3.449037552E0;7.765646935E0;1.600843430E1
2.606085250E1;4.190790176E0;1.353786945E1;1.447008896E1
2.608011950E1;3.789221525E0;1.585534954E1;1.138918400E1
2.609989750E1;3.235999823E0;1.454294395E1;1.058669376E1
2.611025050E1;1.911849380E0;1.220594788E1;9.693652153E0
2.613006750E1;-1.206455231E-1;7.225869656E0;9.216566086E0
2.614049550E1;9.497621059E-1;6.421066761E0;7.540715218E0
2.616010050E1;-7.797043324E-1;8.897871971E-1;-1.256922245E1
2.617987250E1;3.833558559E-1;-9.158918381E0;-3.250220490E1
2.619980050E1;6.359341145E-1;1.862478256E0;3.580774689E1
2.621008950E1;4.721596718E0;2.488111496E0;4.303182220E1
2.623006650E1;-1.153914928E0;-5.619225025E0;3.070161247E1
2.624993050E1;-7.771400452E0;-1.678921700E1;1.663223839E1
2.625999550E1;-9.547624588E0;-1.928017807E1;9.760005951E0
2.627983650E1;-5.263340950E0;-2.157313919E1;5.462724686E0
2.629030850E1;-1.875587702E0;-1.992251015E1;5.502100468E0
2.630999150E1;5.216008186E0;-2.020678520E1;1.315837479E1
2.633030450E1;2.698107147E1;-2.274423218E1;-3.268830109E1
2.635015350E1;1.308978462E1;-2.017630386E1;-2.464595318E0
2.636034550E1;1.052221298E1;-1.566699314E1;4.214762211E0
2.638025750E1;8.730390549E0;-2.656333923E0;-1.219266796E1
2.639496150E1;7.880971432E0;3.343047619E0;-1.764344597E1
2.641000850E1;6.047738552E0;5.256936073E0;-1.009812069E1
2.643003650E1;8.479430676E-1;8.347003937E0;-1.804620743E0
2.644007050E1;5.905515671E0;1.320175838E1;-1.337940598E1
2.645045850E1;5.905515671E0;1.320175838E1;-1.337940598E1
2.646989750E1;5.706417561E0;1.205131531E1;-8.510893822E0
2.648992350E1;3.535307646E0;1.134420967E1;-2.517880678E0
2.649994150E1;1.800703049E0;1.108402443E1;-1.911012411E0
2.650999350E1;4.917821884E-1;9.451520920E0;-8.511829376E-2
2.652016550E1;4.741820693E-1;8.227726936E0;5.677783489E-1
2.653026550E1;-4.974970818E-1;6.806877136E0;-3.248865128E0
2.654070650E1;-1.450005770E0;4.501637936E0;-1.119160652E1
2.656023050E1;1.598787785E0;2.258044243E0;2.395052671E0
2.658019250E1;5.676378250E0;-9.601401329E0;2.159824848E0
2.659999150E1;6.815609932E0;-3.002051353E1;7.845839500E0
2.661989050E1;9.587844610E-1;-3.281185913E1;5.891638756E0
2.663990650E1;-1.936154723E0;-2.227902985E1;7.741322517E-1
2.665029550E1;2.444144726E0;-1.602618790E1;4.398145676E0
2.666993250E1;8.642144203E0;-9.541421890E0;9.593780518E0
2.668999650E1;5.607663155E0;-6.855232239E0;1.402873039E1
2.670994150E1;2.291683197E0;-4.830932617E0;1.170054150E1
2.673013550E1;2.126199722E0;-1.528072834E0;1.014176178E1
2.674041750E1;2.813055038E0;1.323193312E0;1.140174007E1
2.676294650E1;5.379456520E0;1.005980682E1;1.800022888E1
2.678007350E1;4.525365829E0;1.552007294E1;1.603198814E1
2.679981850E1;3.805643082E0;1.819087791E1;1.554925156E1
2.681078950E1;3.224179983E0;1.717900658E1;1.154984570E1
2.682994550E1;1.025796175E0;1.168359661E1;8.796455383E0
2.684990950E1;-8.048119545E-1;7.307197571E0;5.724736691E0
2.686011050E1;-1.636528015E0;4.535158157E0;-2.010779381E0
2.687989950E1;-7.052176476E0;-1.292409611E1;-3.494081879E1
2.689028750E1;-6.340255737E0;-1.189022350E1;-3.455477524E1
2.691001150E1;-1.053944349E0;9.643292427E-1;2.394131660E1
2.693004450E1;8.844411850E0;3.600081444E0;4.395963669E1
2.694024650E1;6.936319351E0;-4.555301189E0;3.771376419E1
2.695988650E1;1.503455997E0;-1.323113060E1;2.385993195E1
2.696992050E1;-1.227481365E0;-1.664741707E1;1.794565964E1
2.698006350E1;-2.974652290E0;-1.911353683E1;1.213801575E1
2.699992550E1;2.327783108E-1;-2.269353104E1;7.083346367E0
2.701036050E1;2.701579094E0;-2.279459190E1;6.334426880E0
2.702993850E1;2.295730400E1;-2.921156311E1;7.601680756E0
2.704096950E1;3.399744415E1;-2.725099945E1;-3.077124405E1
2.706071450E1;1.966907692E1;-1.608931732E1;-1.402466202E1
2.707993650E1;1.347899437E1;-1.836003304E0;-5.640043736E0
2.709040650E1;1.150569630E1;1.034964561E0;-1.605074883E1
2.711001150E1;7.530803204E0;6.677508831E0;-1.377613926E1
2.712014750E1;6.836051941E0;9.160644531E0;-7.430679798E0
2.713995050E1;5.700429916E0;1.065358162E1;-4.592101574E0
2.715016250E1;5.437547684E0;1.102874565E1;-4.497291088E0
2.716980250E1;6.763016701E0;1.262763786E1;-1.260545540E1
2.718006850E1;6.655176163E0;1.284368515E1;-1.312122917E1
2.719992950E1;5.949631929E-1;1.096398258E1;-6.132182121E0
2.720998250E1;2.800991535E-1;1.257330513E1;-4.838183403E0
2.722013150E1;-2.324240208E-1;1.066642189E1;2.105985641E0
2.723014750E1;-5.843034983E-1;7.047452927E0;-3.405897856E0
2.725011550E1;-6.353285313E-1;2.978691101E0;-6.402821541E0
2.726988350E1;1.955309987E0;1.801013947E0;3.712287426E0
2.729035850E1;5.751150131E0;-1.088820457E1;2.838014126E0
2.731020550E1;8.600288391E0;-3.012794685E1;8.158568382E0
2.732996450E1;1.665238380E0;-3.269304657E1;4.528412819E-1
2.734007250E1;-3.320291996E0;-3.292845917E1;-5.539844513E0
2.735993550E1;4.654988289E0;-2.219330978E1;1.161948681E0
2.736995850E1;7.599791527E0;-1.610729027E1;6.660736561E0
2.739010650E1;7.052080154E0;-8.753978729E0;1.369718361E1
2.740996150E1;2.615368366E0;-4.863715649E0;1.326775455E1
2.742323450E1;6.082564592E-1;-1.728274345E0;1.057385826E1
2.743988950E1;1.821899652E0;1.725573063E0;1.258559418E1
2.745100750E1;2.545643806E0;4.045815468E0;1.376764107E1
2.746108450E1;2.923730612E0;6.767699242E0;1.452152824E1
2.748018350E1;4.837872505E0;1.253562832E1;1.412429619E1
2.749984450E1;3.446523905E0;1.754559708E1;9.216464043E0
2.751008950E1;2.355782509E0;1.825318336E1;8.813007355E0
2.752026150E1;1.014341354E0;1.599196243E1;1.300397110E1
2.754007050E1;-2.299675941E0;8.143824577E0;1.416553497E1
2.755011650E1;-2.155699968E0;5.690519810E0;1.266560745E1
2.756994350E1;1.343035936E0;4.463599205E0;5.610599995E0
2.759023950E1;2.125383377E0;-2.515097141E0;-1.711771011E1
2.760998050E1;5.920401096E0;-8.487982750E0;-2.913340759E1
2.762995550E1;7.349645138E0;3.329561710E0;4.167553711E1
2.764052050E1;2.384872198E0;1.862924099E0;3.163785934E1
2.765984950E1;-2.815842152E0;-8.038217545E0;2.660084343E1
2.766986850E1;-7.985170364E0;-1.571275711E1;2.341327858E1
2.768982950E1;-1.106256866E1;-2.168622971E1;1.021694374E1
2.770990050E1;-4.869450569E0;-2.123308945E1;2.475867748E0
2.772992750E1;2.422842503E0;-1.939923859E1;2.620505095E0
2.774002450E1;8.624081612E0;-1.969357681E1;2.576596975E0
2.776039750E1;2.952964211E1;-1.928412819E1;-2.344020271E1
2.777992650E1;1.223166943E1;-2.062947655E1;4.951256752E0
2.779028350E1;9.891961098E0;-1.662517357E1;8.574594498E0
2.780164350E1;1.285254478E1;-1.255886078E0;-1.707665253E1
2.781202850E1;1.225040245E1;4.122687817E0;-2.845389938E1
2.782664700E1;8.377664566E0;7.300223351E0;-1.310092735E1
2.784002250E1;4.921634674E0;7.955037594E0;-9.066697121E0
2.785996150E1;3.946663618E0;9.562568665E0;-4.409366131E0
2.787985350E1;6.942400932E0;1.185954857E1;-9.602024078E0
2.788992950E1;8.179229736E0;1.364951324E1;-1.633478165E1
2.791014350E1;2.949671268E0;1.053496933E1;1.814292669E-1
2.792996150E1;2.465741634E0;1.102645779E1;2.521620512E0
2.794993850E1;3.082417727E0;8.566216469E0;-1.081259012E0
2.796997750E1;2.159230232E0;3.402951717E0;-6.802175999E0
2.798011150E1;2.988294125E0;2.963831425E0;3.198913097E0
2.799986950E1;3.567647457E0;-3.711190224E-1;4.289690018E0
2.801017450E1;4.964012146E0;-2.139122581E1;4.417009354E-1
2.803001150E1;-1.003448725E0;-3.256678772E1;5.332987309E0
2.804993850E1;-3.882033825E0;-3.312371063E1;1.920890331E0
2.807039250E1;6.428331375E0;-2.291461372E1;9.318685532E-2
2.809014850E1;9.281320572E0;-1.446009445E1;8.354135513E0
2.810981850E1;4.511345863E0;-9.229169846E0;1.283837128E1
2.811989550E1;3.124168396E0;-7.085103035E0;1.212246227E1
2.813010150E1;1.937436581E0;-5.153263569E0;1.080487728E1
2.814994550E1;3.567652702E-1;-1.784780502E0;1.073458290E1
2.816013350E1;6.738519669E-1;2.030267715E-1;1.181382370E1
2.817990050E1;2.084549427E0;5.225599289E0;1.435654068E1
2.818994050E1;4.199160099E0;9.559286118E0;1.479703331E1
2.820001850E1;6.074957848E0;1.398803997E1;1.449530411E1
2.822029850E1;4.571016312E0;1.636906433E1;8.982536316E0
2.824020050E1;3.445543528E0;1.309138680E1;1.113230705E1
2.825992950E1;1.440117359E-1;7.092247963E0;9.744935036E0
2.827983150E1;2.142378330E0;5.087675571E0;6.720174313E0
2.829015750E1;2.828370333E0;4.727931023E0;3.902054787E0
2.831008250E1;3.189900398E0;-1.575118542E1;-3.336306763E1
2.832991550E1;5.826125145E0;2.311576843E0;4.785778999E0
2.834048450E1;6.747345448E0;2.636670828E0;4.164776611E1
2.835989150E1;-2.568720579E0;-1.206073284E0;2.356597519E1
2.837991650E1;-8.329366684E0;-1.336112785E1;2.906684494E1
2.839140550E1;-1.286079311E1;-1.841440773E1;1.640534019E1
2.841052150E1;-9.638954163E0;-2.005450249E1;6.567302704E0
2.843367950E1;-2.924628735E0;-1.768212700E1;3.873191595E0
2.844990550E1;3.312342644E0;-2.005195808E1;4.202266693E0
2.846995650E1;2.595982933E1;-1.970050621E1;-2.980423546E1
2.848997850E1;1.062653255E1;-1.920513535E1;1.044481850E1
2.850000650E1;7.748680592E0;-1.475505733E1;1.041823292E1
2.851002950E1;6.737772942E0;-9.062642097E0;2.438950539E0
2.852017850E1;7.037744522E0;-2.127945900E0;-1.574377728E1
2.853999150E1;9.051924706E0;7.356663227E0;-2.104855919E1
2.854999650E1;6.957235336E0;8.851820946E0;-1.202351093E1
2.857015850E1;3.655914545E0;1.061884689E1;-5.538165569E0
2.858996750E1;5.719963074E0;1.164108562E1;-1.294335556E1
2.860000050E1;7.012976646E0;1.338130379E1;-1.345896244E1
2.861007850E1;4.359882355E0;1.203399563E1;-6.182532310E0
2.862989550E1;1.198085546E0;1.070711899E1;1.879531860E0
2.863997550E1;2.495060205E0;1.071178818E1;4.277496338E0
2.865009950E1;3.576245785E0;9.895083427E0;4.147134304E0
2.866014550E1;2.891895771E0;8.186810493E0;-1.090447903E-1
2.867995750E1;2.183752060E0;3.666620731E0;-6.433464050E0
2.869020950E1;2.900161982E0;3.495944023E0;3.693555355E0
2.870992450E1;4.121632099E0;-8.732752800E-1;4.367333412E0
2.871995150E1;6.113169670E0;-1.402228737E1;-2.360153198E-2
2.872998350E1;7.792775154E0;-2.449038887E1;1.255453110E0
2.874007550E1;6.255517960E0;-3.184674263E1;3.262112856E0
2.876012350E1;-3.157774448E0;-3.268494415E1;4.240951538E0
2.877041550E1;-6.326521873E0;-3.289012527E1;2.430181980E0
2.879027850E1;7.276085377E0;-1.404972649E1;4.011658192E0
2.880996750E1;6.431535721E0;-7.934204578E0;1.057117844E1
2.882011850E1;3.342159748E0;-6.761694908E0;1.237901783E1
2.884006650E1;-1.931331158E-1;-4.479427814E0;1.116549206E1
2.886000750E1;-6.565471888E-1;-1.260195255E0;1.145904732E1
2.887991250E1;2.161372900E0;5.286092281E0;1.704878807E1
2.889013950E1;3.519212246E0;9.752017975E0;1.755461884E1
2.891001350E1;4.874607086E0;1.586016083E1;1.433318710E1
2.893003250E1;4.203667641E0;1.771639633E1;1.323952579E1
2.894992550E1;3.224783421E0;1.469085884E1;1.071891785E1
2.895995950E1;2.160310507E0;1.267963791E1;1.068618488E1
2.898000050E1;6.152527332E-1;9.086430550E0;8.757343292E0
2.899982650E1;-4.021570206E0;-4.382209778E0;-2.582821083E1
2.900997650E1;-3.659751415E0;-1.075683784E1;-3.565944290E1
2.903007050E1;4.444091320E-1;1.095906258E0;-3.239691925E1
2.904991450E1;7.209902763E0;3.954138279E0;4.353715134E1
2.905999350E1;3.656885147E0;-2.093001366E0;4.236367035E1
2.907995950E1;2.485380173E0;-1.267476463E1;3.423885345E1
2.909981450E1;-3.319518089E0;-1.482879353E1;1.579408455E1
2.911000450E1;-5.359949112E0;-1.637496185E1;1.044919586E1
2.912060450E1;-5.325233459E0;-1.801618576E1;7.201460838E0
2.914017550E1;-3.478496075E-1;-1.887821198E1;5.024807930E0
2.915993650E1;5.557337761E0;-2.339526367E1;1.275112915E1
2.917008350E1;1.578157425E1;-2.999253082E1;1.020781136E1
2.919010750E1;1.770784378E1;-2.044491005E1;-1.016306496E1
2.921031750E1;1.206883430E1;-6.200664520E0;5.200096130E0
2.922988050E1;1.081427288E1;4.525358677E0;-2.530083656E1
2.925002450E1;9.651984215E0;8.578089714E0;-1.248782539E1
2.926129550E1;7.589385986E0;9.024641037E0;-5.343650818E0
2.928032350E1;6.085540771E0;9.441533089E0;-3.369036913E0
2.929986650E1;8.658765793E0;1.336133766E1;-2.156704140E1
2.931010250E1;7.645360470E0;1.344583035E1;-2.102447701E1
2.933008450E1;1.248557925E0;1.096882820E1;-3.028981924E0
2.934020950E1;1.349086881E0;1.249484062E1;1.744663715E-1
2.936024150E1;2.006946325E0;8.075663567E0;3.397942066E0
2.937984950E1;2.106022120E0;4.177441597E0;-7.524831772E0
2.938993950E1;3.798855782E0;6.017732620E-1;-2.281604767E0
2.941001350E1;6.918962479E0;-1.853261185E1;-4.914007187E0
2.942022950E1;4.709867477E0;-2.921182442E1;-2.908793926E0
2.944004950E1;-3.504912615E0;-3.179199219E1;1.201952648E1
2.946181650E1;-2.357438087E0;-3.037755775E1;3.832660913E0
2.947995550E1;5.875919819E0;-1.956098175E1;1.450304985E-1
2.948997150E1;9.062581062E0;-1.551292324E1;2.983757019E0
2.950035050E1;1.098190975E1;-1.219382191E1;6.982438087E0
2.951985950E1;8.459533691E0;-7.965335369E0;1.467458725E1
2.953000750E1;5.754126549E0;-6.734274387E0;1.542718887E1
2.954175450E1;2.321571112E0;-3.907541275E0;9.520970345E0
2.956067150E1;2.122824907E0;7.671604156E-1;9.878684998E0
2.957989350E1;5.801542759E0;1.024504662E1;1.594529915E1
2.958989550E1;6.922062874E0;1.426007080E1;1.660677719E1
2.961123150E1;6.557774067E0;1.791925240E1;1.634508133E1
2.962991150E1;4.924118996E0;1.765139389E1;1.469747734E1
2.964246650E1;4.043432236E0;1.581091118E1;1.224100304E1
2.965987850E1;2.137647629E0;1.153127670E1;9.099809647E0
2.967043650E1;3.944928646E-1;9.640840530E0;7.903470993E0
2.969007050E1;-5.570430756E-1;6.355445862E0;3.933565140E0
2.970997250E1;-8.282961845E0;-1.238702106E1;-3.584328079E1
2.972989250E1;-5.131537437E0;-4.143440247E0;-3.222818375E1
2.973989850E1;-1.541087627E-1;5.897669792E0;-3.336930084E1
2.976006250E1;1.292956734E1;1.216944408E1;4.270100403E1
2.977981850E1;9.805597305E0;-4.928576469E0;3.090823364E1
2.978991850E1;7.135428429E0;-9.216092110E0;2.515693092E1
2.981033550E1;-7.411108017E-1;-2.087832260E1;1.296903419E1
2.982988550E1;8.549337387E-1;-2.627904320E1;6.458099365E0
2.983996950E1;2.458256006E0;-2.689649582E1;3.774709702E0
2.985991950E1;1.057839394E1;-2.936108971E1;5.137143612E0
2.987984650E1;3.081373024E1;-2.479326630E1;-3.341840363E1
2.989013050E1;2.221288681E1;-2.128533363E1;-1.295310402E1
2.991000750E1;1.322800636E1;-8.987479210E0;6.554088116E0
2.992004050E1;1.440218163E1;-3.467813492E0;-8.170874596E0
2.994189550E1;1.300977325E1;4.705805779E0;-2.209862900E1
2.996088750E1;5.701223850E0;7.878913879E0;-6.795315266E0
2.997990950E1;4.885135651E0;1.033614731E1;-7.814572334E0
2.999225650E1;6.541606903E0;1.121277428E1;-9.827535629E0
3.000997950E1;8.070999146E0;1.281512260E1;-2.038714600E1
3.002092250E1;4.894355297E0;1.143466473E1;-1.129571533E1
3.004259850E1;2.116400480E0;9.766983032E0;-8.872515559E-1
3.005996250E1;5.333193779E0;8.859581947E0;3.514175415E0
3.007988050E1;4.259136200E0;6.417905331E0;-5.308790207E0
3.008994650E1;4.211832523E0;3.551344872E0;-1.630311394E1
3.011012250E1;4.568569183E0;2.300539494E0;4.576074123E0
3.012998550E1;7.982759476E0;-1.225863266E1;-2.511668205E-1
3.014010150E1;9.562220573E0;-2.175880814E1;6.862683296E-1
3.015028950E1;8.201241493E0;-2.986378860E1;4.058761597E0
3.017008650E1;-3.130167723E0;-3.190819550E1;-5.693264008E-1
3.019006550E1;3.143670082E0;-1.955027008E1;2.122041225E0
3.021005050E1;1.052912998E1;-9.561502457E0;6.323470592E0
3.023004450E1;4.826372147E0;-6.665342331E0;1.219037819E1
3.024142050E1;2.359991074E0;-5.848655701E0;1.205593491E1
3.025986450E1;5.291810036E-1;-3.262835979E0;9.374670029E0
3.027003950E1;7.818498611E-1;-1.745278358E0;9.400165558E0
3.029018650E1;3.330396652E0;4.042972088E0;1.158631992E1
3.030996250E1;5.776498795E0;1.225868797E1;1.668682861E1
3.032996850E1;4.438730717E0;1.717672157E1;1.446818352E1
3.034009050E1;3.314179659E0;1.834719086E1;1.220919991E1
3.035013550E1;3.130488873E0;1.840234566E1;1.146061707E1
3.036980850E1;1.115861893E0;1.259431267E1;8.360733986E0
3.037984850E1;-6.911082268E-1;9.042758942E0;7.402611732E0
3.038992250E1;-8.305921555E-1;6.571900845E0;5.652719021E0
3.041005150E1;2.257947922E-1;1.531446457E0;-1.047110462E1
3.043000050E1;3.017442942E0;-1.355042171E1;-3.636029053E1
3.044133650E1;4.957881451E0;3.590726852E-1;-3.380261612E1
3.046081450E1;1.042242336E1;1.078787899E1;4.193380737E1
3.047137150E1;1.201398087E1;9.158269882E0;4.148039246E1
3.049094850E1;3.040257931E0;-5.759654999E0;3.015155792E1
3.051000150E1;-6.252412796E0;-1.912216949E1;2.116547012E1
3.052995350E1;-8.363835335E0;-2.436643982E1;7.628364563E0
3.054989750E1;-3.121250868E0;-2.298803520E1;2.365116596E0
3.056997950E1;9.101979256E0;-2.621392059E1;-1.796145678E0
3.059161850E1;3.178984451E1;-1.946937561E1;-2.839517593E1
3.061017950E1;1.369440269E1;-1.750045395E1;8.907260895E0
3.062979750E1;1.438752651E1;-3.695752144E0;-2.328465223E0
3.063984550E1;1.312333775E1;1.830790043E0;-2.246305084E1
3.064997050E1;1.170211601E1;6.653710365E0;-3.101542664E1
3.067003650E1;8.621966362E0;1.022929192E1;-1.246417904E1
3.069048350E1;7.297606468E0;9.519643784E0;-3.172794819E0
3.070990950E1;6.567874908E0;1.001103973E1;-4.581587315E0
3.073006950E1;5.899213791E0;1.226567745E1;-1.161220264E1
3.075018950E1;5.138760567E0;1.240872097E1;3.339040279E-1
3.076993950E1;2.761681795E0;6.254099369E0;-6.071591377E0
3.078045150E1;2.938447475E0;4.309252262E0;-9.087240219E0
3.079993250E1;2.702513456E0;1.859370232E0;-1.081328392E0
3.081983650E1;3.877015114E0;-3.808417320E-1;6.274722099E0
3.083030750E1;5.278150558E0;-5.918618679E0;5.708797932E0
3.085009850E1;1.088088131E1;-2.373565102E1;5.267647266E0
3.086994150E1;7.946671486E0;-3.239627838E1;2.440519094E0
3.089010550E1;-2.064968824E0;-3.287114334E1;-2.975408554E0
3.090993750E1;3.311480999E0;-2.084601593E1;3.921407938E0
3.092993950E1;8.165540695E0;-1.117992973E1;1.036445332E1
3.095027250E1;-2.199320793E-1;-5.950695515E0;1.336821175E1
3.096995950E1;-8.740396500E-1;-2.336330891E0;1.167587757E1
3.098994850E1;2.865920782E0;2.990545988E0;1.231419182E1
3.101050050E1;5.713057995E0;9.786384583E0;1.634986877E1
3.102188950E1;6.136534691E0;1.351156712E1;1.564142036E1
3.103993850E1;4.453824043E0;1.717705536E1;9.096606255E0
3.105045450E1;3.524593353E0;1.860823059E1;7.250243187E0
3.106982350E1;1.597160101E0;1.569280815E1;8.634889603E0
3.107983950E1;2.828700542E-1;1.294348335E1;9.667043686E0
3.109014850E1;-7.421984673E-1;9.646160126E0;1.012249088E1
3.110991550E1;4.746284485E-1;6.260670185E0;4.420341492E0
3.112998950E1;2.154001951E0;-6.925959587E-1;-1.621608734E1
3.114000850E1;1.139441252E0;-1.247374630E1;-2.359046173E1
3.115003150E1;3.089066982E0;-3.094811916E0;-1.827013779E1
3.116987150E1;6.595167637E0;7.351230621E0;2.651153946E1
3.118999350E1;4.254547596E0;4.860189438E0;3.371367264E1
3.121043950E1;-1.787339449E0;-4.235975266E0;2.749624825E1
3.123006950E1;-8.809160233E0;-1.839035416E1;2.002622223E1
3.125016250E1;-8.394510269E0;-2.440657806E1;8.652730942E0
3.126981550E1;-2.877731085E0;-2.226260757E1;3.830539703E0
3.128002350E1;2.170997143E0;-2.081888771E1;-3.829638481E0
3.129063750E1;1.058096695E1;-1.920367813E1;-1.747715187E1
3.131016850E1;1.968178177E1;-1.932254410E1;-8.511094093E0
3.132990250E1;1.359548378E1;-1.928524017E1;7.051156998E0
3.135000350E1;1.289489079E1;-2.004555702E0;-1.310745239E1
3.136996250E1;1.088783836E1;4.173704624E0;-2.091414642E1
3.138992850E1;6.415618420E0;6.610668659E0;-1.298563671E1
3.141054250E1;3.954880714E0;9.172636032E0;-6.792205334E0
3.142310450E1;4.448290348E0;9.869219780E0;-4.442421436E0
3.144013450E1;6.855196953E0;1.266775131E1;-1.828130150E1
3.145995350E1;2.118613243E0;1.028341103E1;-9.709384918E0
3.147989050E1;5.037438869E-1;9.315801620E0;2.497366905E0
3.149264350E1;3.090982199E0;8.026880264E0;7.142752647E0
3.151000650E1;2.930488586E0;7.216071129E0;5.370489120E0
3.152992850E1;5.722615719E-1;1.115092754E0;-2.357901573E0
3.154989250E1;7.668560505E0;-1.418251324E1;-1.671804428E0
3.155992950E1;5.477621078E0;-2.747883606E1;-3.174496174E0
3.157981350E1;-5.761466980E0;-3.186188126E1;8.814132690E0
3.159152350E1;-6.000624657E0;-3.214276123E1;6.602961063E0
3.160980250E1;1.881806374E0;-2.649203682E1;-1.412978649E0
3.161983250E1;5.110899925E0;-1.968581390E1;1.978142262E0
3.162994450E1;7.458337307E0;-1.449917984E1;5.345457077E0
3.164985750E1;8.720901489E0;-7.912947655E0;1.329883194E1
3.166006950E1;7.246776581E0;-6.100722790E0;1.524105072E1
3.167983850E1;3.802411556E0;-3.700522423E0;1.289167404E1
3.168991750E1;2.911496878E0;-1.889531612E0;1.236160278E1
3.171066050E1;4.997323990E0;4.377097607E0;1.360235786E1
3.173001950E1;7.957432270E0;1.559919548E1;1.589673424E1
3.174099050E1;7.249408722E0;1.797297478E1;1.495848560E1
3.176009150E1;5.901909351E0;1.906027222E1;1.442312050E1
3.177989750E1;3.081833839E0;1.560899258E1;1.015642071E1
3.179006750E1;1.846931458E0;1.311368752E1;8.577125549E0
3.181034350E1;1.419343472E0;9.885194778E0;5.960467339E0
3.182999650E1;3.977787495E-1;5.251749992E0;-3.351360321E0
3.184986450E1;-6.391074181E0;-1.308061981E1;-2.726389885E1
3.186979150E1;-9.274830818E-1;5.645389557E-1;-3.588526917E1
3.187985750E1;2.131363869E0;3.971634865E0;-1.091163540E1
3.188995150E1;8.868095398E0;6.830684662E0;4.213524246E1
3.190015950E1;1.293515873E1;7.237993240E0;4.217400360E1
3.191994950E1;9.143764496E0;-8.513637543E0;3.652590179E1
3.194049550E1;-1.084108353E-1;-2.073596191E1;1.278377151E1
3.195984350E1;1.095463991E0;-2.513345337E1;8.069262505E0
3.196989350E1;2.786075592E0;-2.460872269E1;7.252752304E0
3.198995350E1;7.038969040E0;-2.423550606E1;4.861996651E0
3.200006150E1;1.566424370E1;-2.873145294E1;1.594229221E1
3.201006150E1;3.338531876E1;-2.888048553E1;-3.155018425E1
3.202997150E1;2.101675224E1;-1.876958656E1;-1.979788589E1
3.204010050E1;1.254903603E1;-1.354119015E1;-2.752493620E0
3.205989350E1;1.123489571E1;-7.515802383E-1;-1.264311981E1
3.206996750E1;1.169552422E1;3.821156979E0;-2.164091301E1
3.208000850E1;1.114849281E1;6.405238152E0;-1.641814232E1
3.209061750E1;9.833755493E0;7.492476463E0;-7.931843281E0
3.211002950E1;4.901944160E0;9.131256104E0;-5.326653957E0
3.213008850E1;7.231233597E0;1.174674892E1;-1.696333504E1
3.214987950E1;2.867878437E0;1.092275238E1;-1.636576653E1
3.216021850E1;9.261338711E-1;9.314760208E0;-3.844733953E0
3.217990950E1;2.161692142E0;8.803892136E0;5.927185059E0
3.219022850E1;3.650851727E0;7.877289772E0;7.308124542E0
3.220023150E1;4.369488239E0;7.440035820E0;5.216932297E0
3.222040050E1;1.676877737E0;2.536489010E0;-2.463544083E1
3.224001250E1;5.645628929E0;1.036530495E0;5.610398293E0
3.225998950E1;1.049471664E1;-6.570424557E0;4.680992126E0
3.227980750E1;1.020178986E1;-2.964889526E1;6.008582115E-1
3.229054350E1;4.680441856E0;-3.169788742E1;1.301151514E0
3.230987650E1;-6.672605991E0;-3.206787491E1;-2.471261024E-1
3.231997650E1;8.148758411E-1;-1.992789459E1;4.240480900E0
3.233012250E1;6.009140015E0;-1.351679611E1;7.637530804E0
3.234988550E1;1.027352333E1;-6.575097561E0;8.112510681E0
3.236003150E1;9.919936180E0;-4.839900494E0;1.023526669E1
3.237985350E1;5.283326626E0;-3.522500515E0;1.117429543E1
3.238996750E1;2.613632441E0;-2.632814407E0;9.225195885E0
3.240002150E1;1.592502356E0;-7.095155716E-1;8.676161766E0
3.241062450E1;2.139863491E0;1.943924427E0;1.008560562E1
3.242358850E1;3.473306656E0;5.352156162E0;1.128147507E1
3.243995250E1;5.439660072E0;1.244926643E1;1.395665550E1
3.245025350E1;5.432814598E0;1.452924156E1;1.229862595E1
3.246989750E1;4.087313652E0;1.809008598E1;7.398845673E0
3.248017950E1;3.861973286E0;1.799878311E1;8.155489922E0
3.249310250E1;3.602970839E0;1.627267647E1;1.104169369E1
3.251009550E1;1.214737892E0;9.848568916E0;1.084128189E1
3.252991450E1;1.807364464E0;7.445333481E0;3.392238379E0
3.255049650E1;-8.951003551E-1;-2.155005455E0;-2.407402611E1
3.256991750E1;-9.669909477E-1;-9.618865013E0;-2.842564583E1
3.258993250E1;3.310167789E0;4.797105789E0;-1.639213753E1
3.260992650E1;1.053570747E1;3.798361540E0;4.355715942E1
3.262983150E1;5.341231346E0;-8.237164497E0;3.378126144E1
3.263992250E1;1.995266676E0;-1.213105011E1;2.648424339E1
3.265018950E1;-3.935301781E0;-1.755463028E1;1.936116791E1
3.266998250E1;-6.077961445E0;-2.101979828E1;9.857488632E0
3.268996050E1;-5.845139027E-1;-2.063475800E1;5.884761810E0
3.269998650E1;2.416380882E0;-1.984612274E1;5.055868149E0
3.271161750E1;1.055391788E1;-2.545102692E1;1.087825966E1
3.273010150E1;3.134320068E1;-2.072905350E1;-3.446984482E1
3.275015050E1;1.300768280E1;-1.550189304E1;6.950068474E0
3.276978350E1;1.309948158E1;-2.256361961E0;-3.475666761E0
3.278008250E1;9.410305023E0;2.571300030E0;-2.791078949E1
3.279991650E1;7.686079979E0;7.644380569E0;-1.699347305E1
3.281008950E1;5.843456268E0;8.496516228E0;-8.467172623E0
3.282997850E1;3.157255650E0;9.801165581E0;-3.185534000E0
3.284021750E1;4.238464355E0;9.608351707E0;-2.423680305E0
3.286016950E1;6.834498405E0;1.287206650E1;-2.042704010E1
3.288010850E1;2.468841314E0;1.059036827E1;-6.571446419E0
3.289987150E1;-3.205857277E-1;9.306275368E0;5.576416254E-1
3.290995150E1;1.970393419E0;8.141222000E0;4.737084389E0
3.292989150E1;2.157950401E-1;5.939718246E0;-5.125785828E0
3.294989650E1;1.725611448E0;1.267363071E0;-3.046263695E0
