"Time (s)";"Linear Acceleration x (m/s^2)";"Linear Acceleration y (m/s^2)";"Linear Acceleration z (m/s^2)"
0.000000000E0;-1.542904824E-1;-9.560227394E-2;-5.050525665E-1
2.415230700E-2;7.318124175E-3;-1.422891617E-1;-4.200582504E-1
4.116996000E-2;2.081580460E-3;-1.199376583E-1;-3.721151352E-1
5.472628700E-2;-6.362907588E-4;-8.670258522E-2;-2.797574997E-1
6.648195000E-2;-1.138977706E-3;-5.239820480E-2;-1.728076935E-1
7.733828200E-2;-5.104318261E-4;-2.012419701E-2;-6.803131104E-2
8.775744800E-2;3.413157538E-5;5.261182785E-3;1.784801483E-2
9.815703100E-2;-6.160959601E-4;1.889944077E-2;6.401252747E-2
1.081783220E-1;-2.473145723E-3;3.785610199E-2;1.277971268E-1
1.183474680E-1;-4.461228848E-3;4.958605766E-2;1.658020020E-1
1.382478270E-1;-9.802609682E-3;7.970046997E-2;2.589073181E-1
1.583711670E-1;-1.058629155E-2;7.186770439E-2;2.248840332E-1
1.685928900E-1;-6.804913282E-3;5.109143257E-2;1.574611664E-1
1.886276830E-1;-3.696769476E-3;3.315162659E-2;9.987640381E-2
2.085578810E-1;-2.336993814E-3;3.106403351E-2;9.648036957E-2
2.187897470E-1;-1.926138997E-3;3.601551056E-2;1.136264801E-1
2.290041800E-1;-1.063637435E-3;2.889990807E-2;9.140396118E-2
2.390858970E-1;-6.328150630E-4;1.711630821E-2;5.356025696E-2
2.588496840E-1;-1.433014870E-3;2.213907242E-2;7.184886932E-2
2.786658810E-1;-6.307303905E-3;2.284455299E-2;9.411525726E-2
2.890402470E-1;-1.505732536E-3;1.641464233E-2;5.420684814E-2
3.089085220E-1;1.091063023E-4;-9.684562683E-4;-3.105163574E-3
3.192865680E-1;-6.971895695E-3;-3.354787827E-3;-1.986408234E-2
3.391118520E-1;3.654569387E-3;-3.808617592E-2;-1.194229126E-1
3.588639230E-1;2.958714962E-3;-3.761458397E-2;-1.156787872E-1
3.786786910E-1;-2.653449774E-3;4.781985283E-2;1.508865356E-1
3.987798830E-1;-5.803436041E-3;9.073400497E-2;2.922182083E-1
4.095332480E-1;-6.268516183E-3;9.310722351E-2;3.020296097E-1
4.287097720E-1;-6.338834763E-3;8.109688759E-2;2.661094666E-1
4.487674030E-1;-3.810167313E-3;3.844547272E-2;1.239442825E-1
4.587695080E-1;-2.608686686E-3;2.131009102E-2;6.813526154E-2
4.787830870E-1;-1.101493835E-4;1.978874207E-5;1.306533813E-4
4.890223500E-1;1.292228699E-4;-5.147457123E-4;-1.469612122E-3
5.087090480E-1;-3.991425037E-4;5.747795105E-3;1.780509949E-2
5.286244720E-1;1.722604036E-3;-1.170778275E-2;-3.685283661E-2
5.485528280E-1;-8.064210415E-4;7.519245148E-3;2.329730988E-2
5.585977210E-1;-1.050859690E-3;8.935928345E-3;2.801704407E-2
5.687701670E-1;-2.669274807E-3;3.073930740E-2;9.698677063E-2
5.885677520E-1;-1.000821590E-3;2.123093605E-2;6.706809998E-2
5.989341830E-1;-1.588746905E-3;2.907609940E-2;9.283351898E-2
6.186905060E-1;-2.092003822E-3;4.833650589E-2;1.568613052E-1
6.385825870E-1;-1.464173198E-3;2.717876434E-2;8.888626099E-2
6.487241000E-1;-1.034334302E-3;2.188062668E-2;7.100009918E-2
6.685959850E-1;-1.685038209E-3;2.880787849E-2;9.381961823E-2
6.786542990E-1;-2.051979303E-3;3.562378883E-2;1.160745621E-1
6.986210350E-1;-2.144753933E-3;3.851246834E-2;1.239938736E-1
7.186392190E-1;3.752112389E-5;-4.959106445E-5;3.814697266E-5
7.286579160E-1;1.269504428E-3;-1.871728897E-2;-5.931091309E-2
7.387537650E-1;2.278134227E-3;-2.712464333E-2;-8.508300781E-2
7.586504010E-1;2.785176039E-3;-2.410006523E-2;-7.542896271E-2
7.686965070E-1;-1.041799784E-3;9.359836578E-3;2.957439423E-2
7.787230600E-1;-2.824157476E-3;2.979135513E-2;9.241390228E-2
7.985859750E-1;-3.843456507E-3;3.490233421E-2;1.088266373E-1
8.187979540E-1;-7.144600153E-3;6.367206573E-2;1.981706619E-1
8.385936990E-1;-7.246971130E-3;8.184242249E-2;2.607059479E-1
8.585716350E-1;-7.858961821E-3;8.673429489E-2;2.794704437E-1
8.688586240E-1;-7.027179003E-3;7.547664642E-2;2.414846420E-1
8.788841190E-1;-8.395463228E-3;7.866334915E-2;2.528858185E-1
8.988079900E-1;-1.513320208E-2;1.249146461E-1;4.052524567E-1
9.187927080E-1;-8.768469095E-3;1.211550236E-1;3.906984329E-1
9.288461610E-1;-3.559112549E-3;5.701851845E-2;1.834411621E-1
9.485900000E-1;-5.395114422E-4;7.627964020E-3;2.338886261E-2
9.586753070E-1;-8.693039417E-4;7.223606110E-3;2.212142944E-2
9.785110370E-1;-4.075482488E-2;1.921081543E-1;8.067903519E-1
9.988699690E-1;2.466408461E-1;1.233382225E-1;2.193450928E-2
1.018649702E0;1.313917637E-1;-4.669237137E-2;-8.362407684E-1
1.038722136E0;-2.554030418E-1;4.875748158E-1;1.226215363E-1
1.058713244E0;1.234263182E-1;1.954305172E-1;-3.526229858E-1
1.068829429E0;2.891427279E-2;1.812629700E-1;-3.593339920E-1
1.089160567E0;5.009996891E-2;1.577730179E-1;-2.593936920E-1
1.108840852E0;-3.323048353E-2;1.001024246E-1;-2.175483704E-1
1.129046923E0;2.104650140E-1;1.068999767E-1;-3.131294250E-2
1.152198191E0;-1.304566860E-1;1.062107086E-2;-1.779966354E-1
1.168576614E0;-7.171034813E-2;-1.197099686E-3;-1.691303253E-1
1.178732614E0;-5.984284878E-1;3.921227455E-1;-5.496835709E-1
1.188856614E0;-4.597122073E-1;4.647185802E-1;-3.720941544E-1
1.199860614E0;-2.090398073E-1;5.555717945E-1;2.340984344E-2
1.210574614E0;-2.006254196E-1;4.740271568E-1;1.860513687E-1
1.228913614E0;-2.411483526E-1;4.245395660E-1;-6.697845459E-2
1.239531614E0;-1.021209955E-1;3.863408566E-1;1.093273163E-1
1.250315614E0;5.342853069E-2;2.712910175E-1;3.442354202E-1
1.269635614E0;3.107298017E-1;1.407904625E-1;7.390604019E-1
1.288724614E0;2.651449442E-1;8.560299873E-2;7.368793488E-1
1.299317614E0;2.097401619E-1;6.540274620E-2;7.421913147E-1
1.318475614E0;3.686192036E-1;4.120612144E-2;3.682794571E-1
1.328567614E0;5.218818188E-1;-8.924245834E-3;5.922603607E-2
1.348504614E0;2.400965691E-1;-3.334999084E-3;-4.358787537E-1
1.358631614E0;-3.822410107E-2;1.440751553E-1;-3.076972961E-1
1.378541614E0;-2.207357883E-1;1.760790348E-1;3.047084808E-1
1.388698614E0;-5.087375641E-2;1.423337460E-1;1.548662186E-1
1.413557614E0;7.173764706E-2;1.041560173E-1;1.014432907E-1
1.428643614E0;1.763920784E-1;1.350116730E-1;3.792028427E-1
1.439304614E0;2.293077707E-1;1.152787209E-1;4.438228607E-1
1.459401614E0;5.072755814E-1;3.599300385E-1;-9.385452271E-1
1.478238614E0;6.571075916E-1;-2.756321430E-1;-1.083248615E0
1.488586614E0;8.833073378E-1;-3.502111435E-1;-1.044959068E0
1.509681614E0;6.522396803E-1;-3.548667431E-1;-9.109683037E-1
1.529684614E0;-1.621093750E-1;4.205601215E-1;-6.902666092E-1
1.548987614E0;-2.880156040E-1;2.611479759E-1;5.106544495E-2
1.568204614E0;-4.189932346E-1;2.150855064E-1;2.542238235E-1
1.578578614E0;-8.437075615E-1;4.271786213E-1;8.611440659E-1
1.589314614E0;-7.351067066E-1;3.565437794E-1;9.504613876E-1
1.608518614E0;-2.602958679E-2;-3.490567207E-2;1.043496132E0
1.628791614E0;4.045547247E-1;-5.533449650E-1;3.198890686E-1
1.648793614E0;4.554196596E-1;-1.492252350E-1;1.939239502E-1
1.668230614E0;2.221438885E-1;5.911457539E-1;1.621379852E-1
1.678543614E0;2.453293800E-1;5.619246960E-1;4.703426361E-2
1.688805614E0;1.716620922E-1;2.307901382E-1;6.085681915E-2
1.709333614E0;-1.209425926E-2;3.049268723E-1;2.664747238E-1
1.728658614E0;-3.197743893E-1;4.287097454E-1;1.674604416E-1
1.748762614E0;-4.938120842E-1;3.093702793E-1;-2.807989120E-1
1.768545614E0;-3.957221508E-1;-1.275762558E0;4.911422729E-2
1.788650614E0;-5.485711098E-1;1.402101517E-1;2.396469116E-1
1.808596614E0;2.513797283E-1;1.278889418E0;1.016302109E-1
1.828540614E0;2.503175735E-1;6.242814064E-1;-5.080461502E-1
1.838588614E0;4.074608088E-1;4.828407764E-1;-4.737539291E-1
1.848782614E0;3.315060139E-1;2.976281643E-1;-1.106548309E-1
1.868511614E0;-2.385268211E-1;-1.548988819E-1;-4.934253693E-1
1.878562614E0;-3.649747372E-1;-2.312724590E-1;-6.716527939E-1
1.898983614E0;-3.818647861E-1;2.270078659E-2;-9.443678856E-1
1.909373614E0;-3.016395569E-1;3.001165390E-2;-8.095207214E-1
1.928873614E0;2.167701721E-3;9.406638145E-2;-2.838096619E-1
1.948471614E0;4.851412773E-1;4.239034653E-1;-3.834676743E-1
1.959091614E0;4.615597725E-1;5.675978661E-1;-1.991195679E-1
1.970836614E0;1.737478971E-1;2.793598175E-1;-2.944946289E-3
1.988988614E0;-7.671964169E-2;-2.946822643E-1;3.116397858E-1
1.999236614E0;-5.614960194E-2;-2.238643169E-1;4.029092789E-1
2.018518614E0;3.231099844E-1;-1.128196716E-1;-2.016448975E-2
2.028951614E0;3.466899395E-1;9.300184250E-2;1.502399445E-1
2.050078614E0;1.956585646E-1;2.593278885E-2;2.605867386E-1
2.068811614E0;-1.852607727E-1;-6.940572262E-1;3.674850464E-1
2.089325614E0;2.369101644E-1;-3.337624073E-1;2.184371948E-1
2.100310614E0;3.837326765E-1;1.264760494E-1;9.977149963E-2
2.118623614E0;4.177836776E-1;7.583513260E-1;3.854141235E-1
2.128888614E0;2.855132818E-1;9.239740372E-1;9.844150543E-1
2.149164614E0;-4.936198592E-1;8.960428238E-1;-8.896007538E-1
2.169413614E0;-9.265305996E-1;1.832842827E-2;-7.008628845E-1
2.185250614E0;-9.348389506E-1;-3.932523727E-2;-1.804018021E-1
2.198931614E0;-7.715058923E-1;-6.755375862E-2;1.192586899E0
2.209069614E0;-6.672616601E-1;-3.826999664E-2;1.664183617E0
2.228694614E0;-4.800748229E-1;8.317399025E-2;8.911428452E-1
2.248894614E0;-5.399337411E-1;2.437472343E-2;-1.582708359E-1
2.259429614E0;-6.127706170E-1;-1.074922085E-1;-3.010187149E-1
2.278981614E0;-8.331005573E-1;-1.075029373E-3;-1.607227325E-2
2.298498614E0;-4.982742071E-1;2.143850327E-1;3.965139389E-1
2.318502614E0;-7.725989819E-2;5.566461086E-1;9.035606384E-1
2.328814614E0;-1.257378459E-1;6.231660843E-1;5.584621429E-1
2.339279614E0;-2.957123518E-2;7.303738594E-1;9.379577637E-2
2.358440614E0;1.777347028E-1;8.193731308E-1;-2.885560989E-1
2.368777614E0;1.129781008E-1;8.605949879E-1;-7.146472931E-1
2.379499614E0;1.326898932E-1;8.549354076E-1;-9.305524826E-1
2.398409614E0;1.716519296E-1;9.919717312E-1;-1.001215935E0
2.409247614E0;7.815957069E-4;9.180622101E-1;-5.123710632E-1
2.419494614E0;-1.970952153E-1;7.731983662E-1;6.142816544E-1
2.438631614E0;-1.712647080E-1;4.248173237E-1;1.096052170E0
2.458553614E0;3.995150328E-2;5.483698845E-1;-1.063346863E-3
2.468597614E0;7.474660873E-2;5.629649162E-1;-4.925432205E-1
2.488576614E0;1.564202309E-1;5.355687141E-1;-1.127512932E0
2.498683614E0;3.199257851E-1;6.221621037E-1;-9.840345383E-1
2.509270614E0;4.887644351E-1;7.048556805E-1;-4.132480621E-1
2.528814614E0;6.442031264E-2;5.619950294E-1;-2.820110321E-2
2.539004614E0;8.958578110E-4;4.879596233E-1;1.359205246E-1
2.558470614E0;8.908778429E-2;4.566535950E-1;5.858125687E-1
2.569452614E0;4.291284084E-2;4.566411972E-1;7.421445847E-1
2.588435614E0;1.041417718E-1;4.261016846E-1;2.418088913E-1
2.598455614E0;9.531113505E-2;4.911630154E-1;-2.930088043E-1
2.609369614E0;1.877902150E-1;5.890130997E-1;-5.354156494E-1
2.628784614E0;3.736138344E-1;5.798041821E-1;-1.054983139E-1
2.649422614E0;2.484340072E-1;4.445705414E-1;2.259635925E-2
2.668515614E0;1.795002222E-1;3.042104244E-1;2.244930267E-1
2.688667614E0;1.567740440E-1;1.477506161E-1;1.165485382E-1
2.709215614E0;3.678056002E-1;2.288894653E-1;-1.873769760E-1
2.728927614E0;3.912128508E-1;3.433742523E-1;-3.229255676E-1
2.739932614E0;2.193107605E-1;3.155331612E-1;-2.723379135E-1
2.758447614E0;2.693411112E-1;1.202912331E-1;-4.353132248E-1
2.778670614E0;1.346275359E-1;4.308676720E-2;-4.319381714E-1
2.788807614E0;-2.290624380E-2;-2.451944351E-2;-4.332170486E-1
2.808885614E0;-8.112901449E-2;-1.419036388E-1;-3.169231415E-1
2.829064614E0;3.406296968E-1;1.159882545E-1;-3.051757812E-2
2.848796614E0;1.996007860E-1;5.841302872E-2;1.872453690E-1
2.868944614E0;4.163779020E-1;3.149452209E-1;-1.235485077E-1
2.888758614E0;1.765881479E-1;2.944831848E-1;3.125963211E-1
2.909279614E0;-1.347113848E-1;1.994609833E-3;7.188472748E-1
2.929395614E0;-5.037050247E-1;-3.994245529E-1;8.112516403E-1
2.948880614E0;-6.356126070E-1;-5.974402428E-1;2.669410706E-1
2.968842614E0;-5.852358937E-1;-3.769032955E-1;-4.848575592E-2
2.988592614E0;1.004457772E-1;7.002067566E-2;-8.761186600E-1
2.998904614E0;6.392287016E-1;2.552740574E-1;-1.095086098E0
3.018583614E0;9.122678041E-1;6.021325588E-1;-1.355842590E0
3.028599614E0;9.725097418E-1;6.514735222E-1;-1.123539925E0
3.039010614E0;1.051826000E0;6.437799931E-1;-8.389940262E-1
3.049426614E0;1.117451906E0;5.987441540E-1;-6.282157898E-1
3.059496614E0;1.166485548E0;6.028363705E-1;-6.487226486E-1
3.078711614E0;5.964431763E-1;3.841905594E-1;-4.926881790E-1
3.099000614E0;3.528019786E-1;5.297901630E-1;3.836441040E-1
3.119232614E0;2.154251337E-1;4.620418549E-1;8.321228027E-1
3.138449614E0;3.960932493E-1;1.050171852E-1;6.945352554E-1
3.148935614E0;4.933027625E-1;2.619814873E-2;8.301372528E-1
3.159733614E0;5.581498146E-1;-8.717250824E-2;9.188499451E-1
3.169842614E0;4.557152987E-1;-3.321313858E-1;1.135018349E0
3.188810614E0;7.256506681E-1;-4.462153912E-1;7.750959396E-1
3.198900614E0;8.247941136E-1;-5.233283043E-1;5.619907379E-1
3.209399614E0;1.024425030E0;-4.867568016E-1;5.304336548E-2
3.229205614E0;1.382598996E0;-7.330632210E-2;-8.805952072E-1
3.248574614E0;1.112558365E0;3.585679531E-1;-1.378667831E0
3.258867614E0;9.824361801E-1;3.325345516E-1;-1.123527527E0
3.278613614E0;9.257326126E-1;-2.914071083E-2;-1.203684330E0
3.298553614E0;6.833111644E-1;-1.270313263E-1;-2.241754532E-1
3.318573614E0;7.945168614E-1;-2.151157856E-1;-1.013555527E-1
3.329149614E0;6.277149320E-1;-2.318143845E-1;-4.254817963E-2
3.348581614E0;3.103854656E-1;-3.430118561E-1;4.768676758E-1
3.358586614E0;3.080769777E-1;-5.038275719E-1;2.837972641E-1
3.369640614E0;5.280836821E-1;-5.625867844E-1;2.910966873E-1
3.388442614E0;3.452459574E-1;-9.073758125E-1;2.810487747E-1
3.398494614E0;1.588227153E-1;-9.465889931E-1;4.114694595E-1
3.420115614E0;1.322343946E-1;-6.686432362E-1;1.602230072E-1
3.438273614E0;2.200629115E-1;-3.487615585E-1;-7.096214294E-1
3.448611614E0;2.463873029E-1;-1.837933064E-1;-8.960161209E-1
3.468795614E0;1.761927009E-1;-1.942784786E-1;-8.629837036E-1
3.488754614E0;4.930841923E-1;-6.469008923E-1;-8.029937744E-1
3.508423614E0;2.553177476E-1;-9.460763931E-1;-5.930404663E-1
3.519059614E0;-6.575657129E-1;-1.684622765E0;-1.520285130E0
3.538447614E0;-7.013201714E-1;-1.617058635E0;-6.813421249E-1
3.548601614E0;-9.352377653E-1;-8.800055981E-1;1.278171539E-1
3.559238614E0;2.669834495E-1;4.368166924E-1;9.659786224E-1
3.578530614E0;2.132374048E-2;4.614415169E-1;6.412639618E-1
3.598567614E0;1.218898296E-1;5.358927250E-1;-3.921890259E-1
3.609001614E0;1.352251053E0;1.803392172E0;-1.099950314E0
3.628605614E0;1.040843487E0;1.308935165E0;-3.447408676E-1
3.648925614E0;8.366708159E-1;7.618708611E-1;6.552171707E-1
3.668755614E0;2.969568372E-1;1.469437361E0;5.946102142E-1
3.689036614E0;-2.433404922E0;-1.578125358E0;2.147051811E0
3.708436614E0;-1.010654211E0;-1.322061539E0;3.934366226E0
3.729002614E0;-1.544433475E0;-2.564847469E-1;-1.311101437E0
3.748658614E0;-4.337751567E-1;8.661897182E-1;-1.181803226E0
3.769493614E0;-2.743791342E-1;1.809758902E0;2.053508759E0
3.788584614E0;-1.479053020E0;1.493157625E0;6.082553864E-1
3.798925614E0;-1.637820005E0;1.055877686E0;-1.201591015E0
3.818433614E0;-2.232316017E0;-8.525705338E-2;-2.758451462E0
3.828587614E0;-6.743929982E-1;-7.001020908E-1;1.966055870E0
3.848672614E0;1.110676169E0;1.356718063E0;1.018833160E1
3.868649614E0;-3.919643164E-1;1.952220917E0;3.388545036E0
3.878827614E0;4.091490507E-1;1.522413731E0;2.863368988E0
3.898578614E0;-3.234343529E-1;1.658107996E0;-1.087722778E-1
3.908684614E0;-1.990173817E0;8.872792721E-1;-2.133219719E0
3.928743614E0;-2.750693321E0;-4.522104263E-1;-5.626788139E0
3.948752614E0;-2.314436436E0;5.579204559E-1;-6.189920425E0
3.958886614E0;-1.723027945E0;1.239964008E0;-6.245435715E0
3.978485614E0;2.166651726E0;3.255985737E0;4.233563423E0
3.988551614E0;1.967189074E0;2.722777367E0;5.932110786E0
3.999355614E0;-3.708312511E-1;6.070604324E-1;2.332015514E0
4.018444614E0;-9.521012306E-1;-1.464436054E0;2.428838730E0
4.038556614E0;1.138541698E0;-3.388028145E-1;-1.025004387E-1
4.058199614E0;3.072645664E0;9.237298965E-1;-1.192529202E0
4.068529614E0;2.631929874E0;9.457488060E-1;-2.065525055E0
4.088624614E0;-1.003179550E-1;-1.140173912E0;-3.264437437E0
4.108633614E0;-1.265053749E-1;-3.092679977E-1;-1.618043423E0
4.128582614E0;1.313576221E0;3.051505089E-1;-7.292413712E-1
4.149119614E0;2.391831875E0;2.859870434E0;-3.313597202E0
4.159158614E0;8.871541023E-1;2.827873707E0;-3.381719828E0
4.169193614E0;-1.222209454E0;1.721323013E0;-2.902172565E0
4.188601614E0;-4.230418682E0;-1.641884565E0;-1.773889542E0
4.208961614E0;-4.531246185E0;-2.557182312E0;-8.638134003E-1
4.229372614E0;-4.594014168E0;-2.384248257E0;-2.686054468E0
4.248542614E0;-1.796795845E0;-1.373487949E0;-4.077720642E-1
4.259054614E0;-5.606946945E-1;-1.319653034E0;-2.547860146E-1
4.279574614E0;-5.791182518E-1;-1.403346062E0;1.360675335E0
4.298545614E0;-2.209781647E0;-1.557220936E0;8.599708080E-1
4.309382614E0;-2.214524508E0;-1.297859669E0;5.940442085E-1
4.321313614E0;-1.416405201E0;-1.283944607E0;1.045029402E0
4.338817614E0;1.099834442E-1;5.215501785E-1;9.096329212E-1
4.349936614E0;7.361340523E-1;7.200646400E-1;6.739990711E-1
4.368529614E0;5.769024849E0;2.234282494E0;1.010513067E0
4.378855614E0;5.500974655E0;-1.060369015E0;-8.851521015E-1
4.398434614E0;7.723097801E-1;2.115652084E0;5.206185579E-1
4.409192614E0;8.376932144E-1;8.453607559E-1;-6.757187843E-2
4.429303614E0;2.140205860E0;2.370384216E0;-2.037735701E0
4.439952614E0;3.614697456E-1;1.300618172E0;-1.935629964E0
4.458576614E0;2.640960217E-1;2.513303757E-1;1.491348982E0
4.481564614E0;2.597400188E0;2.194045067E0;3.653951645E0
4.498328614E0;2.866883278E0;2.858175278E0;3.925324440E0
4.508720614E0;2.215628386E0;3.063970566E0;1.722925186E0
4.528581614E0;1.264860392E0;2.153389931E0;1.092710018E0
4.538629614E0;6.280219555E-1;8.791217804E-1;1.257946253E0
4.559551614E0;1.299837589E0;8.506631851E-1;5.729722977E-2
4.580002614E0;1.399890661E0;5.357236862E-1;1.181935787E0
4.598514614E0;1.176909804E0;6.750311852E-1;1.200583458E0
4.608832614E0;1.163386941E0;5.568633080E-1;3.933873177E-1
4.628624614E0;7.615302801E-1;9.386553764E-1;-1.705060005E-1
4.648686614E0;3.465235233E-1;4.302940369E-1;-3.500962257E-1
4.669121614E0;3.711225986E-1;-3.840780258E-1;-1.168594360E0
4.688589614E0;8.431149721E-1;-6.811876297E-1;-1.061698437E0
4.708881614E0;2.489444017E-1;1.436419487E-1;4.255762100E-1
4.728982614E0;-3.031283617E-1;-1.151332855E-1;8.977775574E-1
4.748496614E0;-1.269751191E-1;-4.940361977E-1;2.855520248E-1
4.758539614E0;-5.646080971E-1;-7.728424072E-1;-1.514306068E-1
4.778547614E0;-8.685042858E-1;-1.762738228E-1;-1.388914585E0
4.788551614E0;-1.211917281E0;-1.490068436E-1;-1.374075890E0
4.799467614E0;-1.775431156E0;-4.948363304E-1;-6.904697418E-1
4.818593614E0;-8.159955144E-1;-6.906304359E-1;-1.502923012E0
4.829338614E0;-7.567574382E-1;-6.502318382E-1;-1.642658710E0
4.849367614E0;-6.418179274E-1;-4.585070610E-1;-2.892560959E-1
4.868664614E0;-4.588052630E-1;-5.114297867E-1;1.548957825E-1
4.888559614E0;-6.440031528E-1;-5.747380257E-1;-1.081918716E0
4.908607614E0;-9.885193110E-1;-1.461810112E0;-6.018114090E-2
4.919249614E0;-5.598131418E-1;-1.450358391E0;2.400159836E-2
4.939012614E0;1.977726817E-1;-9.552335739E-1;1.822886467E-1
4.958880614E0;3.952769339E-1;-3.328046799E-1;6.055607796E-1
4.969204614E0;3.484628797E-1;-8.336253166E-1;1.052418709E0
4.988551614E0;4.559333324E-1;-1.277355194E0;2.255939007E0
4.998607614E0;9.884401560E-1;-8.355174065E-1;1.603145599E0
5.018894614E0;3.732542098E-1;1.850938797E-2;2.322525978E-1
5.038461614E0;-1.262909174E0;8.497052193E-1;1.386489391E0
5.048911614E0;-9.938036799E-1;8.662676811E-1;2.124457836E0
5.068945614E0;-5.070567131E-3;2.799778938E0;2.981728554E0
5.088466614E0;-4.401661754E-1;6.556692123E-1;2.396395206E0
5.098637614E0;-1.188154578E0;-5.217742920E-2;3.367071152E-1
5.108766614E0;-1.106742144E0;2.345523834E-1;4.385266304E-1
5.118889614E0;-1.205066562E0;4.500355721E-1;1.427106857E-1
5.138424614E0;-8.344428539E-1;1.215898037E0;8.480887413E-1
5.149174614E0;-3.679646850E-1;1.343732834E0;5.439524651E-1
5.168597614E0;-6.477400064E-1;1.086397171E0;-7.425332069E-1
5.178611614E0;-1.094429016E0;1.136400223E0;-1.313967705E0
5.198536614E0;-2.245001793E0;1.174530983E0;-2.108782053E0
5.208810614E0;-2.055231571E0;1.316256046E0;-2.625278234E0
5.228899614E0;1.146956205E0;2.574242115E0;-3.082072973E0
5.248558614E0;2.115904808E0;2.658639908E0;-1.662155151E0
5.268705614E0;2.778792381E0;1.235950470E0;-2.417040348E0
5.288531614E0;2.406224012E0;1.390131950E0;-1.912083864E0
5.298992614E0;1.382481813E0;1.048677444E0;-1.468465328E0
5.309082614E0;9.585354328E-1;6.070756912E-1;-1.919429302E0
5.328664614E0;1.300728559E0;-1.458644867E-3;-1.871756792E0
5.339254614E0;1.583776951E0;-2.907547951E-1;-1.272236347E0
5.358647614E0;2.016441822E0;-6.155672073E-1;-7.693719864E-1
5.378629614E0;2.780575752E-1;-1.376427650E0;-8.083057404E-2
5.398888614E0;-9.416714907E-1;-4.865746498E-1;-1.113190651E0
5.408992614E0;-1.150188208E0;2.718515396E-1;-1.907100916E0
5.419386614E0;-1.280007720E0;8.654785156E-2;-2.218685389E0
5.441238614E0;-9.341304302E-1;-4.400300980E-2;-2.233963013E-1
5.454544114E0;-3.508665562E-1;-6.407270432E-1;7.829856873E-1
5.468944614E0;-3.748147488E-1;-6.427903175E-1;8.000268936E-1
5.479468614E0;-9.990987778E-1;-9.033041000E-1;8.305644989E-1
5.498938614E0;-1.355144978E0;-6.887483597E-1;-2.652873993E-1
5.510910614E0;-1.139335394E0;-5.146684647E-1;-1.372103691E-1
5.530235614E0;-6.267681122E-1;-1.275144577E0;1.330203533E0
5.548541614E0;-1.631141186E0;-1.771825314E0;1.111627579E0
5.559577614E0;-1.881179810E-1;-3.635897636E-1;2.079270840E0
5.578537614E0;1.544821978E0;8.778409958E-1;3.738217354E-1
5.588568614E0;2.650273800E0;1.213727951E0;-5.741376877E-1
5.608850614E0;1.731217623E0;5.111808777E-1;-2.587194443E-1
5.628738614E0;5.260181427E-2;-1.718842983E0;-2.374477386E-1
5.649217614E0;-6.622476578E-1;-1.623534679E0;1.211324692E0
5.668663614E0;1.061693907E0;6.098098755E-1;1.339867115E0
5.688750614E0;1.239747524E0;9.765610695E-1;2.514659405E0
5.708671614E0;1.035069466E0;1.188405037E0;1.977406979E0
5.728731614E0;1.240746260E0;1.882634163E0;7.429780960E-1
5.748481614E0;1.156047106E0;1.333476067E0;7.849159241E-1
5.758562614E0;1.402914047E0;1.751787186E0;1.792360783E0
5.778663614E0;1.177555799E0;1.155315399E0;2.438156128E0
5.798690614E0;6.058747768E-1;5.548758507E-1;1.890607834E0
5.809235614E0;1.497931480E-1;3.982262611E-1;1.152484894E0
5.828661614E0;-8.725829124E-1;3.552150726E-2;-4.251093864E-1
5.839275614E0;-1.284333229E0;-6.115655899E-1;-1.300525904E0
5.858530614E0;-1.716051936E0;2.301464081E-1;-2.439527512E0
5.868905614E0;-1.539485216E0;9.080066681E-1;-2.268628359E0
5.888625614E0;-1.851580381E0;9.732847214E-1;-2.964724302E0
5.908766614E0;-2.451216459E0;1.983207703E0;-3.947502375E0
5.928656614E0;-2.248498440E0;1.965899467E0;-2.766701221E0
5.948791614E0;-2.743280411E0;1.437888145E0;-9.815299511E-1
5.968522614E0;-1.488231063E0;1.206336975E0;2.719974756E0
5.978543614E0;-1.335188627E0;1.081721306E0;2.072097301E0
5.998524614E0;-6.810467243E-1;3.576936722E-1;7.659440041E-1
6.009279614E0;-7.186892033E-1;1.201152802E-2;1.348682642E0
6.028887614E0;-6.269917488E-1;-2.806463242E-1;1.200398445E0
6.048772614E0;-6.212496758E-1;-8.566365242E-1;2.230839729E-1
6.059598614E0;-6.767908335E-1;-1.032799244E0;-3.181664944E-1
6.078556614E0;-1.257927299E0;-1.095310211E0;-2.027390003E-1
6.088848614E0;-1.140307307E0;-8.948888779E-1;-1.245498657E-2
6.108965614E0;-5.662795305E-1;-9.023075104E-1;2.847206593E-1
6.129350614E0;3.127415180E-1;-4.337692261E-1;6.462805271E-1
6.150045614E0;2.425632477E-1;-5.828933716E-1;6.324512959E-1
6.168527614E0;1.593635082E-1;-5.638580322E-1;4.918813705E-1
6.188539614E0;-8.012628555E-2;-4.205150604E-1;-2.873311043E-1
6.208663614E0;-1.768267155E-2;-5.541505814E-1;-9.852056503E-1
6.228549614E0;4.907279015E-1;-5.395927429E-1;1.072511673E-1
6.238588614E0;6.962046623E-1;-4.852609634E-1;1.674644947E-1
6.248868614E0;6.697840691E-1;-4.170351028E-1;1.793980598E-2
6.268805614E0;7.093234062E-1;-3.103084564E-1;1.136619568E0
6.279052614E0;7.272291183E-1;-3.790845871E-1;1.482896328E0
6.298540614E0;8.241000175E-1;-8.240985870E-2;1.969156742E0
6.308699614E0;8.723273277E-1;2.355070114E-1;2.422928572E0
6.328653614E0;5.944573879E-1;3.299102783E-1;2.274615526E0
6.348322614E0;1.985036135E-1;5.279369354E-1;1.900315046E0
6.358558614E0;3.507257700E-1;4.754924774E-1;2.050859451E0
6.368687614E0;4.093097448E-1;2.541980743E-1;1.952265024E0
6.388544614E0;5.344282389E-1;-2.286968231E-1;1.730607986E0
6.408778614E0;7.676873207E-1;-3.407869339E-1;9.526116848E-1
6.419470614E0;1.101395011E0;-8.337402344E-2;9.476022720E-1
6.438669614E0;1.423451304E0;-8.307342529E-1;1.808412313E0
6.458457614E0;1.109415531E0;5.899410248E-1;1.551695347E0
6.468965614E0;1.809859276E-2;1.189899445E0;7.216506004E-1
6.488961614E0;-1.359212756E0;5.002956390E-1;1.700460911E-1
6.511217614E0;-1.422419310E0;3.821439743E-1;-8.913691044E-1
6.528706614E0;-1.931222916E0;-2.328491211E-1;-2.608019352E0
6.548494614E0;-2.285907030E0;-6.864366531E-1;-3.575096130E0
6.558496614E0;-3.856683969E-1;-4.098920822E-1;-3.491415977E0
6.568683614E0;1.647525311E0;1.615524292E-1;-3.450656652E0
6.578950614E0;2.735069990E0;7.936153412E-1;-3.766789436E0
6.598529614E0;4.405435562E0;1.407519341E0;-3.490837097E0
6.608605614E0;4.481371880E0;1.718166351E0;-2.183777332E0
6.618648614E0;3.599422932E0;2.229253769E0;3.046293259E-1
6.638720614E0;1.336720943E0;2.604677200E0;4.509520531E-2
6.649243614E0;9.057371616E-1;2.694657326E0;-1.677328825E0
6.659252614E0;5.981714725E-1;-2.607965469E-1;-2.433331251E0
6.678645614E0;4.081492424E-1;2.762937546E-1;-2.267492533E0
6.688991614E0;2.475280762E-1;-2.655982971E-2;-2.692610025E0
6.710131614E0;-6.100859642E-1;-7.337245941E-1;-1.876553297E0
6.728623614E0;-1.085388899E0;-9.195046425E-1;-1.583886623E0
6.748607614E0;-2.409807205E0;-2.085994244E0;1.044209003E-1
6.769402614E0;-3.426611423E-1;-5.708875656E-1;-6.142430305E-1
6.788728614E0;9.718942642E-2;-1.211444378E0;-9.030443430E-1
6.808468614E0;5.050601959E-1;-2.664169788E0;-1.034584522E0
6.818568614E0;9.305179119E-1;-3.428879738E0;-9.449089766E-1
6.828603614E0;5.705637932E-1;-4.368979931E0;-7.040227652E-1
6.848512614E0;2.255842686E-1;-5.400872707E0;-5.072661638E-1
6.868226614E0;9.855008125E-1;-4.328895569E0;-7.887386084E-1
6.878522614E0;1.084896088E0;-4.119026661E0;-5.309439898E-1
6.898580614E0;6.013517380E-1;-4.537539005E0;-8.529201746E-1
6.909182614E0;-3.372296095E-1;-5.091785431E0;-1.067373872E0
6.929006614E0;-2.454485655E0;-5.019598961E0;5.517254353E0
6.949462614E0;6.380640268E-1;-3.284956455E0;4.085092545E0
6.969102614E0;-1.279643536E0;-3.367357254E0;1.205824852E0
6.988859614E0;1.323642731E-1;-2.027063847E0;3.834507942E0
7.008611614E0;-6.011787057E-1;-1.308459759E0;5.760241985E0
7.028784614E0;1.726326942E-1;-1.973771572E0;-2.951003313E0
7.048650614E0;1.925219154E1;3.076807022E1;-5.718040466E-1
7.068850614E0;-2.147077560E0;6.399252892E0;5.532754421E0
7.088524614E0;-5.122518539E0;-4.046899319E0;1.131831360E1
7.108538614E0;-7.316411018E0;-7.561959267E0;4.152011871E0
7.118637614E0;-6.371140957E0;-7.310778618E0;-1.420287132E0
7.131552614E0;-3.902499914E0;-4.619547844E0;-5.191028595E0
7.144300614E0;-9.266864061E-1;-2.933845520E-1;-1.394590855E1
7.158910614E0;-1.553207636E0;4.060363770E-2;-9.950052261E0
7.169265614E0;-2.076281071E0;2.001018524E-1;-5.298862934E0
7.188537614E0;-2.431814194E0;1.614146233E0;-2.195931911E0
7.208618614E0;-3.582566977E0;1.688823700E0;6.951909065E-1
7.218730614E0;-4.672561646E0;7.678089142E-1;2.237380266E0
7.238443614E0;-5.580615044E0;-7.486619949E-1;4.197322845E0
7.248682614E0;-3.169265270E0;-6.979665756E-1;4.489573479E0
7.259645614E0;-1.466078877E0;-6.199607849E-1;3.923188925E0
7.278190614E0;-2.277563810E-1;-7.819108963E-1;1.192651510E0
7.288735614E0;4.030474424E-1;-7.554979324E-1;1.014233589E0
7.308769614E0;1.039878249E0;-3.399333954E-1;1.227276325E0
7.328534614E0;1.625630379E0;6.063175201E-2;-5.094994068E0
7.338892614E0;1.642029643E0;3.512430191E-1;-7.480292320E0
7.358492614E0;-6.938481331E-2;-1.029673576E0;-1.717706919E0
7.368601614E0;-2.909300327E-1;-1.942846298E0;-9.690970182E-1
7.379020614E0;2.223539352E-2;-2.361515999E0;-6.406396627E-1
7.398436614E0;8.032630682E-1;-2.567947388E0;3.115856647E-1
7.408835614E0;1.151599050E0;-2.415945530E0;1.113895893E0
7.428522614E0;1.437366962E0;-2.138944149E0;9.026730061E-1
7.448681614E0;6.096856594E-1;9.826755524E-2;1.815581322E-2
7.468563614E0;-3.277111053E-2;4.790048599E-1;-1.200251579E-1
7.488862614E0;-1.480512619E-1;6.790924072E-2;9.239947796E-2
7.499091614E0;3.170838356E-1;-6.757631302E-1;1.004891872E0
7.518529614E0;-2.011071920E0;-1.832151413E0;-7.650368214E-1
7.528881614E0;-2.350197315E0;-1.542863846E0;-9.393436909E-1
7.548642614E0;-1.822438717E0;-1.614694595E0;4.560539722E-1
7.568623614E0;-6.475334167E-1;-7.765693665E-1;1.271911979E0
7.579532614E0;-3.803451061E-1;-7.297229767E-2;1.598380327E0
7.598487614E0;-5.918953419E-1;1.820488930E0;2.700796127E0
7.618423614E0;-1.284060717E0;3.284225464E0;3.059788227E0
7.629109614E0;-9.716987610E-1;2.780342102E0;3.143060684E0
7.648479614E0;2.342216969E0;2.381259918E0;1.636355042E0
7.658730614E0;2.935373068E0;1.848578453E0;1.159616590E0
7.668944614E0;3.250097752E0;1.013443947E0;1.057131767E0
7.688480614E0;3.174735785E0;-4.574813843E-1;5.585451126E-1
7.698558614E0;2.176293135E0;-1.213337421E0;2.941769361E-1
7.709033614E0;1.359373569E0;-1.900244236E0;5.062239170E-1
7.728610614E0;1.036576509E0;-1.316783905E0;9.315426350E-1
7.749537614E0;3.220427036E-1;4.345264435E-1;9.322848320E-1
7.769112614E0;-1.597138882E0;4.077943802E0;2.945078373E0
7.788588614E0;-1.163080215E0;7.904872894E0;-8.466613293E-1
7.799136614E0;-3.839681149E-1;7.597558022E0;-4.141555786E0
7.818958614E0;8.463823795E-2;4.679531097E0;-4.828963280E0
7.829017614E0;-9.138550758E-1;2.786550522E0;-4.317444801E0
7.848618614E0;-3.418098450E0;-5.514802933E-1;-3.567463398E0
7.868532614E0;-2.587929010E0;-9.287848473E-1;-2.158719540E0
7.878621614E0;-1.583460689E0;-6.869668961E-1;-1.897633076E0
7.888683614E0;1.274895668E-2;-1.348609924E-1;-3.401215553E0
7.908441614E0;-7.871578932E-1;-9.211268425E-1;-1.025828600E0
7.919526614E0;-8.285605907E-2;-8.582186699E-1;2.522363663E-1
7.938409614E0;2.517192960E-1;-1.368455410E0;-9.432058334E-1
7.948578614E0;-3.339433670E-1;-1.998732567E0;-1.569254398E0
7.959242614E0;-9.208028913E-1;-2.278077602E0;-2.232448578E0
7.978572614E0;-1.935833573E0;-2.669002056E0;-2.128952742E0
7.988781614E0;-2.241671562E0;-3.040184498E0;-1.416011810E0
7.998848614E0;-2.131320953E0;-3.428044319E0;-1.100417852E0
8.018807614E0;-1.532991648E0;-4.270596504E0;-3.634436131E-1
8.038415614E0;-2.049699426E-1;-3.643957138E0;1.154876709E0
8.048987614E0;6.712818742E-1;-3.243583679E0;1.692054272E0
8.068850614E0;2.411764860E0;-3.277175426E0;2.067664146E0
8.088658614E0;3.630539656E0;-2.107957363E0;9.061198235E-1
8.108525614E0;4.212358952E0;-2.200012207E-1;5.939784050E-1
8.119169614E0;3.531192303E0;9.621582031E-1;7.034416199E-1
8.139881614E0;1.953603983E0;3.608241081E0;-7.055473328E-2
8.158603614E0;-3.896566629E-1;5.471171379E0;2.385062695E0
8.168716614E0;3.296439648E-1;5.788318634E0;4.468010426E0
8.188607614E0;4.856879234E0;4.208748817E0;1.245492744E1
8.208524614E0;1.135508657E0;7.461182594E0;2.426715851E0
8.218573614E0;-3.201345921E0;7.819434166E0;-7.027268410E0
8.228614614E0;-6.522986889E0;6.795903206E0;-3.159649611E0
8.238676614E0;-8.130187035E0;4.528216362E0;-2.378182173E0
8.258497614E0;-1.358528137E0;3.048910141E0;-3.538869381E0
8.268608614E0;-2.451517105E0;1.742612839E0;-1.562197208E0
8.288826614E0;-3.006928921E0;-7.002210617E-1;-1.691232204E0
8.299368614E0;-2.761134863E0;-1.092379093E0;-3.228804827E0
8.319085614E0;-3.366053581E0;-2.652263641E-1;-3.178657055E0
8.338513614E0;-5.232194901E0;3.366206169E0;2.131861448E0
8.350648614E0;-5.450263977E0;4.009142876E0;3.693479061E0
8.368656614E0;-2.909641266E0;-2.810182571E-1;-6.357429028E-1
8.379092614E0;-1.167977095E0;-1.706520557E0;-7.478928566E-1
8.398593614E0;3.365921974E-1;-3.915822029E0;8.942003250E-1
8.418201614E0;1.457496285E0;-3.364687920E0;1.838195801E0
8.428611614E0;9.665069580E-1;-2.002599716E0;1.157200336E0
8.448486614E0;-5.905840397E-1;-2.252798557E0;2.151286602E-1
8.458650614E0;1.707100868E-1;-2.711306572E0;1.161930084E0
8.479212614E0;2.022254467E0;-2.909942627E0;7.413532734E-1
8.489247614E0;2.999161005E0;-2.694160461E0;1.298258305E-1
8.508833614E0;3.558825254E0;-1.921055317E0;-9.382938147E-1
8.528755614E0;3.849597216E0;-6.021127701E-1;-8.133651018E-1
8.538872614E0;3.785034657E0;1.579675674E-1;-7.975111008E-1
8.558595614E0;2.540915966E0;1.568222046E0;-9.226894975E-1
8.578522614E0;2.173545361E-1;3.963527679E-1;-1.634597778E-1
8.588708614E0;-8.260421753E-1;-1.668195724E-1;5.685368776E-1
8.608486614E0;-7.632389069E-1;-6.487236023E-1;1.298746943E0
8.618573614E0;-1.058664322E-1;-1.301578045E0;1.600122213E0
8.629013614E0;-5.235848427E-1;-2.455881596E0;2.091370821E0
8.648908614E0;-2.253217220E0;-2.519405365E0;2.724163294E0
8.669321614E0;-1.881699562E0;-4.328927994E-1;1.792827010E0
8.688760614E0;-1.644943237E0;2.432619095E0;8.850175142E-1
8.708922614E0;-1.986957073E0;4.525570869E0;2.456301928E0
8.728630614E0;-1.537880898E-1;1.695350647E0;3.434983730E0
8.739024614E0;1.455515385E0;4.351739883E-1;2.117751598E0
8.758837614E0;4.173836708E0;-4.929218292E-1;9.530068636E-1
8.779156614E0;4.322604656E0;-1.630426407E0;2.491711974E-1
8.799244614E0;2.415378809E0;-2.633152962E0;1.829191446E-1
8.818497614E0;-8.879666328E-1;-2.793875694E0;-3.252594471E-1
8.838581614E0;-2.419040203E0;7.797765732E-1;2.455451488E0
8.849017614E0;-3.625459433E0;3.070426941E0;3.386547565E0
8.868608614E0;-3.885068893E0;9.834691048E0;1.232231140E0
8.888521614E0;1.588952541E-1;1.436899948E1;-5.766094208E0
8.909135614E0;-1.239214897E0;6.229780197E0;-5.448459625E0
8.929371614E0;1.472830534E0;2.481791496E0;-6.877935410E0
8.949199614E0;9.209890366E-1;-1.369507790E0;-3.795137882E0
8.968573614E0;6.400623918E-1;-2.776814938E0;-3.002807140E0
8.988603614E0;-1.265816689E-1;-1.709580898E0;-2.521074533E0
9.009550614E0;-1.037101507E0;-9.519395828E-1;3.765397072E-1
9.028714614E0;-2.583175659E0;-1.748610020E0;-6.749351025E-1
9.048775614E0;-3.606081724E0;-3.383350372E0;-2.369709015E0
9.059734614E0;-3.161199570E0;-3.513367176E0;-2.244429588E0
9.078615614E0;-2.227040052E0;-3.595643044E0;-1.805624247E0
9.088795614E0;-2.039561749E0;-3.783639431E0;-1.803896904E0
9.109152614E0;-1.859722376E0;-4.015820980E0;-7.457697392E-1
9.128478614E0;-7.933002710E-1;-3.215160847E0;7.109816074E-1
9.138906614E0;5.290540457E-1;-2.812383652E0;1.641711473E0
9.158718614E0;2.474298477E0;-2.875586510E0;2.661426544E0
9.168872614E0;3.345310211E0;-2.719822407E0;2.389669418E0
9.189325614E0;4.684777260E0;-1.643801212E0;3.035345078E-1
9.208867614E0;3.744607925E0;4.247796059E0;2.993168831E-1
9.219829614E0;4.114242077E0;6.916980743E0;-1.740472317E-1
9.230315614E0;3.295860291E0;8.139950752E0;2.676789761E-1
9.248585614E0;-9.013077021E-1;4.178410530E0;1.447721720E0
9.268545614E0;4.979334831E0;2.889262199E0;1.123782825E1
9.279783614E0;6.605365753E0;3.444041252E0;1.131495285E1
9.298562614E0;-2.408681870E0;5.487662315E0;-3.983988047E0
9.309697614E0;-5.102777958E0;3.285647392E0;-3.719316959E0
9.328989614E0;-7.270248890E0;9.752683640E-1;-8.942667007E0
9.349199614E0;-3.408708572E0;4.238101006E0;-1.468971491E0
9.370023614E0;-1.309239984E0;2.433772087E0;-8.753213882E-1
9.389490614E0;-1.174297214E0;-5.885219574E-1;3.569602966E-3
9.408601614E0;-2.336025715E0;4.323101044E-2;-2.624671459E0
9.419261614E0;-4.186579704E0;1.132398605E0;-3.766546249E-1
9.430987614E0;-6.788678169E0;1.869032860E0;1.901798010E0
9.448595614E0;-5.727150917E0;-4.628086090E-1;-1.391822100E0
9.458883614E0;-2.580535889E0;-7.218456268E-1;-1.630094171E0
9.478710614E0;-6.957533360E-1;-6.363086700E-1;1.233184099E0
9.488862614E0;-6.053721905E-1;-1.305654526E0;3.065736294E-1
9.509855614E0;7.678318024E-2;-2.533269882E0;-2.623319626E-3
9.528668614E0;1.634833813E-1;-1.820231438E0;2.013046503E0
9.538728614E0;-5.262475014E-1;-2.125058174E0;2.848261118E0
9.559443614E0;2.107739449E-2;-3.395186901E0;2.366795540E0
9.578599614E0;1.612530947E0;-2.946592331E0;7.123374939E-1
9.598580614E0;1.951534748E0;-2.466584206E0;-5.004811287E-1
9.609415614E0;2.966910362E0;-1.062179565E0;-1.292812824E0
9.628848614E0;2.713163853E0;7.862510681E-1;-2.070688009E0
9.648426614E0;1.020518541E0;6.731433868E-1;-1.302991629E0
9.661788614E0;5.409207344E-1;8.162879944E-2;-6.569231153E-1
9.676788614E0;1.286078691E0;5.302267075E-1;2.790962219E0
9.690579614E0;1.326226473E0;5.345325470E-1;3.077885866E0
9.715616614E0;-3.213338852E-1;-5.583438873E-1;3.784285307E0
9.732080614E0;-1.311995506E0;-3.796138763E-1;1.935667634E0
9.747198614E0;-2.231631279E-1;-2.875232697E-1;1.571223021E0
9.762417614E0;-2.256846428E-1;-9.129047394E-2;1.587588429E0
9.779404614E0;6.025414467E-1;2.262620926E0;1.631839037E0
9.791095614E0;8.425712585E-3;2.019371033E0;2.176230669E0
9.809139614E0;6.525468826E-1;-1.413242340E0;2.055317640E0
9.821945614E0;1.633677483E0;-2.320911407E0;1.492862463E0
9.845294614E0;4.246631622E0;-2.543913364E0;2.111894608E0
9.862563614E0;2.960779190E0;-3.732098103E0;2.415256739E0
9.885690614E0;-6.410474777E-1;-4.129505634E0;1.122049928E0
9.911486614E0;-2.491741419E0;2.031517029E0;2.523853779E-1
9.925270114E0;-5.624319077E0;1.031866360E1;4.480214119E-1
9.935273864E0;-1.293109417E0;1.464899540E1;-3.516871929E0
9.952872614E0;5.081629753E-1;1.603924751E1;-5.704829216E0
9.967630614E0;1.482529640E-1;1.106412506E1;-6.954896450E0
9.979236614E0;2.313723564E-1;7.335445404E0;-9.471555710E0
9.993339614E0;2.722230673E0;4.250208855E0;-6.625683308E0
1.001027861E1;1.675695419E0;5.459775925E-1;-2.251225948E0
1.002861461E1;-4.745706320E-1;-1.702691555E0;-2.389975548E0
1.004100061E1;-8.786368370E-2;-2.015066624E0;-1.900107622E0
1.005862661E1;-1.550661206E0;-1.384996414E0;-1.696078300E0
1.008520461E1;-3.921163082E-1;-1.180257320E0;-1.068599939E0
1.009967661E1;-1.681795239E0;-2.900092602E0;-6.813368797E-1
1.011093861E1;-2.545058250E0;-3.676723957E0;-1.854016304E0
1.012972161E1;-4.086500168E0;-4.826784611E0;-2.092302561E0
1.013976961E1;-4.212204933E0;-5.366148472E0;-1.520052195E0
1.016062561E1;-3.837546825E0;-4.792749405E0;-1.452398300E0
1.017829661E1;-2.354214668E0;-4.346250534E0;-1.857044935E0
1.018833261E1;-1.472164869E0;-4.275088310E0;-1.627156973E0
1.020045861E1;4.513791800E-1;-3.465208054E0;3.487839699E-1
1.021957261E1;1.667255640E0;-3.164542675E0;9.861617088E-1
1.023944061E1;2.487440348E0;-2.277715206E0;1.206479788E0
1.025136661E1;3.205742836E0;-1.539513588E0;7.253859043E-1
1.026994661E1;2.637219429E0;1.594758034E0;-5.034289360E-1
1.028890061E1;2.844618320E0;6.288517952E0;-7.626824379E-1
1.029940161E1;1.725516558E0;7.847408295E0;1.921212673E-1
1.030978861E1;-5.004522800E-1;7.930488586E0;2.161532640E0
1.032859661E1;3.186659813E-1;6.345399857E0;7.333436966E0
1.033862961E1;1.017017126E0;7.157876015E0;3.800498962E0
1.035905361E1;2.338387728E0;7.943000793E0;9.205095291E0
1.037866161E1;2.672727108E0;6.567178726E0;4.144115925E0
1.039847761E1;-2.121294022E0;-1.015179157E0;-4.326962948E0
1.040851161E1;-6.161537170E-1;-2.732849121E-1;-8.067691803E0
1.041863061E1;1.211158037E-1;1.464915276E0;-5.050039291E0
1.042906961E1;-4.704738855E-1;1.229774475E0;-8.130261898E-1
1.044856261E1;-6.222351789E-1;-2.056051731E0;-1.391696453E0
1.045863861E1;-8.065817356E-1;-3.563007832E0;-2.907532454E0
1.048117761E1;-1.973826408E0;-3.772606850E0;-2.137722254E0
1.049859861E1;-2.902935505E0;-2.462273598E0;-1.416158557E0
1.050962761E1;-3.189078331E0;-8.723459244E-1;-1.278448105E0
1.052867361E1;-3.270576954E0;1.616803169E0;1.458589077E0
1.055122361E1;-3.029378414E0;9.868698120E-1;9.898977280E-1
1.056855061E1;-2.607624531E0;-2.462625504E-1;-2.831716537E-1
1.058818661E1;-8.224060535E-1;-9.383115768E-1;1.959557533E-1
1.059921361E1;6.030781269E-1;-1.535804749E0;-1.940087795E0
1.061932961E1;1.124940395E0;-9.785432816E-1;1.107567787E0
1.063953361E1;3.685908318E-1;-1.999241352E0;2.556180000E0
1.065052061E1;1.965920925E-1;-2.716887951E0;1.402775526E0
1.066856761E1;1.489787102E0;-2.499040604E0;-6.970995665E-1
1.067901261E1;1.824858189E0;-2.011511326E0;-1.124095201E0
1.069194561E1;2.128622293E0;-1.648141384E0;-1.098373294E0
1.070892961E1;2.102884293E0;-1.055471420E0;-7.068097591E-2
1.071960861E1;2.614938974E0;6.903553009E-2;6.437895298E-1
1.073868261E1;2.192971945E0;6.950836182E-1;1.358151197E0
1.074901461E1;2.083100319E0;3.243846893E-1;1.662179828E0
1.076188661E1;1.071105957E0;-6.793622971E-1;1.362130642E0
1.077871061E1;2.993755341E-1;-1.214491367E0;1.028953075E0
1.079472961E1;4.948406219E-1;-1.063296795E0;1.105967522E0
1.080895861E1;1.397088766E0;-1.979370117E0;1.603426576E0
1.082860561E1;8.066105843E-1;-2.727848530E0;2.408470392E0
1.084887461E1;-7.715654373E-2;-1.218387127E0;3.292038441E0
1.085898961E1;-2.160882950E-2;8.560609818E-1;2.817622900E0
1.087883061E1;-6.092190742E-1;4.961206436E0;2.882020235E0
1.089847661E1;-7.061991692E-1;6.132268906E0;3.394722700E0
1.090858861E1;4.386281967E-1;5.212610245E0;3.551573753E0
1.091969161E1;1.711171865E0;3.455887794E0;1.924288750E0
1.092984061E1;2.663577795E0;2.006999969E0;6.480407715E-1
1.094863661E1;2.989838123E0;-6.638374329E-1;-8.186462522E-2
1.096869361E1;2.994295120E0;-2.563012123E0;-3.377302885E-1
1.098067061E1;5.121142864E-1;-3.483450413E0;1.727263927E0
1.099859661E1;-2.701686382E0;-3.831788063E0;1.139109373E0
1.101860361E1;-2.105740309E0;-1.060940266E0;1.278244138E0
1.102896361E1;-2.262341738E0;9.686870575E-1;2.198994637E0
1.104872261E1;-3.828967094E0;6.874955177E0;1.283764839E0
1.106845161E1;1.008451104E0;1.255667496E1;-2.820761204E0
1.107856061E1;1.601829052E0;1.210825062E1;-4.547161102E0
1.109858061E1;1.246076107E0;6.197044373E0;-9.126020432E0
1.111862561E1;2.869526863E0;3.559273720E0;-8.666715622E0
1.112874861E1;3.144662142E0;2.264081001E0;-6.507665634E0
1.114889361E1;1.106188178E0;-1.013266563E0;-3.425927162E0
1.115931661E1;7.175308466E-1;-1.576889038E0;-7.813608646E-1
1.117918961E1;-4.833542109E-1;-9.558858871E-1;4.029679298E-1
1.119859361E1;-1.211974621E0;-1.215749264E0;5.786542892E-1
1.120905061E1;-1.509762406E0;-1.714389801E0;1.027762890E-1
1.123232061E1;-3.178907394E0;-2.917296886E0;-1.886219501E0
1.124868761E1;-3.103986263E0;-3.490879536E0;-1.818871498E0
1.126162061E1;-2.781214237E0;-3.575298309E0;-1.525341511E0
1.127907361E1;-2.363938093E0;-3.629062176E0;-1.684757948E0
1.129863361E1;-1.949184656E0;-3.228453636E0;-1.610216379E0
1.130999161E1;-1.549587250E0;-3.062045574E0;-1.226318598E0
1.133013361E1;-1.343096495E-1;-2.454655647E0;-1.827120781E-1
1.134871061E1;1.522632599E0;-2.243310452E0;1.764844179E0
1.135977361E1;3.015608072E0;-2.101758003E0;2.275021315E0
1.137900661E1;3.994884729E0;-5.922060013E-1;1.006269455E0
1.139948361E1;5.552798748E0;3.239790916E0;1.200512171E0
1.141158361E1;5.129498959E0;5.718703270E0;9.278070927E-1
1.142907461E1;1.345968246E-2;5.931236267E0;5.475432873E-1
1.144889861E1;-6.270350218E-1;2.616702080E0;2.717121363E0
1.145924361E1;1.580204487E0;4.058944702E0;1.586299896E1
1.147118961E1;3.043470144E0;7.617869377E0;1.440423584E1
1.148855461E1;-2.464612961E0;4.679240227E0;-8.747221947E0
1.149896461E1;-5.094167233E0;1.814701080E0;-5.738889217E0
1.151863961E1;-4.878498077E0;1.153769493E0;-5.193530083E0
1.152864261E1;-2.083703518E0;3.463743210E0;-5.211345673E0
1.154867161E1;-2.231178284E0;2.174118042E0;-1.493699551E-1
1.156066361E1;-3.226085663E0;-2.108127117E0;5.215985775E-1
1.157857361E1;-3.756054640E0;-3.464856148E0;-2.618157864E0
1.159855261E1;-4.525614262E0;-4.376831055E-1;-2.022698402E0
1.160898061E1;-5.103951931E0;2.093721390E0;2.854664326E-1
1.162829961E1;-3.377183437E0;3.717183113E0;7.485907078E-1
1.163864261E1;-6.517457962E-1;3.444806099E0;-3.279149532E-1
1.166080061E1;-1.126578808E0;-1.764354706E-1;-8.125146627E-1
1.167855561E1;-3.663117886E-1;-3.353619099E0;-4.063606262E-3
1.168916061E1;1.789269447E-1;-3.348562241E0;1.371345043E0
1.170918261E1;1.308908463E-1;-1.660905361E0;1.576555967E0
1.172858361E1;3.926277161E-3;-3.699922562E-1;1.552286148E0
1.173858661E1;-5.870792866E-1;-1.883347034E0;1.062618732E0
1.174870061E1;3.219757080E-1;-3.301932812E0;1.273104429E0
1.175927961E1;2.235091209E0;-3.744850636E0;5.150583982E-1
1.177903761E1;2.702107430E0;-3.514320374E0;-4.207997322E-1
1.180098861E1;2.315866947E0;-1.468521595E0;-7.519090772E-1
1.181152661E1;1.551441908E0;-5.829191208E-1;-8.276087046E-1
1.182900861E1;5.591251850E-1;5.337381363E-1;-9.796943665E-1
1.185019661E1;-1.125017643E0;-4.780225754E-1;2.631213665E-1
1.186861061E1;-2.493286133E-1;-1.008045673E0;1.857366323E0
1.187866661E1;6.739952564E-1;-1.110263824E0;2.875412941E0
1.188938761E1;9.451935291E-1;-2.136869907E0;2.933215618E0
1.189954961E1;8.090076447E-1;-3.180952549E0;2.919757605E0
1.191303461E1;-2.491898537E-1;-3.236740589E0;2.646488428E0
1.192836161E1;-1.263978481E0;-2.354380131E0;2.905799866E0
1.193864361E1;-1.663284302E0;-2.568645477E-1;2.673905849E0
1.194963261E1;-2.841370583E0;3.892347336E0;2.261235714E0
1.196856161E1;-3.225028992E0;5.896306038E0;3.175222874E0
1.197889761E1;-1.378518105E0;5.573833466E0;4.274185658E0
1.198899961E1;9.795932770E-1;3.888044357E0;3.456552267E0
1.199919661E1;2.260526180E0;2.781042099E0;2.284702539E0
1.201286261E1;2.974526405E0;2.337434769E0;1.062496662E0
1.202850261E1;3.809388399E0;-1.078090668E-1;-1.554068364E-2
1.203857761E1;4.093639851E0;-1.390687466E0;-3.202887774E-1
1.205973361E1;2.850215197E0;-2.831241608E0;4.117243886E-1
1.207987761E1;-2.127904892E-1;-3.922677994E0;2.693961859E-1
1.209906561E1;-1.991656065E0;-3.515800476E0;8.730272055E-1
1.210953361E1;-2.205077887E0;-1.974862576E0;8.176618814E-1
1.212136061E1;-2.591130018E0;3.448677063E0;9.413609505E-1
1.213893361E1;-2.486636162E0;7.748031616E0;7.558312416E-1
1.214941861E1;1.708126664E0;1.454486179E1;-2.524534941E0
1.216888161E1;-4.027051926E-1;7.864065170E0;-6.295177460E0
1.217904261E1;-8.726692200E-1;4.481763840E0;-1.043989944E1
1.219020861E1;-6.544044018E-1;3.073234558E0;-1.149319172E1
1.220944661E1;1.261066556E0;1.129528999E0;-7.159530640E0
1.223195861E1;2.210895300E0;-4.423160553E-1;-4.331369877E0
1.224870661E1;6.444668770E-1;-1.625688553E0;-1.035289764E0
1.225973861E1;-7.737313509E-1;-9.824471474E-1;1.016836166E0
1.227852761E1;-6.208223104E-1;-7.508010864E-1;2.126157284E-1
1.229857961E1;-1.767134428E0;-3.182642937E0;-1.563689232E0
1.230861361E1;-2.287261963E0;-3.606675148E0;-1.646046400E0
1.232906261E1;-2.795679331E0;-4.176508904E0;-1.989829540E0
1.234919761E1;-2.281236172E0;-3.792762280E0;-1.914905429E0
1.236857261E1;-2.559765816E0;-3.248984337E0;-2.043636322E0
1.237925461E1;-2.436105251E0;-3.125582218E0;-1.478700161E0
1.238932861E1;-1.950271368E0;-2.927992821E0;-1.757463932E0
1.240849461E1;-2.100310326E-1;-2.191260815E0;-1.063203812E-1
1.241858361E1;8.204850554E-1;-1.974490166E0;7.882857323E-1
1.243870061E1;2.245048046E0;-1.972155094E0;2.391555071E0
1.245899061E1;3.446277380E0;-1.059663773E0;2.362491846E0
1.246937661E1;3.322422981E0;-1.074981689E-1;2.331965446E0
1.248881261E1;3.772054195E0;4.288417816E0;1.550335169E0
1.250951561E1;3.816140652E0;8.905832291E0;1.077162027E0
1.252864961E1;-6.605012417E-1;5.922039032E0;1.413547277E0
1.254872061E1;2.109196186E0;6.975191116E0;9.936973572E0
1.255919861E1;4.057523012E-1;6.560051918E0;1.151283503E0
1.257859961E1;-4.567096710E0;1.473319054E0;-8.586895466E-1
1.259850761E1;-2.474720716E0;6.174211502E-1;-7.034661293E0
1.260880261E1;-5.011440516E-1;2.934338570E0;-5.873200417E0
1.262933961E1;-1.496307731E0;2.411190033E0;-8.474674225E-1
1.264860461E1;-2.530806541E0;-1.695421696E0;-8.258464336E-1
1.265993861E1;-2.826936245E0;-2.630601406E0;-1.680741310E-1
1.267859761E1;-3.780952930E0;-1.765623569E0;-1.189488649E0
1.269887761E1;-4.544327259E0;7.811145782E-1;-8.640098572E-2
1.271854361E1;-2.472102404E0;1.911543846E0;-5.074000359E-1
1.272856561E1;-1.093217134E0;1.046820641E0;-3.079944849E-1
1.273907561E1;-9.712579250E-1;-1.491134644E0;2.185912132E-1
1.274937961E1;-7.534971237E-1;-2.611408710E0;1.231572986E0
1.276851361E1;1.182029843E0;-2.950926304E0;2.622352123E0
1.277995261E1;9.486827850E-1;-2.557471275E0;2.352584124E0
1.279856261E1;2.036211491E-1;-1.058197021E0;3.844976425E-3
1.280885161E1;4.888577461E-1;3.287982941E-2;-7.226924300E-1
1.281926161E1;2.194371223E-1;-4.344568253E-1;4.488583803E-1
1.283859261E1;1.107351542E0;-2.940409660E0;1.625705004E0
1.284953661E1;1.940861464E0;-3.159904480E0;1.419170022E0
1.286045061E1;2.354099512E0;-3.320350170E0;9.844126701E-1
1.287857661E1;3.160544634E0;-2.270129204E0;5.756974220E-3
1.288911661E1;2.955406904E0;-1.260930538E0;-3.830325305E-1
1.290932261E1;2.127779961E0;3.676414490E-3;-3.301320970E-1
1.291944361E1;1.818694592E0;5.849628448E-1;-1.677168906E-1
1.293842961E1;8.178796768E-1;9.547519684E-1;1.630754709E0
1.294864561E1;7.610940933E-2;-3.595924377E-1;2.477461576E0
1.295871461E1;8.333158493E-2;-9.666619301E-1;2.948838711E0
1.297934161E1;2.056312561E-1;-2.126987457E0;2.592580318E0
1.299891361E1;5.935535431E-1;-3.219493389E0;2.296132326E0
1.301855561E1;8.979845047E-2;-2.670137405E0;2.823543549E0
1.302892861E1;-4.093384743E-1;-1.965656281E0;2.562309027E0
1.303946061E1;-6.446185112E-1;-2.240543365E-1;1.852964282E0
1.305913661E1;-3.425622463E0;3.464539528E0;8.970716000E-1
1.306922161E1;-4.380289555E0;5.051445961E0;1.298264742E0
1.308845061E1;-2.128909588E0;4.573545456E0;3.923490524E0
1.309872561E1;1.020953894E0;2.859923363E0;2.992014408E0
1.310990761E1;4.573314667E0;2.012748718E0;2.002708673E0
1.312936561E1;5.006657124E0;-3.589143753E-1;1.380465366E-2
1.314889961E1;2.811547279E0;-2.233613491E0;1.064369440E0
1.315894861E1;1.363195419E0;-2.203764439E0;1.281665921E0
1.317945161E1;-8.657646179E-1;-2.201979637E0;1.843411446E0
1.319860161E1;-1.052762985E0;-6.446056366E-1;1.616688848E0
1.320862961E1;-1.264018297E0;8.719568253E-1;2.134190083E0
1.321892661E1;-1.555619240E0;3.277915001E0;2.035379410E0
1.323890361E1;5.120604038E-1;8.962277412E0;-1.468613148E-1
1.325872661E1;1.947160244E0;9.906044006E0;-2.873857498E0
1.326917161E1;1.388940811E-1;6.538965225E0;-4.328142166E0
1.328855461E1;-1.507253647E0;2.945260048E0;-8.227910995E0
1.330881661E1;-2.450013876E0;-8.243093491E-1;-4.512346268E0
1.331889061E1;-1.849225879E0;-1.642027855E0;-3.606984615E0
1.333866661E1;-1.757053733E0;-1.838373184E0;-1.145718336E0
1.335909361E1;-1.881997228E0;-1.508240700E0;-5.384435654E-1
1.337856561E1;-5.589785576E-1;-3.613948822E-2;-7.958843708E-1
1.338941361E1;-1.214241862E0;-2.825241089E-1;-4.230477810E-1
1.340974061E1;-2.668436289E0;-1.703017235E0;-1.650564671E0
1.342863161E1;-2.702221632E0;-1.701419830E0;-2.056373119E0
1.343927661E1;-2.105284691E0;-1.646850109E0;-1.157014370E0
1.345887961E1;-1.029904246E0;-2.175008297E0;-9.082143307E-1
1.346922361E1;-8.099523783E-1;-2.662675858E0;-1.216570139E0
1.348854261E1;-2.923465967E-1;-3.187212944E0;3.997526169E-1
1.349854561E1;3.538885117E-1;-3.212109089E0;8.308434486E-1
1.351850161E1;1.671915293E0;-3.163908482E0;2.238838196E0
1.352870061E1;3.342370510E0;-2.853759766E0;2.374170542E0
1.354870661E1;4.828032017E0;-1.447774887E0;1.564512491E0
1.355939261E1;4.894446373E0;-3.329381943E-1;1.161716700E0
1.357871061E1;4.836750031E0;3.778122902E0;3.494138718E-1
1.358909261E1;1.625961304E0;5.295747757E0;1.498391628E-1
1.360915161E1;-8.069732189E-1;5.267900467E0;3.705360413E0
1.362871261E1;2.568247318E0;3.950697899E0;9.388557434E0
1.364857561E1;3.808459997E0;7.616744041E0;7.445029259E0
1.365962361E1;-6.872893572E-1;5.965143204E0;-4.716057301E0
1.367865761E1;-5.434640408E0;1.366195679E-1;-3.749970913E0
1.368883061E1;-4.760812759E0;4.263887405E-1;-7.273549080E0
1.370922461E1;-1.486712217E0;2.448477745E0;1.633846521E0
1.372935261E1;-3.336232662E0;-2.861700058E-1;-1.326291800E0
1.374883361E1;-4.819445133E0;-2.480855942E0;-3.191912174E0
1.376038361E1;-5.815978050E0;-2.191752911E0;-2.333007336E0
1.377870661E1;-7.535286427E0;-2.457885742E-1;-5.900123119E-1
1.379884361E1;-3.501019001E0;1.829600334E0;-1.714105129E0
1.380944761E1;-1.332619905E0;1.898956299E0;-2.476760864E0
1.382860861E1;-1.782795191E0;-6.004676819E-1;2.016487360E0
1.384822261E1;-8.688459396E-1;-2.241368771E0;3.853743076E0
1.385828261E1;-1.193606853E-1;-2.466593742E0;4.052512169E0
1.386954861E1;9.212491512E-1;-1.759089470E0;4.912884712E0
1.388954961E1;1.632283330E0;5.617952347E-1;-3.084910154E0
1.390883761E1;9.338541031E-1;-1.839046955E0;4.175146818E-1
1.392911461E1;2.646315813E0;-4.052765846E0;8.784271479E-1
1.394871961E1;2.516422272E0;-2.857448101E0;-6.422230005E-1
1.396062661E1;2.675420761E0;-2.019715786E0;-7.990081310E-1
1.397867961E1;2.112681389E0;2.943420410E-2;-1.015657067E0
1.398899161E1;1.300559282E0;6.743841171E-1;-1.246315241E0
1.400042461E1;6.451344490E-1;9.907779694E-1;-1.446609259E0
1.401887661E1;-1.129740715E0;-3.030576706E-1;-9.385679960E-1
1.402911961E1;-1.743371487E0;-9.213247299E-1;1.155307442E-1
1.404867761E1;-5.829138756E-1;-6.581997871E-1;2.293085814E0
1.405892861E1;3.329868317E-1;-7.372641563E-1;2.739767551E0
1.407861061E1;3.381409645E-1;-9.505128860E-1;2.979381800E0
1.409916161E1;-5.355944633E-1;-3.492069244E-1;5.400023460E0
1.411854861E1;6.546449661E-2;2.671370506E0;3.967144251E0
1.412927061E1;1.508712769E-1;3.569781303E0;3.987566233E0
1.413940361E1;3.965239525E-1;4.281571388E0;3.825020075E0
1.414959861E1;4.573428631E-1;4.525419235E0;3.297300339E0
1.416032961E1;7.876350880E-1;4.475942612E0;2.758569717E0
1.417854061E1;1.729169607E0;1.599880219E0;1.148715258E0
1.418858161E1;2.557208538E0;3.262929916E-1;9.628279805E-1
1.419861061E1;2.718828201E0;-8.579835892E-1;1.217177391E0
1.420901161E1;2.721456528E0;-2.021992683E0;1.086203575E0
1.422867361E1;2.887903452E0;-3.490574837E0;1.930470586E0
1.423958261E1;1.943853140E0;-3.655922890E0;2.329192400E0
1.425915261E1;-9.326813221E-1;-3.037856579E0;2.125385761E0
1.427830261E1;-2.569314480E0;-1.712083817E-1;6.500023603E-1
1.428848961E1;-3.395281553E0;1.652713776E0;-7.063894272E-1
1.429903461E1;-3.383540154E0;4.171067238E0;2.412935495E-1
1.431822161E1;1.345928669E0;1.303430557E1;-1.702287316E0
1.432871061E1;1.668487310E0;1.215823746E1;-4.630799770E0
1.434878961E1;-5.690169334E-1;5.076287270E0;-1.045064545E1
1.435890461E1;3.083288670E-1;4.262680054E0;-1.115147209E1
1.437845661E1;-3.493642807E-2;1.427224159E0;-5.647227287E0
1.438872061E1;-1.201722860E0;-7.540092468E-1;-3.197618246E0
1.439900661E1;-1.054682732E-1;-1.748365879E0;-1.902414203E0
1.441846961E1;6.584906578E-1;-1.822944641E0;-7.378399372E-1
1.443866761E1;-3.723901510E-1;-6.590995789E-1;-1.790378094E-1
1.444869361E1;-2.156566381E-1;-4.009809494E-1;5.571722984E-2
1.446885861E1;-3.622730970E-1;-1.449231148E0;-1.737205505E0
1.447886461E1;-1.780866027E0;-2.619982719E0;-2.740049362E0
1.450013261E1;-3.173162460E0;-4.545764446E0;-2.309488058E0
1.451085861E1;-2.842127323E0;-4.924351215E0;-1.874306798E0
1.452861361E1;-2.071420670E0;-5.228952408E0;-1.723721266E0
1.453866261E1;-1.301040292E0;-5.226215363E0;-1.606909037E0
1.455895861E1;-8.157467842E-2;-4.588850498E0;-9.202196598E-1
1.458036861E1;1.202838898E0;-4.082026958E0;-1.869914532E-1
1.459361711E1;1.707932234E0;-3.357329369E0;1.294575930E0
1.460914461E1;2.359742641E0;-2.629310131E0;1.806278706E0
1.462858461E1;3.583291054E0;-8.686370850E-1;8.067555428E-1
1.463883961E1;3.458842993E0;6.090183258E-1;6.264491081E-1
1.465831861E1;2.830009699E0;5.225581169E0;5.879080296E-1
1.466834861E1;1.682245612E0;7.675280571E0;-2.037866116E-1
1.468908261E1;-3.727538586E-1;6.826643944E0;3.492914438E0
1.470972261E1;3.884879351E0;4.232761383E0;1.072760773E1
1.471995361E1;6.835232258E0;5.401247025E0;1.554847240E1
1.473967061E1;-7.990373373E-1;6.032018661E0;-3.513011694E0
1.475907861E1;-7.177549839E0;2.595862389E0;-7.270004749E-1
1.477852261E1;-3.148363113E0;2.637758255E0;-7.381024361E0
1.478854961E1;-8.644787073E-1;3.182680130E0;-1.960488200E0
1.480914861E1;-9.865232706E-1;-1.386775970E0;7.856724262E-1
1.482855361E1;-2.136463642E0;-3.494932175E0;-3.375725746E-1
1.484946761E1;-4.231380463E0;-3.097201824E0;-2.954980850E0
1.486858761E1;-4.744795799E0;1.263051033E0;-1.545617342E0
1.488916961E1;-1.349744797E0;3.954524994E0;6.457762718E-1
1.490891561E1;4.026671648E-1;-3.699092865E-1;1.569417477E0
1.492851661E1;7.203193903E-1;-3.386221409E0;1.007263899E0
1.493856061E1;1.671433926E0;-3.440172195E0;1.056881666E0
1.495851661E1;8.181741238E-1;-2.266943455E0;-4.322527647E-1
1.496862061E1;2.572643757E-1;-9.213190079E-1;-1.167886257E-1
1.498875761E1;2.243745327E-1;5.123252869E-1;-3.485637903E-1
1.500933661E1;-2.179574966E-2;-3.266081333E0;1.693164587E0
1.502850761E1;1.897795916E0;-4.116735935E0;6.381225586E-1
1.504859361E1;3.124031067E0;-2.344759941E0;4.852238894E-1
1.506008461E1;3.332857609E0;-1.826381207E0;7.286147475E-1
1.507856661E1;3.412333012E0;-4.334917068E-1;7.719213367E-1
1.508880561E1;3.195812702E0;3.650608063E-1;-4.629623890E-1
1.509885261E1;1.814239025E0;3.428716660E-1;-8.168915510E-1
1.510901661E1;1.870102882E-1;5.274486542E-2;-8.355460167E-1
1.512346561E1;-1.521189213E0;-1.067688465E0;-3.790051937E-1
1.513872761E1;-1.919445992E0;-1.783693314E0;1.291120052E0
1.515910561E1;-3.474245071E-1;-3.522936821E0;2.174597263E0
1.517853861E1;-4.990096092E-1;-2.832860947E0;1.971416473E0
1.518890061E1;-1.146522045E0;-6.761445999E-1;3.206328869E0
1.520070861E1;-1.147759914E0;1.547231674E0;4.127042294E0
1.521954661E1;-1.749222279E0;4.579350471E0;4.098868847E0
1.523855361E1;-1.220232487E0;4.665197372E0;3.954328060E0
1.524890861E1;-1.240000725E-1;4.199753761E0;3.876264572E0
1.525898361E1;1.187400579E0;2.601776123E0;2.083399296E0
1.528100361E1;3.203137875E0;7.154560089E-2;1.559469402E-1
1.529390361E1;3.876087666E0;-2.487504482E0;8.212205172E-1
1.530897561E1;2.889626265E0;-3.279038429E0;1.973312616E0
1.532855661E1;2.697381973E-1;-3.147135735E0;2.470344305E0
1.534878461E1;-1.880061865E0;-1.103723526E0;1.844236135E0
1.536853161E1;-2.505310297E0;3.283306122E0;5.893617868E-1
1.538853861E1;-2.209807873E0;1.043763351E1;2.837479115E-1
1.540880061E1;1.278733134E0;1.414108562E1;-4.164767265E0
1.542872261E1;6.244468689E-2;7.642528534E0;-8.184032440E0
1.544851261E1;1.123743773E0;4.103588104E0;-9.359949112E0
1.545886161E1;4.461658001E-1;2.219243050E0;-6.895468712E0
1.546922461E1;3.539967537E-2;9.486970901E-1;-5.549649239E0
1.548845761E1;1.520688534E0;-2.201719284E0;-1.598082781E0
1.550867661E1;4.016797543E-1;-5.407304764E-1;-2.213375330E0
1.552888961E1;-2.734661102E-4;-1.088924408E-1;-9.979104996E-1
1.554900561E1;-1.781417727E0;-2.641755581E0;-2.435082674E0
1.555921161E1;-2.798772573E0;-3.617417812E0;-2.785640955E0
1.557870161E1;-3.103065491E0;-4.022907734E0;-1.091944218E0
1.558905261E1;-2.835746765E0;-4.074094296E0;-1.128766060E0
1.560875861E1;-2.553582191E0;-4.048321724E0;-1.616258025E0
1.562835661E1;-1.431346178E0;-4.042882442E0;-1.324223280E0
1.563851661E1;-7.363238335E-1;-3.902225971E0;-8.885078430E-1
1.565898361E1;1.165217280E0;-3.513412952E0;1.289710522E0
1.567848661E1;2.561317921E0;-3.201515675E0;2.409384727E0
1.568864761E1;3.333622932E0;-2.122850418E0;2.524180651E0
1.570885461E1;3.413514853E0;-1.664161682E-3;1.060664654E0
1.572864361E1;3.861071348E0;4.593040466E0;-2.156393528E-1
1.573906361E1;2.998749256E0;7.463586807E0;-1.768219709E0
1.574917761E1;1.565290928E0;8.328716278E0;-1.847047091E0
1.576917061E1;-1.541763306E0;5.455939293E0;-3.619938135E0
1.578868161E1;1.666143179E0;6.456328392E0;1.647990227E1
1.579870461E1;2.311356544E0;7.317209244E0;1.184634018E1
1.580906561E1;1.382362843E-1;6.253584862E0;1.007201910E0
1.582858061E1;-4.667824268E0;1.556039810E0;-1.498775959E0
1.583882061E1;-5.354595184E0;2.857141495E-1;-1.860344887E0
1.585851661E1;-1.966146708E0;4.834970474E0;-4.976761341E0
1.586900261E1;-1.710718393E0;6.055117607E0;-5.318441391E-1
1.588897861E1;-3.077692747E0;-2.117965698E0;3.016829491E-1
1.590916761E1;-3.038240433E0;-3.187005520E0;-3.393706083E0
1.592883361E1;-4.701429367E0;-1.536709785E0;-1.560680985E0
1.594904461E1;-3.748425007E0;1.890855789E0;-2.572586536E-1
1.595906061E1;-2.395127773E0;2.322640419E0;-1.052427053E0
1.597947761E1;-1.164617538E0;9.215164185E-2;4.484493732E-1
1.599830661E1;-5.448448658E-1;-2.813466072E0;1.321809769E0
1.600932261E1;7.631003857E-1;-2.997565746E0;2.771413565E0
1.602896461E1;8.625042439E-1;-2.570924282E0;6.087628365E0
1.604876661E1;1.418974280E0;1.531553268E-1;-4.845781803E0
1.606866761E1;6.430213451E-1;-8.322114944E-1;-2.874544859E-1
1.607900361E1;1.729978561E0;-2.813598156E0;2.288947582E0
1.609856461E1;2.828890800E0;-3.581256390E0;1.631604075E0
1.610932061E1;2.870207310E0;-3.176206589E0;4.984843731E-1
1.612867961E1;3.122537136E0;-1.393846035E0;-5.207441449E-1
1.613913761E1;2.797833443E0;-9.740648270E-1;-6.615543365E-1
1.615903061E1;2.109107018E0;5.327367783E-1;-1.327520013E0
1.618019361E1;1.602408886E0;1.218597412E0;-3.742839694E-1
1.619883261E1;-9.024419785E-1;5.757331848E-2;1.216583610E0
1.621906961E1;-1.124505043E0;-1.275616646E0;1.666036487E0
1.623839361E1;-2.910323143E-1;-2.885912895E0;1.669441938E0
1.624863561E1;-6.360850334E-1;-3.063577652E0;2.052729368E0
1.626081961E1;-1.728159428E0;-1.665419579E0;3.379555941E0
1.627846661E1;-9.752850533E-1;1.846076012E0;2.228783846E0
1.628990261E1;-1.459484100E0;3.076631546E0;1.791337490E0
1.630855161E1;-7.737069130E-1;4.081404686E0;1.876240492E0
1.632885061E1;1.206831455E0;4.485294342E0;2.206506491E0
1.633885061E1;1.923591614E0;2.919004440E0;2.008777857E0
1.635874361E1;3.707342863E0;8.997402191E-1;1.094255447E0
1.637860761E1;4.033968449E0;-8.796176910E-1;1.116039276E0
1.638861061E1;3.579482555E0;-1.818099022E0;1.327090263E0
1.639906761E1;2.926577568E0;-2.521343708E0;1.484971404E0
1.640988161E1;1.755027533E0;-2.989499569E0;2.162408829E0
1.642827961E1;-1.041352272E0;-2.989282131E0;2.446248770E0
1.643833061E1;-1.887162924E0;-2.080031872E0;2.852580547E0
1.644859161E1;-3.201750040E0;-1.221679688E0;2.811775923E0
1.645894661E1;-3.717487335E0;1.853599548E-1;2.954701900E0
1.647855161E1;-1.320587397E0;1.135518360E1;-6.482458115E-1
1.650021161E1;-4.892413616E-1;8.423229218E0;-4.482033730E0
1.651846061E1;-2.004141808E-1;3.679863930E0;-7.485599518E0
1.652867661E1;-2.570328712E-1;3.078965187E0;-7.611371040E0
1.654854061E1;-9.926795959E-1;-3.579158783E-1;-5.401090622E0
1.655857261E1;-5.016747713E-1;-1.469874382E0;-3.390026569E0
1.657863861E1;-1.649500132E-1;-3.205864906E0;-1.727883101E0
1.659883961E1;4.826925397E-1;-1.545395851E0;-3.158786297E-1
1.660994461E1;6.175264120E-1;-1.230677128E0;-8.508663177E-1
1.662866961E1;-2.083683014E-1;-5.679569244E-1;-1.349911690E-1
1.664869161E1;-3.480783463E0;-1.990045547E0;-1.509363174E0
1.665917861E1;-3.236253262E0;-1.314446926E0;-2.159584522E0
1.667851561E1;-3.440435886E0;-1.942545414E0;-2.632510185E0
1.668876361E1;-2.785979986E0;-2.124700546E0;-2.150845289E0
1.670912561E1;-1.600081444E0;-2.487987995E0;-1.502239943E0
1.672866961E1;-9.732438326E-1;-1.743709087E0;-9.620499611E-1
1.674934261E1;-1.240553856E-1;-1.394788742E0;8.356735706E-1
1.676852061E1;1.398386478E0;-1.828814507E0;2.753903627E0
1.677898961E1;2.259688854E0;-2.047750950E0;3.158266068E0
1.679865161E1;4.132580757E0;-1.860963821E0;1.510904074E0
1.680894061E1;4.326901913E0;-6.942024231E-1;1.471219301E0
1.682876861E1;4.645152569E0;2.839769363E0;7.796752453E-1
1.684866861E1;2.636585236E0;6.920475960E0;8.139109612E-2
1.685954661E1;8.708932400E-1;5.016837120E0;4.130636692E0
1.687846961E1;2.841049910E0;5.304100037E0;1.400130272E1
1.688897361E1;3.071683645E0;7.862314224E0;1.287779808E1
1.690854861E1;-1.508079290E0;4.260202408E0;-5.333225250E0
1.692823461E1;-7.266197205E0;-8.055553436E-1;-2.543403864E0
1.693991361E1;-4.884036541E0;-7.042312622E-1;-1.006849480E1
1.695827761E1;-1.292927027E0;2.922144890E0;2.361257792E0
1.696867261E1;-1.213298798E0;1.811891556E0;7.580268383E-1
1.698957861E1;-1.890978575E0;-1.670749664E0;-2.312009811E0
1.700991461E1;-2.759580135E0;-2.116511345E0;-6.307125092E-1
1.702821561E1;-4.157232761E0;-6.977243423E-1;-7.927817106E-1
1.703842861E1;-5.236329556E0;-2.019386292E-1;-5.336532593E-1
1.705935861E1;-5.616307259E-1;2.328026772E0;3.785054684E-1
1.706997461E1;-4.320123196E-1;1.532117844E0;1.462362766E0
1.708863761E1;-7.080237865E-1;-2.006549358E0;1.109948635E0
1.709931061E1;-2.848381996E-1;-3.382609844E0;1.454216242E0
1.712168061E1;7.493588924E-1;-3.359532833E0;3.957265854E0
1.713182961E1;6.038184166E-1;-2.925457954E0;2.237386703E0
1.714478661E1;3.254277706E-1;-1.121845722E0;-1.403018475E0
1.716040961E1;3.201375008E-1;-1.352944851E0;6.740320921E-1
1.718088661E1;1.397626877E0;-2.808912754E0;2.119925261E0
1.719851961E1;3.129431963E0;-2.910060883E0;1.318306208E0
1.721817361E1;3.009602070E0;-1.564026356E0;-4.647428393E-1
1.722926961E1;3.078014851E0;-8.567709923E-1;-1.333990097E-1
1.724851761E1;2.636838436E0;-1.175689697E-2;-5.199292898E-1
1.726011661E1;2.118545294E0;-4.694652557E-2;-1.455750704E0
1.727887161E1;7.738175392E-1;-2.160549164E-2;4.005647004E-1
1.729841261E1;-2.274141312E-1;7.504348755E-1;1.897027850E0
1.730899161E1;-1.256933212E-1;1.216374397E0;2.011423588E0
1.731914161E1;-1.198263168E-1;6.613197327E-1;2.036371946E0
1.733884561E1;-8.329563141E-1;-3.204927444E-1;2.408399582E0
1.734890561E1;-1.323990345E0;-7.809271812E-1;3.072575092E0
1.736820261E1;-1.364287853E0;-6.866960526E-1;3.335854292E0
1.737850761E1;-7.417802811E-1;-2.589435577E-1;3.035835981E0
1.738870161E1;5.199472904E-1;7.548923492E-1;2.988089561E0
1.740943061E1;1.133001804E0;2.178798676E0;2.222731590E0
1.742862161E1;1.045054674E0;2.138455391E0;2.464913607E0
1.743885561E1;1.914913177E0;1.047802925E0;1.747617722E0
1.745961661E1;4.355133533E0;-2.311174393E0;1.068631053E0
1.747855261E1;3.073542595E0;-3.018415928E0;1.602506042E0
1.749846461E1;-4.222524166E-1;-3.557323933E0;3.066060543E0
1.750903561E1;-2.202135324E0;-2.452451706E0;3.142700672E0
1.752879361E1;-6.251444817E0;2.866219521E0;2.663625002E0
1.754848261E1;-5.645581245E0;1.207328892E1;6.828038692E-1
1.755864461E1;-2.915645599E0;1.507908535E1;-1.304451704E0
1.756901161E1;-1.380894661E0;1.503642082E1;-4.671363354E0
1.758867061E1;-2.937351227E0;5.371011734E0;-8.793654442E0
1.760883861E1;-8.557565212E-1;2.730947495E0;-9.901475906E0
1.761891061E1;1.910978556E-1;1.028045654E0;-8.210265160E0
1.763850661E1;5.716643333E-1;-1.706910133E0;-3.632110357E0
1.764853761E1;2.373939753E0;-3.389400005E0;-2.048564434E0
1.765940761E1;2.739290237E0;-2.487873077E0;-1.210223198E0
1.767825661E1;9.851185083E-1;-3.719205856E-1;-5.591628551E-1
1.768923061E1;7.981324196E-2;-8.638210297E-1;-2.064876556E-1
1.770878061E1;-2.035318851E0;-2.227803230E0;-9.926958084E-1
1.772865861E1;-3.714132547E0;-2.929589748E0;-2.274552345E0
1.773889261E1;-3.819624901E0;-2.725098610E0;-2.403060675E0
1.774890661E1;-4.160829067E0;-3.011933804E0;-1.987510085E0
1.775890761E1;-4.032821178E0;-3.184167862E0;-1.639495134E0
1.777856061E1;-3.526463747E0;-3.492901802E0;-1.249531269E0
1.778864861E1;-2.995077610E0;-3.394354343E0;-7.371225357E-1
1.780897861E1;-1.788514256E0;-3.012186050E0;6.122112274E-2
1.782884061E1;4.300742745E-1;-2.652560711E0;1.523688793E0
1.784856261E1;3.314735174E0;-2.378082752E0;1.937327623E0
1.785889861E1;4.029957771E0;-1.691678524E0;1.485920191E0
1.787972661E1;2.673174858E0;1.400939941E0;1.166439772E0
1.789857561E1;3.285241127E0;6.911946297E0;-4.087543488E-1
1.790885061E1;1.566512585E0;8.313123703E0;-8.827767372E-1
1.792865061E1;1.281023622E0;6.047158241E0;5.628334999E0
1.794851361E1;1.047621369E0;5.818260193E0;4.897773743E0
1.795894561E1;5.523343086E-1;7.679355621E0;1.299859238E1
1.797823261E1;8.967785239E-1;6.358881950E0;4.731739998E0
1.798919961E1;-1.844185591E0;2.984564781E0;-4.759421349E0
1.800927361E1;-3.915410042E0;-1.472062111E0;-6.318688393E0
1.802879461E1;-1.161464334E0;3.859523773E0;8.090431690E-1
1.804849461E1;-2.493214607E0;-1.852524281E0;-8.375170231E-1
1.806020861E1;-2.726967335E0;-4.112728596E0;-1.700496674E-1
1.807961861E1;-2.596821070E0;-4.078287601E0;-2.484931707E0
1.809858061E1;-3.937027454E0;-1.432250023E0;-1.212798238E0
1.810878261E1;-4.215565205E0;7.170896530E-1;-2.005496264E0
1.811884361E1;-3.860615253E0;2.528596878E0;-1.062743664E-1
1.812967561E1;-2.799277782E0;3.905249596E0;1.964594841E0
1.814902761E1;-2.015990734E0;1.359653473E-1;5.752689838E-1
1.815926561E1;-7.500331402E-1;-2.024979591E0;-9.229940176E-1
1.817871961E1;2.634967089E0;-2.486088753E0;3.020370007E-1
1.819824261E1;1.506541014E0;-2.773764133E0;1.674130201E0
1.820909861E1;1.383864880E0;-1.336712360E0;7.244833708E-1
1.822848861E1;1.102638245E-1;-6.822576523E-1;-1.908563375E-1
1.823927561E1;7.677052021E-1;-2.481657028E0;6.160359383E-1
1.825874761E1;2.173276424E0;-2.897653103E0;5.373072624E-1
1.827850661E1;2.867908001E0;-2.152481079E0;-6.361812949E-1
1.828866961E1;2.852632523E0;-1.911630630E0;-1.741074324E-1
1.830993461E1;2.335364342E0;-8.514571190E-1;-2.619663477E-1
1.832853061E1;1.588433266E0;2.004499435E-1;-1.219427824E0
1.834868961E1;-1.175792217E0;-2.029304504E-1;3.744095564E-2
1.835881261E1;-1.768943310E0;-2.738800049E-1;8.793570399E-1
1.837852461E1;-9.461956024E-1;-1.095274448E0;1.951826215E0
1.838920061E1;-1.136484146E-1;-2.279784679E0;2.126194954E0
1.840895261E1;-2.081232071E-1;-3.164069653E0;2.982472897E0
1.842856861E1;-1.330358505E0;2.250115395E0;2.474177599E0
1.844856261E1;-1.208700657E0;3.174364090E0;3.654116869E0
1.845906061E1;-3.586568832E-1;3.797509193E0;3.184622765E0
1.846940161E1;7.395744324E-4;4.374998093E0;2.630477905E0
1.848898361E1;1.122886658E0;2.662746429E0;1.267044783E0
1.850903861E1;2.655109406E0;1.140130997E0;2.595405877E-1
1.852872361E1;4.087142944E0;-1.001243591E-1;9.376268983E-1
1.853954261E1;3.918142557E0;-1.336127281E0;1.276236892E0
1.855897861E1;2.149631262E0;-3.950417519E0;2.353946447E0
1.857866261E1;-3.883790970E-1;-5.139502525E0;1.274829865E0
1.858870861E1;-1.031551361E0;-4.444089890E0;1.474480987E0
1.860890761E1;-3.011002779E0;-1.853306770E0;1.764209747E0
1.862878561E1;-2.473699808E0;9.804170609E0;1.296101332E0
1.863886661E1;-1.012190104E0;1.375254536E1;-2.624070644E-1
1.865894961E1;-1.534455061E0;1.105636501E1;-5.788785934E0
1.867862561E1;-2.966567755E0;2.794734955E0;-9.323163033E0
1.869893661E1;-1.108304739E0;5.613403320E-1;-6.152586460E0
1.871859761E1;1.510130167E0;-1.567913532E0;-2.912626266E0
1.872860461E1;1.804770708E0;-2.228838921E0;-1.552369595E0
1.874870861E1;2.261640549E0;-1.218594074E0;-1.232808828E0
1.875874361E1;2.380956173E0;3.402986526E-1;-1.253876686E-1
1.876922161E1;1.356884360E0;4.353094101E-1;-9.875495434E-1
1.878878361E1;-1.661085963E0;-9.546689987E-1;-1.744271755E0
1.880872361E1;-3.762456417E0;-2.372022629E0;-1.258828878E0
1.882901261E1;-3.503415585E0;-2.196907043E0;-1.814606667E0
1.884907161E1;-2.506394863E0;-2.555796623E0;-1.817299604E0
1.886875861E1;-1.036997199E0;-3.139805794E0;-9.088082314E-1
1.888892161E1;9.560787678E-2;-2.465267181E0;3.136205673E-1
1.890917761E1;1.856673360E0;-2.462568760E0;2.264882088E0
1.892861461E1;3.451602459E0;-2.713221550E0;3.188833714E0
1.894855161E1;4.126279354E0;-2.737625599E0;9.328594208E-1
1.895923461E1;3.572139740E0;-1.419009209E0;2.099425793E-1
1.897873661E1;3.650628090E0;2.975022316E0;-1.668930054E-6
1.899856461E1;1.687010050E0;8.682843208E0;1.219515085E0
1.900993961E1;1.663378835E0;8.256059647E0;3.556635618E0
1.902876661E1;2.745063305E0;7.656420708E0;1.519327927E1
1.904858261E1;-1.090376496E0;5.802833557E0;-3.931959629E0
1.905894761E1;-5.029798985E0;3.097155571E0;-5.322718143E0
1.907857561E1;-4.675380230E0;3.118057251E-1;-4.902056217E0
1.908918461E1;-2.148843765E0;1.770845413E0;-4.877989769E0
1.910911761E1;-1.512941718E0;3.266988754E0;-2.706818104E0
1.913164061E1;-1.713598728E0;-1.149668694E0;5.497593880E-1
1.915866161E1;-4.138820171E0;-1.927808285E0;-1.680828929E0
1.917861161E1;-5.099397659E0;9.436893463E-2;-1.347121358E0
1.919117061E1;-2.420376062E0;2.840219498E0;-1.868586540E-1
1.920881761E1;4.824258089E-1;1.517637253E0;1.653268099E0
1.922820261E1;2.073304653E-1;-2.167795658E0;1.473519802E-1
1.923847661E1;4.750676155E-1;-3.236342430E0;1.255359650E-1
1.924864361E1;5.918767452E-1;-3.540299892E0;7.514386177E-1
1.926895261E1;1.226367950E-1;-3.396747589E0;2.846436739E0
1.928877761E1;1.725981236E-1;-9.821238518E-1;3.281528950E-1
1.930070661E1;-1.577975750E-1;-9.811139107E-1;9.632411003E-1
1.931851861E1;7.523837090E-1;-2.795279026E0;1.574711800E0
1.933937461E1;3.106112480E0;-2.877712727E0;4.641185999E-1
1.935929261E1;2.665117264E0;-2.880262375E0;7.406592369E-2
1.937947661E1;3.243996620E0;-1.454355240E0;-5.132377148E-1
1.939855261E1;2.937927246E0;-2.517700195E-4;-7.683832645E-1
1.940865661E1;1.256262541E0;7.723960876E-1;-9.095049500E-1
1.942930861E1;-9.956083298E-1;3.307867050E-1;2.989467382E-1
1.944863861E1;-1.046041965E0;5.274543762E-1;2.193686724E0
1.945904061E1;-2.680783272E-1;6.780767441E-1;2.802963734E0
1.947889061E1;-1.792964935E-1;-1.037360191E0;3.166126490E0
1.949938661E1;-7.170500755E-1;-6.462349892E-1;2.837562799E0
1.951819361E1;3.777422905E-1;1.046975136E0;1.843513608E0
1.952878161E1;1.040117025E0;1.415555954E0;2.368231297E0
1.954841261E1;3.294620514E-1;2.063682556E0;2.544174194E0
1.956024961E1;2.450089455E-1;2.105430603E0;3.236570835E0
1.957888961E1;2.863384247E0;8.156213760E-1;2.327826262E0
1.959861061E1;4.549796104E0;-3.137998581E-1;8.928595781E-1
1.960954261E1;3.783959389E0;-2.189649105E0;-1.417956650E-1
1.962920461E1;9.464204311E-1;-2.803251266E0;1.818983078E0
1.963995561E1;-5.850796700E-1;-2.613657475E0;2.536663532E0
1.965888461E1;-2.350226879E0;2.206525803E-1;2.548761845E0
1.967855661E1;-4.667357445E0;5.280217171E0;1.077692509E0
1.968857261E1;-4.638607979E0;8.745518684E0;9.917216301E-1
1.969916361E1;-2.657387495E0;1.168631649E1;-6.218694448E-1
1.970947061E1;-7.580108643E-1;1.285520172E1;-2.548528910E0
1.972878161E1;-6.912436485E-1;6.904075623E0;-6.481691837E0
1.974853361E1;-1.596135616E0;3.177751541E0;-6.249653339E0
1.975857561E1;-1.397503376E0;2.682222366E0;-5.647933006E0
1.976871461E1;-1.618275881E0;1.108886719E0;-5.714958668E0
1.977887861E1;-2.244629860E0;-9.222259521E-1;-4.461379051E0
1.979858961E1;9.867533445E-1;-1.467105389E0;-2.001188040E0
1.980959261E1;8.685472012E-1;-6.503028870E-1;-1.837021112E0
1.982922361E1;-1.955796480E-1;1.514453888E-1;-7.974967957E-1
1.984850661E1;-1.085646033E0;-5.721244812E-1;-1.187823296E0
1.985942961E1;-2.413289785E0;-1.623914242E0;-1.841015339E0
1.987862161E1;-3.385726452E0;-3.201728344E0;-2.568128109E0
1.989855961E1;-3.037920713E0;-3.990398884E0;-1.969386816E0
1.990889261E1;-2.829941750E0;-4.002699852E0;-1.668329000E0
1.992864961E1;-2.106081247E0;-4.158599377E0;-1.338488579E0
1.994859061E1;-1.141529441E0;-4.004509926E0;-2.365698814E-1
1.995896261E1;-3.473991156E-1;-3.880321026E0;-2.578196526E-1
1.997944161E1;1.007329464E0;-3.151054859E0;1.255654812E0
1.999850061E1;3.579285383E0;-1.981970310E0;1.894267082E0
2.000998761E1;4.459266663E0;-1.378570080E0;1.527175903E0
2.002990461E1;3.281266928E0;1.175097466E0;-8.743286133E-2
2.004883161E1;3.736616135E0;5.914588928E0;9.989247322E-1
2.006850861E1;1.438648701E-1;7.303003311E0;-2.943768501E-1
2.007855961E1;-2.038432360E-1;4.554004669E0;-1.950879216E0
2.009922561E1;7.337751389E0;5.865537643E0;1.867166138E1
2.011905361E1;2.418696880E-2;6.691033363E0;-3.462155342E0
2.012952061E1;-3.807138443E0;2.964838028E0;-7.129551888E0
2.013961261E1;-5.715321541E0;6.490039825E-1;-1.423280954E0
2.015848661E1;-4.566721916E0;2.316660881E0;-7.791260242E0
2.017060661E1;-1.766404510E0;5.005244255E0;4.013624191E-1
2.018885161E1;-2.543156147E0;6.964588165E-2;4.768228531E-2
2.019904361E1;-2.813132048E0;-2.062827110E0;7.618134022E-1
2.021862261E1;-4.112773895E0;-3.283880234E0;-1.795381188E0
2.022911861E1;-4.392584801E0;-2.288774014E0;-2.087585449E0
2.024851361E1;-4.153070927E0;8.810091019E-1;2.051267624E-1
2.026843161E1;-2.249590158E0;2.620652199E0;1.897497177E-1
2.027850961E1;-2.037564516E0;1.327842712E0;-6.394314766E-2
2.028901661E1;-1.393038034E0;1.797943115E-1;1.728534698E-3
2.030882461E1;3.009209633E-1;-1.959887028E0;5.073547363E-3
2.032858961E1;1.420634866E0;-2.455743313E0;1.581192017E0
2.033905661E1;1.501907468E0;-2.448039055E0;-9.226870537E-2
2.035885861E1;1.042834997E0;-2.565479279E-2;1.969325066E0
2.036912261E1;3.626673222E-1;-2.870759964E-1;2.546170235E0
2.037915561E1;2.317261696E-2;-1.061861515E0;1.010685682E0
2.039871861E1;2.183533192E0;-3.440412521E0;2.274439335E-1
2.040889361E1;1.932759762E0;-3.319152355E0;-1.479465961E-1
2.042865961E1;2.187573910E0;-2.479268074E0;-1.938893795E-1
2.044849161E1;2.220030546E0;-1.278951645E0;-2.221013904E-1
2.045910661E1;1.904521704E0;-4.138269424E-1;-7.388707399E-1
2.047855261E1;4.152996540E-1;2.898921967E-1;-1.176595807E0
2.048855561E1;-5.993685722E-1;-4.819259644E-1;-4.462222755E-1
2.050859261E1;-1.028345585E0;1.105022430E-2;9.612760544E-1
2.052857061E1;1.264638901E-1;8.819961548E-2;2.242191076E0
2.054868861E1;4.070587158E-1;-1.313001156E0;3.428543568E0
2.056857361E1;-5.138635635E-1;-9.764566422E-1;5.145660877E0
2.058891361E1;1.256924152E0;1.265665054E0;3.378244400E0
2.060926461E1;1.131324053E0;2.415361404E0;2.568906069E0
2.062865661E1;1.147657156E0;2.049177170E0;2.012245178E0
2.064868661E1;3.200499058E0;2.501888275E-1;1.719467640E0
2.066882361E1;3.773879290E0;-1.590461731E0;5.284340978E-1
2.068932561E1;1.951933146E0;-2.636955261E0;1.789031029E0
2.071028661E1;-1.395134926E0;-2.473936081E0;2.813941479E0
2.072952561E1;-4.540231228E0;6.588716507E-1;1.398911595E0
2.074868561E1;-6.171737671E0;5.539646149E0;1.109360695E0
2.076853061E1;-3.777214289E0;1.041219521E1;-1.151536345E0
2.078872361E1;-8.003597260E-1;7.569548607E0;-7.486161232E0
2.080880661E1;-8.653755188E-1;3.051487923E0;-8.041707039E0
2.082878261E1;8.201729059E-1;1.295363426E0;-5.979418755E0
2.084848661E1;7.863560915E-1;-1.620095730E0;-3.363623142E0
2.085919661E1;1.332898617E0;-1.463805199E0;-2.019215107E0
2.087919561E1;8.877292275E-1;9.036540985E-2;-1.392654419E0
2.089849961E1;-1.617555618E-1;5.171709061E-1;-9.238796234E-1
2.090872861E1;-1.791754961E-1;-2.938537598E-1;-9.961180687E-1
2.092874161E1;-2.707096577E0;-2.400636196E0;-2.372000217E0
2.094867161E1;-3.273396015E0;-3.677472115E0;-2.393559933E0
2.096870261E1;-3.100534439E0;-4.065578938E0;-1.476554394E0
2.097899061E1;-3.095699310E0;-4.759537697E0;-1.603030205E0
2.099899361E1;-2.306892157E0;-4.545169830E0;-7.601602077E-1
2.100926661E1;-1.648803949E0;-4.167608261E0;-5.459620953E-1
2.102862161E1;3.201786280E-1;-3.566519260E0;7.951478958E-1
2.104860961E1;2.163809299E0;-3.233478069E0;2.590322733E0
2.105887461E1;2.865900517E0;-2.806500912E0;2.390335798E0
2.107872761E1;3.895208359E0;-6.956272125E-1;1.539115191E0
2.108909361E1;3.455917835E0;8.918409348E-1;9.648976326E-1
2.110922261E1;3.934757710E0;5.739113808E0;-6.440351009E-1
2.112902861E1;-1.700997353E-2;6.926200867E0;1.040723801E0
2.114880361E1;-1.386502981E-1;4.025861740E0;-9.558620453E-1
2.115897761E1;2.322069168E0;3.042165756E0;7.236574650E0
2.118155761E1;1.727565289E0;6.721955299E0;3.831793785E0
2.119861161E1;-5.444667339E0;1.943418503E0;-4.590361595E0
2.121860261E1;-4.237372398E0;3.863533020E0;-1.014223480E1
2.123855661E1;-1.192983985E0;6.146730423E0;9.377684593E-1
2.124859361E1;-1.511853695E0;3.811734200E0;-7.831101418E-1
2.125882861E1;-2.778553486E0;3.185815811E-1;2.892606258E-1
2.127947361E1;-3.532818317E0;-3.576595783E0;-7.665314674E-1
2.129851761E1;-4.802331924E0;-3.909000397E0;-3.047911644E0
2.130889461E1;-4.225223541E0;-1.994779110E0;-3.421831608E0
2.132871461E1;-5.359072685E0;3.063616753E0;4.697644711E-1
2.134971961E1;-4.369897842E0;1.727266312E0;1.810766935E0
2.136061561E1;-4.147293568E-1;-1.179255486E0;-2.754139900E-2
2.138366011E1;1.204424381E0;-2.772132874E0;3.303862095E0
2.139957361E1;1.070894957E0;-2.850111485E0;3.814439058E0
2.141867861E1;1.284527779E-1;-9.701776505E-1;-1.321228147E0
2.143861561E1;-7.670509815E-1;-1.307428837E0;6.172802448E-1
2.146046861E1;1.434620142E0;-2.717959404E0;1.368034959E0
2.147851561E1;2.529773235E0;-2.679520130E0;1.085655928E0
2.148889761E1;2.619536400E0;-2.092127800E0;9.031741619E-1
2.150876361E1;3.328992367E0;-1.070261955E0;3.539654016E-1
2.152850561E1;4.413008213E0;2.389650345E-1;5.562227964E-1
2.154849061E1;3.169596195E0;1.117064476E0;6.861180067E-2
2.155861661E1;2.234191656E0;7.477960587E-1;4.600397944E-1
2.156888261E1;5.907480717E-1;-3.728475571E-1;8.899182081E-1
2.157910561E1;-2.702870369E-1;-1.590232849E-1;1.215115309E0
2.159853061E1;1.049432755E-1;-5.307788849E-1;2.219545841E0
2.160870761E1;2.229304314E-1;-1.562129498E0;2.610952377E0
2.162868961E1;-8.042659760E-1;-2.952732086E0;2.980403423E0
2.164895861E1;-4.375476837E-1;6.229944229E-1;2.581057072E0
2.166860561E1;2.747869492E-2;3.567459106E0;2.901851892E0
2.167925161E1;7.980966568E-2;4.323392868E0;2.817183971E0
2.169852361E1;-3.015770912E-1;3.575926781E0;2.767456293E0
2.170890761E1;4.451327324E-1;2.118990898E0;2.475045204E0
2.172862561E1;3.167173862E0;-5.877332687E-1;5.670522451E-1
2.173896361E1;4.264532089E0;-1.136960506E0;1.962263286E-1
2.175996961E1;3.490017891E0;-2.694352150E0;1.698538780E0
2.177866361E1;3.951172829E-1;-4.087162971E0;2.384631157E0
2.179852061E1;-2.939063787E0;-2.159635544E0;2.532711506E0
2.180884061E1;-4.164843559E0;3.932495117E-1;2.043511391E0
2.182870061E1;-5.756338120E0;7.604111671E0;1.551338196E0
2.183880561E1;-3.882980347E0;1.175753498E1;7.819762230E-1
2.185822861E1;7.011367083E-1;1.323341179E1;-4.549582958E0
2.186866161E1;-4.426822662E-1;8.564795494E0;-7.064682961E0
2.188893661E1;9.115214348E-1;4.291503906E0;-9.097887039E0
2.190859261E1;1.144113302E0;1.247580528E0;-6.629544258E0
2.192852661E1;-7.339848280E-1;-1.948751926E0;-4.833459377E0
2.193854761E1;-3.502885103E-1;-2.867084503E0;-2.929452896E0
2.194863261E1;8.351264596E-1;-1.773031235E0;-1.123409510E0
2.195894761E1;2.866459489E-1;2.440595627E-1;-7.158691883E-1
2.197849161E1;-1.426291466E-2;-5.306024551E-1;1.858472824E-2
2.199852661E1;-1.921359539E0;-2.612740517E0;-1.240760088E0
2.201869861E1;-3.639758587E0;-3.447216511E0;-2.531626225E0
2.202894861E1;-3.598165035E0;-3.579635620E0;-1.819870472E0
2.203902261E1;-3.506334782E0;-3.587429523E0;-1.688461065E0
2.205825561E1;-3.282127142E0;-3.524394989E0;-1.503165960E0
2.206877261E1;-3.211608171E0;-3.657750130E0;-1.817256451E0
2.208847761E1;-2.235607862E0;-3.292587280E0;-1.144158840E0
2.209855861E1;-1.542938948E0;-3.006932735E0;-1.158386230E0
2.212170261E1;1.445871830E0;-2.134105206E0;1.675550938E0
2.214409061E1;3.660330772E0;-1.629287720E0;2.108247042E0
2.215851561E1;4.184270859E0;-8.418626785E-1;1.409724951E0
2.217037261E1;3.904820919E0;6.954565048E-1;9.609756470E-1
2.218829761E1;4.319931030E0;5.534549713E0;5.585072041E-1
2.219953761E1;2.665120602E0;7.721571922E0;1.692600250E-1
2.221845761E1;-2.745212317E-1;6.125207901E0;2.167028189E0
2.223847561E1;-6.906099319E-1;5.802703857E0;9.221660614E0
2.224856061E1;1.431468129E0;9.052841187E0;1.508706665E1
2.225918361E1;2.520815372E0;8.562306404E0;1.052195358E1
2.227837161E1;-2.809561253E0;3.738821983E0;-6.904935837E0
2.228870761E1;-4.164464474E0;1.463291168E0;-3.420644999E0
2.230906161E1;8.405433893E-1;8.603811264E-1;-5.204311371E0
2.231930861E1;2.229249477E-2;2.062757492E0;-1.032715321E0
2.233858161E1;-1.509285688E0;7.404031754E-1;-3.058626652E0
2.235853261E1;-2.937347412E0;-3.422905445E0;-3.954992294E-1
2.236860161E1;-3.648180485E0;-2.849854469E0;-8.440327644E-1
2.238853961E1;-5.162178040E0;-9.286727905E-1;-1.548501372E0
2.239862761E1;-4.720001698E0;8.656377792E-1;-1.257119656E0
2.240917461E1;-4.340972424E0;1.721039772E0;-2.933597565E-1
2.242865461E1;-1.744204640E0;2.503251076E0;2.016102791E0
2.244858361E1;-2.607606888E0;-1.717392921E0;7.694656849E-1
2.245976661E1;-1.321413517E0;-2.872280121E0;-1.695649624E-1
2.247951961E1;4.153501987E-1;-3.010906219E0;1.828327656E0
2.249852661E1;-2.201533318E-1;-1.226255417E0;3.647048950E0
2.250978661E1;-2.790038586E-1;-1.256895065E-1;-1.927256942E0
2.252826961E1;-1.954510212E-1;-1.892860413E0;5.146639347E-1
2.253910561E1;2.376470566E0;-3.569575310E0;1.196207762E0
2.255898261E1;2.859067440E0;-3.286006927E0;9.994862080E-1
2.257858061E1;3.605504036E0;-2.042914391E0;4.006073475E-1
2.259844861E1;3.331657648E0;-8.106293678E-1;4.885317683E-1
2.260916461E1;2.877087593E0;-2.826395035E-1;-4.164555073E-1
2.261978961E1;2.608511925E0;6.915359497E-1;-1.226225138E0
2.263844361E1;9.865779877E-1;7.975578308E-1;-5.522773266E-1
2.264851361E1;4.205658436E-1;4.588823318E-1;4.334013462E-1
2.265881861E1;6.842284203E-1;2.955474854E-1;1.012469053E0
2.267859161E1;7.495546341E-1;-2.863836288E-1;1.344255924E0
2.269902961E1;6.663131714E-2;-1.344407082E0;1.439120293E0
2.270913861E1;-7.027907372E-1;-1.986382484E0;2.345144749E0
2.272859461E1;-1.152210236E0;-6.622953415E-1;3.769431591E0
2.273895761E1;-7.918305397E-1;1.041470528E0;3.227261066E0
2.276054761E1;4.260890484E-1;3.853277206E0;2.047787666E0
2.277900461E1;1.345180035E0;3.964033127E0;2.317394495E0
2.279868661E1;2.064863443E0;7.829093933E-1;9.100486040E-1
2.281847061E1;3.001627684E0;-7.487792969E-1;5.555705354E-2
2.282853961E1;2.937304974E0;-1.569149017E0;-1.834142059E-1
2.284854561E1;1.860812664E0;-2.279035091E0;1.974395633E0
2.285988361E1;2.986466885E-1;-2.637179852E0;3.052412510E0
2.287849661E1;-1.821608543E0;-1.941812515E0;3.102301598E0
2.288877561E1;-3.018219233E0;-1.100001335E0;2.918635368E0
2.291088061E1;-4.878167152E0;2.619734764E0;1.853181601E0
2.292878661E1;-3.221280813E0;1.001360798E1;-6.501357555E-1
2.294847761E1;-2.919569016E-1;8.131073952E0;-7.461858749E0
2.295871661E1;-7.445440292E-1;5.166503906E0;-8.746052742E0
2.297844561E1;2.124847174E-1;3.137827873E0;-7.483735085E0
2.298864361E1;1.694202423E-3;1.200196266E0;-7.428263664E0
2.299873961E1;6.227171421E-2;-3.205490112E-1;-5.818535805E0
2.300886861E1;-2.620202303E-1;-1.696834087E0;-3.947113752E0
2.302935461E1;5.651953220E-1;-1.390806198E0;-3.380868435E-1
2.304865161E1;1.230786085E0;-4.173870087E-1;1.407831669E0
2.305873061E1;1.091547370E0;4.314985275E-1;5.660898685E-1
2.307908061E1;-1.383671999E0;-1.648518562E0;-3.604910374E-1
2.309859261E1;-3.286957264E0;-2.732762814E0;-3.066103935E0
2.310891161E1;-3.023952484E0;-3.024604797E0;-3.076899767E0
2.312912661E1;-2.561692953E0;-4.134844303E0;-1.304351807E0
2.314903561E1;-2.344454765E0;-4.392707348E0;-8.299047947E-1
2.315943961E1;-2.111902475E0;-4.449082375E0;-2.563562393E-1
2.317864161E1;-9.625794888E-1;-4.548455715E0;3.076548576E-1
2.319847661E1;1.231718540E0;-4.366960526E0;1.948410988E0
2.320861861E1;2.250951529E0;-4.589040279E0;2.495992899E0
2.321872661E1;3.163793087E0;-4.049097061E0;2.873023033E0
2.323936661E1;4.713624954E0;-1.798352242E0;2.051803112E0
2.325891461E1;3.992322922E0;2.043306351E0;2.102524042E0
2.327846761E1;2.632391930E0;8.891706467E0;-2.660465240E-1
2.328863261E1;-4.648089409E-2;9.952887535E0;-1.580748916E0
2.329865161E1;-1.292288780E0;8.616157532E0;-3.273421288E0
2.330967261E1;2.321863890E0;5.864065170E0;1.848513603E1
2.332869461E1;9.428028464E-1;6.638435364E0;4.445989132E-1
2.334873161E1;-4.760957241E0;6.991424561E-1;1.620287180E0
2.335899961E1;-5.007966995E0;-1.522921562E0;-8.996860981E-1
2.336925061E1;-4.697784424E0;-1.205036163E0;-7.720734596E0
2.338840361E1;-1.311288595E0;7.619914055E0;-2.945279121E0
2.339851661E1;-2.377078533E0;7.408365250E0;-4.445307255E-1
2.340857561E1;-2.676815510E0;2.459051132E0;9.275443554E-1
2.341872361E1;-3.125330448E0;-8.611526489E-1;2.049748898E-1
2.343856261E1;-3.896760225E0;-3.044455528E0;-1.126597643E0
2.345860561E1;-4.919181824E0;-2.486417294E0;-1.968321323E0
2.346866961E1;-5.537364006E0;-1.534317017E0;-9.117407799E-1
2.348873461E1;-3.313768864E0;1.307996750E0;1.201722622E-1
2.349890261E1;-2.261984348E0;1.155433655E0;3.128075600E-1
2.352007561E1;2.341948986E0;-1.240015984E0;1.783753872E0
2.353844861E1;2.914889574E0;-3.307339191E0;1.867895365E0
2.354878561E1;2.610011816E0;-3.271132469E0;2.708014965E0
2.355887361E1;1.570571780E0;-2.699407578E0;1.334322691E-1
2.357864861E1;8.491349220E-1;3.049192429E-1;-6.519172192E-1
2.358884361E1;2.424118519E-1;-2.827997208E-1;6.276853085E-1
2.359910161E1;-3.388559818E-1;-1.936368942E0;1.444156647E0
2.361844461E1;1.771540880E0;-3.903123856E0;2.428655863E0
2.362885661E1;3.056752205E0;-3.650728703E0;1.066292405E0
2.364850761E1;2.934031010E0;-2.694813728E0;-1.085989475E-1
2.365861761E1;3.338834763E0;-2.006174564E0;-1.942675710E-1
2.366898061E1;3.215973377E0;-1.442171574E0;-6.046487093E-1
2.368865561E1;2.231317997E0;1.493988037E-1;-9.495756626E-1
2.369901261E1;1.563973188E0;9.250030518E-1;-1.575475335E0
2.371952261E1;-1.711302757E0;-6.315746307E-1;8.861901164E-1
2.373850361E1;-8.119835854E-1;-7.752447128E-1;2.145702600E0
2.374865961E1;-4.182176590E-1;-7.886400223E-1;2.473646402E0
2.375889161E1;-4.539728165E-1;-1.431694508E0;3.011490583E0
2.376912561E1;-9.615397453E-1;-1.574525833E0;3.673114538E0
2.378910461E1;-1.804281712E0;3.271484375E-1;4.163248539E0
2.381424861E1;-1.194754601E0;2.096569061E0;2.001844406E0
2.382848961E1;-1.832485199E-3;2.583901405E0;2.233974934E0
2.383874261E1;3.412644863E-1;3.335676193E0;2.527171612E0
2.386057061E1;1.461125612E0;1.890317917E0;3.842572689E0
2.387364461E1;3.842789650E0;-8.627824783E-1;1.631731987E0
2.388868261E1;4.598230362E0;-1.531769276E0;1.365076065E0
2.390917661E1;2.328671694E0;-3.109014511E0;1.453867316E0
2.392860261E1;-2.275805473E-1;-2.385083199E0;2.572306633E0
2.394904161E1;-3.079540491E0;1.387880325E0;2.039395094E0
2.395943561E1;-4.404216290E0;3.722522736E0;3.848363161E-1
2.397861961E1;-4.422388077E0;1.012349510E1;-2.614477873E-1
2.398941761E1;-2.101904392E0;1.277154064E1;-1.842622995E0
2.400929361E1;8.980399370E-1;9.961565971E0;-6.196141243E0
2.402891161E1;5.035173893E-2;3.335834503E0;-8.567255974E0
2.404932761E1;8.423662186E-2;2.519841194E0;-5.565884590E0
2.406870561E1;-6.753425598E-1;-5.363225937E-1;-4.211846352E0
2.408872461E1;7.178734541E-1;-2.023379803E0;-2.871327400E0
2.409912461E1;9.632890224E-1;-1.643195152E0;-1.971796274E0
2.411846261E1;3.199251890E-1;-6.842250824E-1;-8.423376083E-1
2.412873161E1;1.315993071E-2;-1.532441139E0;-1.026465893E0
2.413893561E1;-4.844710231E-1;-2.439328671E0;-1.481664896E0
2.415928261E1;-3.268301964E0;-4.510089874E0;-1.620184660E0
2.416944361E1;-3.715025187E0;-4.875125885E0;-1.581996679E0
2.418264661E1;-3.703350544E0;-5.079074383E0;-1.307057619E0
2.419856761E1;-3.342290401E0;-5.541983604E0;-1.369414330E0
2.420996161E1;-2.884068489E0;-5.579134941E0;-1.561020613E0
2.422822461E1;-1.473108292E0;-4.563966274E0;-9.376463890E-1
2.423854061E1;-3.275471926E-1;-4.152143955E0;-5.333547592E-1
2.424872161E1;6.670297980E-1;-3.846185207E0;4.182703495E-1
2.426857961E1;2.441332817E0;-2.937856197E0;1.329362869E0
2.427886861E1;3.069453239E0;-2.523992062E0;1.627589226E0
2.429211261E1;3.605451584E0;-1.775299072E0;1.787711620E0
2.430862861E1;2.647436142E0;2.282226562E0;7.965526581E-1
2.431894661E1;2.715471745E0;5.087291718E0;-4.868640900E-1
2.433838761E1;-8.874254227E-1;9.985971451E0;-1.784660459E0
2.434857761E1;-1.199590683E0;9.569971085E0;-1.747071743E-1
2.435931961E1;-1.129453421E0;7.441153526E0;2.490708113E0
2.437866061E1;2.205602169E0;5.219688416E0;1.170209789E1
2.438924961E1;3.531191349E0;7.167347908E0;1.733444786E1
2.441006661E1;-5.607485771E-1;6.693989754E0;-3.500876427E0
2.442862061E1;-5.554150581E0;1.343666077E0;-3.971101522E0
2.444975261E1;-9.260004759E-1;2.027935028E0;-6.974391460E0
2.446851061E1;-1.877931595E0;2.852958679E0;-3.977279663E-1
2.448852761E1;-2.232176304E0;-1.828538895E0;-6.637444496E-1
2.449857861E1;-2.735757828E0;-3.331826687E0;-3.448271751E-1
2.450863561E1;-3.632230282E0;-3.255961418E0;-1.051827431E0
2.451885961E1;-4.832380295E0;-2.735860348E0;-1.653637648E0
2.454002561E1;-5.899790287E0;-2.389221191E-1;-3.581938744E-1
2.455858361E1;-2.440053940E0;2.169751167E0;6.400580406E-1
2.456858661E1;-1.692310452E0;2.168222427E0;3.046955824E0
2.457893261E1;-7.634530067E-1;3.774147034E-1;3.055913687E0
2.459852361E1;8.040682077E-1;-2.203846931E0;1.103142262E0
2.461870161E1;1.582511783E0;-2.332145214E0;2.151562452E0
2.463842061E1;9.061553478E-1;-1.359182835E0;4.759347916E0
2.464920461E1;1.173717022E0;-4.994106293E-2;-4.199964523E0
2.465961961E1;1.489286304E0;1.903610229E-1;-3.074483395E0
2.467855361E1;9.121348858E-1;-3.078706741E0;7.016764879E-1
2.468883461E1;2.181400299E0;-3.574614525E0;1.278268218E0
2.470878461E1;3.349606276E0;-2.534845829E0;6.807370186E-1
2.472877961E1;4.130116463E0;-1.435378551E0;1.979039907E-1
2.473886261E1;3.772534370E0;-4.205932617E-1;-5.558756590E-1
2.475935261E1;2.165421009E0;7.759246826E-1;-1.378845692E0
2.477869961E1;8.073806763E-3;5.158424377E-1;-4.335515797E-1
2.479818461E1;-7.005262375E-1;2.384185791E-3;5.710650086E-1
2.480853861E1;-1.843981743E-1;-5.734062195E-2;1.331807375E0
2.482230361E1;2.450239658E-1;-4.042634964E-1;2.249840975E0
2.483869761E1;-1.734189987E-1;-1.478789330E0;3.741900682E0
2.485913161E1;-3.812432289E-1;-5.682458878E-1;4.533559799E0
2.487857161E1;-4.944257736E-1;2.119189262E0;2.794086695E0
2.488907061E1;-5.357184410E-1;2.713225365E0;2.104882717E0
2.490011761E1;-2.866702080E-1;2.799302101E0;1.614426136E0
2.491872861E1;2.751765251E-1;2.382139206E0;1.892765522E0
2.492951961E1;1.248387575E0;8.937454224E-1;1.418906450E0
2.495174261E1;3.345664740E0;-5.952777863E-1;1.372905135E0
2.496917861E1;3.861010313E0;-1.765740395E0;1.265995622E0
2.497983761E1;3.505780697E0;-2.207760334E0;1.963572025E0
2.499937961E1;5.094637871E-1;-2.841006756E0;3.591959238E0
2.500944561E1;-8.591103554E-1;-2.358002186E0;3.513710976E0
2.502857961E1;-3.726364374E0;7.161874771E-1;2.076671839E0
2.504857161E1;-4.949326038E0;6.076310158E0;1.363588929E0
2.505965761E1;-4.319030762E0;8.714820862E0;1.050675154E0
2.507858661E1;6.535208225E-1;1.178343105E1;-4.063491821E0
2.509864161E1;-6.450401545E-1;4.472789764E0;-7.966339111E0
2.510891661E1;-6.384850740E-1;4.084322929E0;-8.228901863E0
2.512887561E1;-2.445021152E0;9.411602020E-1;-5.156954288E0
2.513906561E1;-3.627508879E0;-1.291304111E0;-3.685898066E0
2.515850961E1;-3.616143465E-1;-1.785234451E0;-2.084617853E0
2.516939161E1;-1.830451488E-1;-1.773408890E0;-1.453662157E0
2.518930661E1;9.074600339E-1;-5.923967361E-1;-3.852009773E-2
2.520982761E1;1.076978445E-1;-7.456684113E-1;-9.659225941E-1
2.522869361E1;-2.398768663E0;-2.783908367E0;-2.783954620E0
2.524859361E1;-3.344390392E0;-4.288271427E0;-2.738280296E0
2.525887061E1;-3.187694550E0;-4.254771709E0;-2.279708385E0
2.527851161E1;-3.114511490E0;-4.212954044E0;-1.905565977E0
2.529844161E1;-1.826059103E0;-4.518459797E0;-1.177871227E0
2.530886961E1;-1.292973757E0;-4.564576149E0;-7.184159756E-1
2.531894861E1;-6.524130106E-1;-4.424108505E0;-4.200396538E-1
2.533848961E1;5.899205208E-1;-3.983540535E0;1.102278709E0
2.534892961E1;1.300595760E0;-3.714769840E0;1.683786154E0
2.536896561E1;3.073913574E0;-2.239688873E0;1.908718109E0
2.537931661E1;3.904904366E0;-8.060178757E-1;1.878035784E0
2.539873761E1;3.430036783E0;2.952600479E0;6.292226315E-1
2.540895161E1;4.302866936E0;5.509761810E0;2.201180458E-1
2.542945061E1;3.645974398E-1;9.012344360E0;-3.458580971E-1
2.544863061E1;3.869125843E-1;5.399924278E0;-1.676916122E0
2.545957961E1;1.930215240E0;4.499926567E0;1.104679680E1
2.547885561E1;5.051159859E0;7.805198669E0;1.230284023E1
2.548893161E1;-3.990860939E0;3.360384941E0;-5.894934654E0
2.549957061E1;-6.606201649E0;7.136688232E-1;-9.027888775E-1
2.551959361E1;-4.443521500E0;2.863937378E0;-7.431748390E0
2.553841861E1;-3.477369785E0;5.443696976E0;-1.978409290E-1
2.554853461E1;-2.402541637E0;1.598280907E0;-2.290303707E-1
2.555916961E1;-2.090160370E0;-1.894001484E0;1.060361385E0
2.556921061E1;-2.828098774E0;-3.546343327E0;6.628801823E-1
2.558868761E1;-3.039460182E0;-3.012968540E0;-2.012518167E0
2.560936661E1;-4.447596550E0;-5.902376175E-1;-1.772819281E0
2.562862161E1;-4.025101662E0;2.650888443E0;-1.151849508E0
2.563886961E1;-2.721969843E0;2.958442688E0;4.445281029E-1
2.565883761E1;3.853271008E-1;7.954034805E-1;2.332169771E0
2.567857161E1;7.255671024E-1;-2.879407406E0;-2.627840042E-1
2.568884061E1;1.029423237E0;-4.479568481E0;2.006350279E0
2.570830661E1;6.977891922E-2;-2.666307449E0;8.306791782E-1
2.571880261E1;5.147101879E-1;-1.113967896E-1;-1.929425001E-1
2.572884961E1;3.538291454E-1;9.915046692E-1;-5.295014381E-2
2.574889661E1;2.306754589E-1;-1.419726372E0;9.670529366E-1
2.575995461E1;1.594664574E0;-2.264698029E0;2.056131363E0
2.577864261E1;3.601337194E0;-3.343250751E0;1.922715306E0
2.578879161E1;3.780065298E0;-3.041823387E0;1.386633277E0
2.580876461E1;4.878160954E0;-2.099381924E0;8.660428524E-1
2.582872261E1;3.122016430E0;-6.719923019E-1;-1.197666645E0
2.583904261E1;2.802476645E0;5.610494614E-1;-1.392428160E0
2.585864861E1;1.519099951E0;7.985181808E-1;-8.038432598E-1
2.586966061E1;-4.570670128E-1;-4.706630707E-1;1.349053383E-1
2.588919561E1;-4.342417717E-1;-8.212642670E-1;1.140859365E0
2.590873361E1;-2.189288139E-1;-1.948346138E0;2.258126259E0
2.592927361E1;-1.107464790E0;-7.433557510E-1;4.063314915E0
2.594865161E1;-9.718196392E-1;2.809617043E0;3.928151369E0
2.595893461E1;-9.960672855E-1;3.474634171E0;3.255474806E0
2.597863361E1;-1.141886234E0;3.126536369E0;2.412855625E0
2.598866761E1;-5.365118980E-1;3.081727028E0;1.929656982E0
2.600860661E1;1.492363214E0;1.157167435E0;1.681693435E0
2.601866761E1;2.960555077E0;3.229427338E-1;8.559902906E-1
2.602911561E1;3.964566946E0;-7.460851669E-1;9.408662915E-1
2.604863661E1;4.354696274E0;-2.012558460E0;2.637093961E-1
2.605915661E1;3.097155809E0;-2.340340137E0;8.120183945E-1
2.607851361E1;-1.376169682E0;-3.382881641E0;2.543573380E0
2.608938961E1;-2.199738026E0;-1.792100906E0;3.050132990E0
2.611061061E1;-4.262449265E0;3.024642944E0;1.220925450E0
2.612951961E1;-3.527130127E0;9.151627541E0;1.346573710E0
2.614894461E1;1.099187016E0;1.196793747E1;-2.340387583E0
2.616860961E1;3.920823336E-1;6.906022072E0;-8.183727264E0
2.618863761E1;-1.238555431E0;3.761782646E0;-9.518224716E0
2.619895961E1;-8.499521017E-1;3.369533539E0;-7.048438549E0
2.621856261E1;-9.300074577E-1;1.319961548E-1;-3.630581141E0
2.622931861E1;-2.489280701E-1;-7.847986221E-1;-3.750705242E0
2.624900561E1;-7.662534714E-3;-1.834662914E0;-1.673352242E0
2.625930361E1;-7.078611851E-2;-1.898638725E0;-1.671319962E0
2.627855461E1;-4.193601012E-1;-2.873153687E-1;-3.345394135E-2
2.628892561E1;-1.063610554E0;-1.775649548E0;-3.433306217E-1
2.630892161E1;-2.369183302E0;-4.066923141E0;-2.674520731E0
2.632852061E1;-2.844463348E0;-4.242018223E0;-2.143158913E0
2.633853061E1;-2.774880409E0;-4.308782578E0;-1.629333019E0
2.634956061E1;-2.667681217E0;-4.651698112E0;-1.429917097E0
2.636885461E1;-2.200648785E0;-4.954059601E0;-1.565827131E0
2.638858361E1;-9.854405522E-1;-4.550066948E0;-1.255695820E0
2.639870961E1;-1.497849226E-1;-4.329518795E0;-1.138667345E0
2.640952361E1;6.367712617E-1;-3.908732414E0;-1.991968155E-1
2.642934461E1;1.944417238E0;-3.041142941E0;1.519411087E0
2.644849861E1;3.209284782E0;-1.558454037E0;2.685850859E0
2.645855961E1;3.856214762E0;-1.979351044E-1;2.055294037E0
2.646864161E1;4.810636520E0;2.335450172E0;1.304903030E-1
2.648889161E1;3.625966311E0;7.161518097E0;-8.531370163E-1
2.650860661E1;-8.486683369E-1;6.735092163E0;3.166086674E-1
2.652872961E1;6.430045962E-1;5.481776237E0;1.493522739E1
2.654849861E1;2.924067020E0;9.446951866E0;1.028831673E1
2.655860061E1;-9.729087353E-3;7.712730408E0;-4.156541348E0
2.657847861E1;-6.407202244E0;-4.522218704E-1;-5.586385727E-1
2.658919761E1;-4.894635677E0;-6.799697876E-2;-7.884961605E0
2.660976861E1;-3.784335613E0;3.695445061E0;-3.773579597E-1
2.662910361E1;-2.947961569E0;-1.360869884E0;1.881630421E0
2.664854261E1;-3.471656799E0;-3.330092430E0;-1.186553717E0
2.665857661E1;-3.822887421E0;-2.703821182E0;-2.797458649E0
2.667838161E1;-5.014238358E0;3.105338097E0;-2.998175621E-1
2.668900761E1;-4.753232956E0;4.798105240E0;3.231027126E-1
2.670896361E1;-6.873669624E-1;3.467019081E0;2.116971016E-1
2.671900161E1;4.196764231E-1;1.416798592E0;-1.319446564E0
2.672973761E1;9.171893597E-1;-5.000658035E-1;-2.009616613E0
2.674843161E1;-3.861880302E-2;-4.207554817E0;-2.365779877E-2
2.675980961E1;5.103659630E-1;-5.061992645E0;1.388628244E0
2.677817861E1;1.909411669E0;-3.125327587E0;8.570282459E-1
2.678919461E1;-2.484784126E-1;-1.629326820E0;1.461191177E0
2.680965161E1;-8.616917133E-1;1.289033890E0;4.743504524E-2
2.682873161E1;-7.584557533E-1;-2.055367947E0;6.737556458E-1
2.683889461E1;4.209656715E-1;-3.231219292E0;5.304722786E-1
2.685945261E1;2.831703186E0;-3.588321686E0;9.898738861E-1
2.687904061E1;3.002794266E0;-2.101281166E0;-1.321282983E-1
2.688931961E1;2.580425739E0;-1.496080875E0;-6.320821047E-1
2.690884461E1;1.626049995E0;-5.860214233E-1;-7.258300781E-1
2.692947061E1;-3.428931236E-1;-6.408367157E-1;-3.368716538E-1
2.694850561E1;-4.664373398E-1;3.722572327E-2;2.096387744E-2
2.695857961E1;-3.264064789E-1;5.641078949E-2;1.082329392E0
2.697855561E1;8.784987926E-1;-2.164695740E0;2.350997925E0
2.698904961E1;5.359411240E-2;-2.335137844E0;2.634480000E0
2.700995061E1;1.935863495E-1;5.075006485E-1;4.280729771E0
2.702874161E1;1.146405220E0;3.645558357E0;4.051503658E0
2.704848361E1;3.962981701E-1;3.423428535E0;3.260335684E0
2.705854361E1;1.488065720E-1;3.047187805E0;7.426859140E-1
2.708091861E1;8.769354820E-1;1.485195160E-1;1.366294146E0
2.709862261E1;3.390681267E0;-8.365354538E-1;1.148998260E0
2.710889561E1;3.981366873E0;-9.797925949E-1;1.714709520E0
2.712929561E1;2.931003571E0;-2.359182358E0;2.294672012E0
2.714875361E1;1.428234577E0;-3.714484692E0;2.030947685E0
2.715927861E1;4.190568924E-1;-3.335147381E0;2.574688673E0
2.717858161E1;-3.785367727E0;4.055089951E-1;2.619904518E0
2.718891261E1;-5.487232685E0;3.287547112E0;1.932074666E0
2.720955561E1;-5.035551071E0;9.866436958E0;7.080641985E-1
2.722855761E1;6.547594070E-2;1.434303951E1;-4.702502728E0
2.723925661E1;-1.233388901E0;5.611887932E0;-8.644187927E0
2.725908661E1;-3.339633942E-1;2.763788223E0;-8.035909653E0
2.727869461E1;-1.119463921E0;3.665065765E-1;-4.626072884E0
2.728918661E1;-1.354105234E0;-1.026461601E0;-3.727405548E0
2.730898161E1;5.318344235E-1;-1.214512825E0;-1.986574769E0
2.731903461E1;1.023494482E0;-9.998955727E-1;-7.275812626E-1
2.733933761E1;1.200147986E0;3.663902283E-1;-6.351590157E-2
2.735846861E1;2.525162697E-2;-3.735370636E-1;-8.932318687E-1
2.737006461E1;-1.446455956E0;-1.801922321E0;-1.197859526E0
2.738851461E1;-3.633423328E0;-3.646426201E0;-2.114066124E0
2.740855361E1;-3.420804024E0;-4.466522217E0;-2.015700817E0
2.742854061E1;-3.232319593E0;-4.955043793E0;-1.432166338E0
2.744849861E1;-2.441137552E0;-4.994307041E0;-5.082857609E-1
2.745892561E1;-1.645239830E0;-4.455333710E0;2.964174747E-1
2.747897061E1;-2.068365812E-1;-3.663750648E0;7.867901325E-1
2.749848561E1;1.198052764E0;-3.280630589E0;2.193345547E0
2.750919861E1;2.540220022E0;-2.772139549E0;2.855286598E0
2.752964861E1;3.761650562E0;-9.269447327E-1;1.774794817E0
2.754866261E1;3.846433640E0;2.923662186E0;9.965677261E-1
2.756902461E1;1.178617954E0;7.653148651E0;-1.217978835E0
2.758842961E1;-1.761990428E0;5.875520706E0;-3.186041832E0
2.759901061E1;2.383019924E-1;3.254254341E0;6.942994118E0
2.760906161E1;4.441806793E0;3.818566322E0;1.714881897E1
2.762844361E1;2.653048754E0;7.266463280E0;6.241873741E0
2.763854961E1;-1.206265688E0;5.111212730E0;-6.009914398E0
2.764877761E1;-5.415637970E0;4.554891586E-1;-1.388823986E0
2.766858061E1;-7.900518179E-1;2.546792984E0;-5.861415386E0
2.767858161E1;-7.589190006E-1;4.505940437E0;2.860253811E0
2.768888761E1;-1.113069415E0;4.049782753E0;-5.126678944E-1
2.770975861E1;-2.795310020E0;-1.065300941E0;2.462210655E-1
2.772909961E1;-3.226774931E0;-2.579770088E0;-1.043998957E0
2.773964861E1;-3.394361496E0;-1.611647606E0;-1.621788144E0
2.775917861E1;-5.190453053E0;7.395830154E-1;-7.678816319E-1
2.777869361E1;-3.363506556E0;3.595378876E0;1.393273830E0
2.778881561E1;-2.287910461E0;3.022753716E0;1.302998066E0
2.780894461E1;-1.515846252E0;-3.808155060E-1;-6.955465078E-1
2.781896061E1;-6.493213177E-1;-1.759023190E0;-1.581188440E0
2.783842561E1;5.340558290E-1;-3.476068497E0;3.028154373E-1
2.785886861E1;5.546736717E-1;-1.328181744E0;1.676027775E0
2.787824561E1;1.104559660E0;1.008791924E0;7.129613161E-1
2.788855961E1;4.886732101E-1;-6.729106903E-1;9.492045641E-1
2.790886861E1;9.772937298E-1;-3.309179306E0;9.174907207E-1
2.792874761E1;2.169611931E0;-3.758948326E0;7.927899361E-1
2.794918161E1;3.314549208E0;-2.564449310E0;5.326403379E-1
2.795925361E1;3.234457493E0;-2.055929661E0;1.378116012E-1
2.797849261E1;2.774357319E0;-1.038158417E0;-1.573879004E0
2.798868361E1;2.020677805E0;-3.752202988E-1;-2.121438026E0
2.800957661E1;-4.526786804E-1;-4.563703537E-1;-1.733144760E0
2.802851461E1;-1.351126194E0;-4.396600723E-1;3.531476855E-1
2.804859661E1;2.641267776E-1;-8.479866982E-1;2.756222248E0
2.805960461E1;1.458754539E-1;-1.241539955E0;3.284252644E0
2.807922161E1;-6.150221825E-1;4.838914871E-1;4.916043282E0
2.809850561E1;4.254498482E-1;2.046880722E0;3.752656221E0
2.810932961E1;7.856950760E-1;2.035095215E0;3.565823317E0
2.812242661E1;1.010713339E0;2.223917961E0;2.942670345E0
2.813860161E1;8.067631721E-1;2.810914993E0;2.121349335E0
2.815873061E1;2.175339937E0;5.500640869E-1;1.332184434E0
2.816899461E1;3.145322800E0;-2.015018463E-1;1.179841638E0
2.817946761E1;3.860697508E0;-5.710592270E-1;1.045704484E0
2.819165361E1;3.237273693E0;-1.646044731E0;1.862622857E0
2.820443061E1;6.184866428E-1;-2.623902321E0;3.574014187E0
2.821856461E1;4.108614922E-1;-2.677066803E0;3.206087351E0
2.823850561E1;-3.501359224E0;1.823351860E0;2.171120167E0
2.824872161E1;-4.924178123E0;3.273581505E0;1.684261918E0
2.825913261E1;-5.826826572E0;5.244738579E0;1.809745908E0
2.827853861E1;-1.333683014E0;1.195157146E1;-1.681009531E0
2.828861861E1;1.799917221E-1;1.264766407E1;-5.384889603E0
2.830833361E1;-1.383742332E0;5.509218216E0;-8.629278183E0
2.831922761E1;-1.692310572E0;3.340822220E0;-8.052978516E0
2.833845761E1;-1.205426812E0;1.070398331E0;-5.752724171E0
2.834880661E1;-1.421795487E0;-2.584819794E-1;-3.292302608E0
2.836056361E1;-1.921622157E0;-1.660660744E0;-2.616074562E0
2.837347611E1;9.334218502E-1;-1.783212185E0;-2.926169157E0
2.838856861E1;1.462567806E0;-1.330120564E0;-1.711442709E0
2.839890561E1;1.143427134E0;-8.243322372E-1;-6.128327847E-1
2.840996061E1;8.764572740E-1;2.114000320E-1;-1.293492556E0
2.842862961E1;-1.004823804E0;-1.720822811E0;-2.877608299E0
2.843869161E1;-2.275202751E0;-2.413335800E0;-3.415263891E0
2.844894061E1;-2.763105631E0;-2.599638462E0;-3.367345333E0
2.845989961E1;-2.640625954E0;-2.985458374E0;-2.778247356E0
2.847873061E1;-2.616847754E0;-4.111346722E0;-1.988807201E0
2.848891461E1;-2.339087963E0;-4.549832344E0;-1.989253044E0
2.850862561E1;-1.340472937E0;-4.579796791E0;-1.151538610E0
2.851866461E1;-6.784375906E-1;-4.377581120E0;-5.111806393E-1
2.853840261E1;7.768419385E-1;-3.495827675E0;1.175922632E0
2.854869261E1;1.912750006E0;-3.278811932E0;1.912741423E0
2.856850361E1;3.523272991E0;-2.578111172E0;2.708848715E0
2.857891161E1;4.569764137E0;-2.006062984E0;2.565593481E0
2.858990661E1;4.496685028E0;-1.047194481E0;2.235717297E0
2.860880861E1;5.059354305E0;2.854907036E0;1.800959349E0
2.862864061E1;2.405885458E-1;8.111515999E0;1.933838844E0
2.863872561E1;5.070686340E-1;6.135188103E0;-4.553413391E-1
2.864880761E1;2.216701984E0;4.038730621E0;4.766117573E0
2.866844161E1;6.033171177E0;6.148766518E0;1.416606140E1
2.868912261E1;-4.186491013E0;4.653639793E0;-9.348688126E0
2.870864361E1;-7.139909267E0;-8.045616150E-1;-3.594418049E0
2.872852761E1;-1.866288543E0;3.320246696E0;-3.784525633E0
2.873926561E1;6.090318561E-1;4.941168785E0;-1.313300371E0
2.875947461E1;-1.654457331E0;9.586782455E-1;2.320134878E0
2.877854161E1;-2.645255804E0;-7.981176376E-1;-6.166012287E-1
2.878874761E1;-3.086540699E0;-1.071574211E0;-2.882382631E0
2.880909261E1;-4.690865517E0;3.869390488E-1;2.023622990E-1
2.882057361E1;-5.051753044E0;1.284139633E0;1.011497974E-1
2.883553261E1;-2.903717518E0;1.027293205E0;-8.859136105E-1
2.884870061E1;-4.073352814E-1;-3.488082886E-1;7.191970348E-1
2.885940661E1;-3.261754513E-1;-1.517777443E0;1.794455290E0
2.887860361E1;3.496494293E-1;-3.501556873E0;2.515107632E0
2.889841761E1;1.135945201E0;-3.096710682E0;3.224419832E0
2.890914661E1;7.316687107E-1;-1.649837971E0;-8.748925924E-1
2.892860261E1;1.126370192E0;1.531918526E0;-4.050508738E-1
2.893885861E1;3.535654545E-1;4.477233887E-1;8.877344131E-1
2.895968061E1;7.149312496E-1;-3.300906181E0;3.010585308E-1
2.897855461E1;2.130061388E0;-4.189352036E0;9.522182941E-1
2.899895461E1;3.094843864E0;-2.703536510E0;4.153629541E-1
2.901866361E1;3.153901577E0;-1.696882248E-1;-7.576110959E-1
2.902898661E1;2.141177654E0;8.228893280E-1;-1.206937194E0
2.904853861E1;-3.681683540E-1;5.863494873E-1;-1.238499641E0
2.906854061E1;-4.235706329E-1;2.907066345E-1;7.865806222E-1
2.907870661E1;4.531233311E-1;4.956464767E-1;1.802688360E0
2.908933361E1;8.521797657E-1;-6.908512115E-2;2.310892820E0
2.910930661E1;3.333075047E-1;-1.034588337E0;3.951348782E0
2.912021861E1;-1.324791908E-1;-2.791891098E-1;4.765207767E0
2.913871161E1;8.490407467E-1;1.770413399E0;4.779658794E0
2.914935961E1;9.841277599E-1;2.266285896E0;3.977566957E0
2.915970961E1;7.407162189E-1;2.101655960E0;3.252719402E0
2.917862461E1;8.271725178E-1;2.204451561E0;1.933973074E0
2.919850061E1;1.686951160E0;1.233673096E-1;1.462670803E0
2.920940461E1;4.674464226E0;-1.447662354E0;9.271265268E-1
2.922857061E1;4.425200462E0;-1.853863716E0;1.517375588E0
2.924863061E1;1.161799669E0;-3.695807457E0;2.043870211E0
2.925884661E1;-5.674884319E-1;-3.604566097E0;2.821965218E0
2.927881061E1;-3.605549097E0;1.518645287E0;2.719278812E0
2.929857461E1;-6.724300385E0;8.281339645E0;1.713542223E0
2.930892661E1;-5.949491024E0;1.121544743E1;8.105424643E-1
2.931918961E1;-3.020508289E0;1.363506508E1;-1.797766209E0
2.933852961E1;-5.070822239E-1;9.939661980E0;-6.626015663E0
2.935910761E1;4.153562784E-1;4.004033089E0;-9.924946785E0
2.937871561E1;4.644644260E-2;1.579644203E0;-6.848450661E0
2.939855261E1;-9.224991798E-1;-1.327751160E0;-2.115762711E0
2.940858861E1;2.386248112E-2;-2.456992626E0;-1.881504059E0
2.942876261E1;3.235195279E-1;-9.428219795E-1;-4.675049782E-1
2.944926961E1;-1.523606181E-1;-1.312131882E-1;-4.003179073E-1
2.946913161E1;-2.002825260E0;-1.899209023E0;-2.173120499E0
2.948842861E1;-2.807138920E0;-3.048873425E0;-3.116517544E0
2.950900561E1;-2.695744276E0;-4.039712906E0;-1.692765474E0
2.951937761E1;-2.818688631E0;-4.469917297E0;-1.268232584E0
2.952939761E1;-2.591743946E0;-4.608025074E0;-1.358458042E0
2.954855261E1;-2.288964033E0;-4.920003891E0;-9.489741325E-1
2.955863561E1;-2.090342522E0;-4.754933357E0;-5.061650276E-1
2.956874561E1;-1.566587448E0;-4.429188728E0;-1.358985901E-1
2.958919661E1;-2.191152573E-1;-3.675827026E0;1.609859228E0
2.960929161E1;2.535060644E0;-3.179333687E0;1.861363649E0
2.962859361E1;3.347458839E0;-8.007392883E-1;1.562295675E0
2.963937161E1;2.555945396E0;1.317996025E0;1.961540937E0
2.965869761E1;4.286312580E0;8.030550003E0;1.249875307E0
2.967884961E1;5.595297813E-1;8.362887383E0;-1.419485211E0
2.969853961E1;6.161059737E-1;2.753691673E0;6.135495186E0
2.970912261E1;4.015650749E0;4.583085060E0;1.549762344E1
2.972861861E1;9.079293013E-1;8.299571991E0;3.667207956E0
2.973913061E1;-1.968865752E0;6.009373665E0;-4.534262657E0
2.975901561E1;-7.286802292E0;-6.557683945E-1;-5.489376068E0
2.977870061E1;8.084890246E-1;1.832110405E0;-2.364442587E0
2.978885161E1;5.016936660E-1;3.293607712E0;-2.584779263E-1
2.980915561E1;-2.695125341E0;-5.199403763E-1;1.631122589E0
2.982847161E1;-3.930781364E0;-9.680976868E-1;-1.415238619E0
2.983894361E1;-4.648900986E0;1.673679352E-1;-2.091308832E0
2.985861661E1;-6.496826172E0;3.488330841E0;-7.212414742E-1
2.986950561E1;-5.486330509E0;3.259857178E0;9.133880138E-1
2.988844461E1;-1.748793125E-1;1.042480469E0;2.293524742E-1
2.989861961E1;9.065008163E-2;-3.586597443E-1;8.900451660E-2
2.990924861E1;6.473755836E-2;-1.774326324E0;5.017518997E-3
2.992866561E1;4.106795788E-1;-4.043566227E0;5.548415184E-1
2.994870761E1;8.087011576E-1;-1.953332424E0;1.173860312E0
2.996930961E1;9.072346687E-1;3.309497833E-1;1.492335916E0
2.998891561E1;1.856510639E-1;-2.322650909E0;5.366576910E-1
2.999892661E1;1.012246609E0;-4.388751984E0;3.200483322E-2
3.001842861E1;2.124605417E0;-3.412152290E0;1.407043934E-1
3.002849661E1;2.687979460E0;-2.926939964E0;1.519862413E-1
3.003855761E1;2.974257946E0;-2.344525814E0;5.627131462E-2
3.005853061E1;2.673417091E0;-7.159337997E-1;-1.495357275E0
3.007028261E1;1.703778267E0;-8.726978302E-2;-1.944095850E0
3.008873861E1;-3.160715103E-1;-7.139797211E-1;-1.357003808E0
3.010899961E1;-4.582977295E-1;9.707546234E-2;5.764812231E-1
3.012176861E1;-2.159929276E-1;6.409282684E-1;1.763567448E0
3.014905361E1;-2.084083557E-1;-1.139656544E0;4.243597031E0
3.016006761E1;-4.322896004E-1;-4.318199158E-1;4.565588951E0
3.017021861E1;5.606069565E-1;1.992609978E0;4.017238617E0
3.018862661E1;4.080297947E-1;2.599415779E0;3.582535982E0
3.019925461E1;4.978671074E-1;3.233164787E0;2.402052402E0
3.021920061E1;4.335474968E-1;2.297609329E0;8.036966324E-1
3.023842961E1;2.794024944E0;5.980262756E-1;7.821493149E-1
3.024917961E1;3.512150049E0;-6.452093124E-1;2.732137144E-1
3.026848661E1;3.852170467E0;-1.668664932E0;5.267489552E-1
3.027860961E1;2.411586285E0;-2.224069595E0;1.884358883E0
3.028879161E1;5.497574806E-1;-2.502873421E0;2.656726837E0
3.030931561E1;-2.607052088E0;-1.980659962E0;3.086265564E0
3.032892261E1;-4.893358231E0;6.532316208E-1;1.263928533E0
3.034864861E1;-6.003687859E0;5.660898209E0;1.624369979E0
3.035889761E1;-3.910865068E0;9.572963715E0;-7.856023312E-2
3.037887561E1;9.950309992E-1;1.315140533E1;-4.988608360E0
3.039850161E1;-1.472496986E-1;2.519486427E0;-8.768632889E0
3.040894761E1;6.509830952E-1;9.321784973E-1;-8.358125687E0
3.041915861E1;9.150274396E-1;2.089729309E-1;-6.998118401E0
3.043871761E1;1.214184046E0;-1.979435921E0;-3.737849712E0
3.044899261E1;1.324612379E0;-2.385826111E0;-2.839320421E0
3.046906261E1;6.096891761E-1;-1.679536343E0;-3.925356865E-1
3.047934061E1;1.467773438E0;-3.806915283E-1;1.121459007E0
3.049861961E1;3.532826900E-3;-1.149607182E0;7.454736233E-1
3.050899661E1;-1.790658474E0;-2.158786297E0;-8.069770336E-1
3.052848061E1;-3.286703587E0;-3.061704636E0;-2.876628876E0
3.054906561E1;-3.215141296E0;-3.420575619E0;-1.864661694E0
3.055929361E1;-3.216258049E0;-3.819815159E0;-1.222445011E0
3.057923061E1;-2.859245300E0;-4.083772659E0;-5.401771069E-1
3.059853861E1;-8.263599277E-1;-4.113430023E0;6.215631962E-1
3.060905261E1;1.552308798E-1;-3.975940228E0;1.412799597E0
3.062953261E1;2.217975378E0;-4.050039768E0;2.503976583E0
3.064890661E1;4.141322613E0;-3.760851383E0;2.794510365E0
3.066874561E1;4.113322735E0;-1.366192341E0;1.363215685E0
3.068846661E1;5.378749847E0;3.175261497E0;1.104525328E0
3.070821861E1;7.981001139E-1;9.029991150E0;-2.826707602E0
3.071874161E1;-1.454539537E0;8.437174797E0;-1.420068979E0
3.073847761E1;1.180401683E0;3.597208023E0;1.047741222E1
3.074919761E1;5.707386017E0;6.384329796E0;1.736384201E1
3.076861561E1;-1.330757141E-1;7.938999176E0;2.336621284E-1
3.078881961E1;-7.928391457E0;-1.015311241E0;-8.556205750E0
3.079898461E1;-3.950259447E0;1.752484322E0;-7.449587345E0
3.080915161E1;-6.432950497E-3;4.919524193E0;-8.509848118E-1
3.082870261E1;-2.282453537E0;2.646086693E0;5.279932022E-1
3.084917861E1;-3.674396038E0;-3.629093170E-1;-6.699345112E-1
3.086897161E1;-4.155371666E0;-9.840526581E-1;-2.081279039E0
3.088854661E1;-5.728219032E0;1.454490662E0;-1.818592548E-1
3.089857861E1;-5.367177010E0;2.539372444E0;-5.146744251E-1
3.090881561E1;-3.219206810E0;2.729103088E0;-6.108126640E-1
3.091884061E1;-1.162737131E0;1.364532471E0;-8.301377296E-2
3.093857661E1;1.696676493E0;-1.368258476E0;6.010615826E-1
3.094860861E1;1.492852807E0;-2.616127968E0;1.005238056E0
3.095979161E1;1.059604883E0;-3.813882351E0;1.929067135E0
3.097854661E1;-7.422580719E-1;-2.526987076E0;-1.405255556E0
3.098856761E1;-5.436286926E-1;-5.772333145E-1;1.280164719E-2
3.099864761E1;-5.422606468E-1;1.706562042E-1;1.466217041E0
3.100872261E1;-1.626775742E0;-1.968499184E0;1.052885771E0
3.102832561E1;2.204115391E-1;-4.306839466E0;1.624737740E0
3.103869861E1;1.215576172E0;-4.549610615E0;1.230677009E0
3.105924361E1;2.513612747E0;-3.436067104E0;-7.625675201E-2
3.107949361E1;2.458070278E0;-2.186873436E0;-5.531763434E-1
3.109855861E1;1.863779783E0;-8.095741272E-2;-2.250459671E0
3.110920761E1;3.216347694E-1;-3.548622131E-3;-2.521235943E0
3.112859161E1;-1.242807388E0;-2.877988815E-1;-1.708604813E0
3.113926761E1;-6.827630997E-1;1.167840958E-1;-7.360884547E-2
3.115959361E1;4.960117340E-1;-6.124887466E-1;2.007489681E0
3.117860061E1;2.259182930E-1;-6.014928818E-1;4.557021618E0
3.118866961E1;2.362875938E-1;-1.433906555E-1;5.335678101E0
3.120876361E1;6.552991867E-1;1.587771416E0;4.119299889E0
3.122852861E1;7.532172203E-1;2.268589973E0;3.082306623E0
3.123904161E1;1.164951086E0;3.332040787E0;2.487480879E0
3.125951561E1;1.396080256E0;3.515736580E0;1.711544394E0
3.127853261E1;3.206197262E0;6.977539062E-1;6.851438284E-1
3.128970161E1;3.868236780E0;-3.178348541E-1;8.503215313E-1
3.130912461E1;3.951875210E0;-2.273731232E0;8.804355264E-1
3.131916561E1;2.868551016E0;-3.047041893E0;1.665653110E0
3.132918661E1;1.185540199E0;-3.485395908E0;2.168500423E0
3.134890361E1;-2.834842443E0;-3.015885830E0;1.729423165E0
3.136928761E1;-4.555336952E0;2.579880714E0;4.866682291E-1
3.138857461E1;-4.647423267E0;8.683173180E0;1.419487953E0
3.139913861E1;-2.305186987E0;1.230518723E1;-8.651485443E-1
3.140936961E1;1.043810844E0;1.481377411E1;-3.769225121E0
3.142853161E1;5.920288563E-1;8.670127869E0;-8.749758720E0
3.143909361E1;5.546760559E-2;5.160825729E0;-9.776878357E0
3.145984461E1;1.574309826E0;1.222688675E0;-6.960104465E0
3.147850061E1;4.261741638E-1;-2.096703529E0;-2.787571430E0
3.148853461E1;1.430840492E-1;-3.300949574E0;-2.187665462E0
3.149880561E1;1.320982933E0;-2.968105316E0;-2.606484890E0
3.150886561E1;2.061707973E0;-1.390507221E0;-1.243018627E0
3.152941261E1;1.004493356E0;2.850599289E-1;6.929073334E-1
3.154889861E1;-4.153937101E-1;-6.259880066E-1;-4.968354702E-1
3.156854861E1;-3.451789141E0;-2.873418808E0;-3.147628784E0
3.157857761E1;-3.249858141E0;-3.208619595E0;-2.583462238E0
3.158928261E1;-2.778126240E0;-3.458053589E0;-1.809155941E0
3.160955661E1;-2.255403996E0;-4.221273899E0;-1.595303059E0
3.162869761E1;-1.225057364E0;-4.465003490E0;-7.053027153E-1
3.163887661E1;-6.854691505E-1;-4.414123058E0;3.463006020E-2
3.165946361E1;8.908785582E-1;-3.703383923E0;1.140449047E0
3.167853261E1;2.284697056E0;-3.655055523E0;2.287834406E0
3.169887261E1;3.676981449E0;-2.720114708E0;2.565813780E0
3.171851561E1;3.758642197E0;2.788743973E-1;1.280928373E0
3.172885861E1;4.276094437E0;2.170986176E0;8.596169949E-1
3.173904361E1;3.422356606E0;4.716083527E0;-9.563717842E-1
3.175871961E1;-3.804984093E-1;6.677021027E0;-7.030199051E0
3.176905161E1;1.260937095E0;3.644358635E0;1.894970894E0
3.178897861E1;8.276597977E0;5.322652817E0;1.913493156E1
3.180863461E1;-1.131838799E0;5.466738701E0;-8.775526047E0
3.182886561E1;-8.006381989E0;1.543910980E0;-5.900028229E0
3.184862561E1;-4.292716980E0;5.633831978E0;-1.462977171E0
3.185893261E1;-9.631893635E-1;6.958046913E0;-9.097814560E-1
3.187887661E1;-2.089765072E0;1.981902122E0;2.695509195E0
3.189854061E1;-3.389022350E0;-1.945012569E0;-1.506867170E0
3.190917661E1;-3.729188442E0;-2.844096661E0;-2.823768139E0
3.192886961E1;-5.642745495E0;-1.655332565E0;-3.931522369E-3
3.194900561E1;-4.444735527E0;2.926344872E0;8.029384613E-1
3.196873661E1;-1.882545352E0;1.033525467E0;-2.220892906E-1
3.198155461E1;-8.827520609E-1;-5.782575607E-1;1.991548538E-1
3.199943761E1;9.155372381E-1;-3.385001183E0;1.414071321E0
3.201867461E1;9.000227451E-1;-3.423807144E0;1.747086287E0
3.202902561E1;2.127304077E-1;-1.983109474E0;2.371068001E-1
3.204904361E1;-7.772634029E-1;-7.873449326E-1;1.046321154E0
3.205923861E1;-1.290544987E0;-2.512454033E0;8.280085325E-1
3.207857861E1;1.281406164E0;-3.660072327E0;1.195932388E0
3.208863961E1;2.113465071E0;-3.846002102E0;1.340630293E0
3.210942861E1;3.022501469E0;-2.593458176E0;4.011257887E-1
3.212859761E1;3.013186455E0;-1.505748749E0;7.002103329E-2
3.213889961E1;2.770078182E0;-7.339849472E-1;-2.336439490E-1
3.215062461E1;2.215472460E0;8.579635620E-2;-8.351929784E-1
3.216362261E1;7.474834919E-1;-4.730987549E-1;-6.491407752E-2
3.217866261E1;1.012420416E0;-1.518449783E-1;9.886025190E-1
3.218889661E1;1.351087570E0;2.478446960E-1;2.016479015E0
3.220862961E1;1.088162661E0;-3.182954788E-1;2.325034142E0
3.222868361E1;-1.542167664E-1;-7.749509811E-1;3.800420523E0
3.224851461E1;-7.970571518E-2;2.832136154E-1;4.605669498E0
3.225894961E1;7.146227360E-1;1.070977211E0;4.543268204E0
3.227853661E1;1.358530998E0;2.192575455E0;3.175391436E0
3.229867861E1;7.370743752E-1;2.665806770E0;2.011128902E0
3.230870161E1;3.820722103E-1;1.883614540E0;1.992714047E0
3.232945561E1;2.484734058E0;-7.745685577E-1;8.147299290E-2
3.234853061E1;3.968801022E0;-2.171648026E0;5.889718533E-1
3.235950961E1;2.265753508E0;-3.525543213E0;1.246461987E0
3.237991961E1;-9.781024456E-1;-4.542015553E0;2.691988945E0
3.239855261E1;-3.427020550E0;-1.171297550E0;3.391154766E0
3.241116361E1;-4.719509125E0;2.404267311E0;2.168956757E0
3.242878361E1;-7.422579288E0;9.248133659E0;1.857352257E0
3.244881361E1;-1.504555702E0;1.359572124E1;-2.624835253E0
3.245933161E1;4.936734438E-1;1.319297981E1;-4.765845299E0
3.247906661E1;-7.050734758E-1;6.808392525E0;-8.013910294E0
3.248917661E1;6.477749348E-2;5.191011429E0;-9.419280052E0
3.250955661E1;9.039914012E-1;2.071339607E0;-7.282887459E0
3.252885961E1;-7.777488232E-2;-1.321379185E0;-3.579110146E0
3.254868861E1;5.787994266E-1;-1.737821102E0;-1.958814621E0
3.256854161E1;9.543763995E-1;3.627986908E-1;-1.237807274E-1
3.258859861E1;-1.336124063E0;-1.525421143E0;-1.489758492E-1
3.259918061E1;-3.324954033E0;-3.249468803E0;-9.379615784E-1
3.261850261E1;-4.196417809E0;-3.782562256E0;-2.552786350E0
3.262991561E1;-3.830311775E0;-3.498910904E0;-1.996324778E0
