"Time (s)";"Linear Acceleration x (m/s^2)";"Linear Acceleration y (m/s^2)";"Linear Acceleration z (m/s^2)"
7.654790400E-2;1.073348522E-2;1.006999016E-1;2.689027786E-1
9.545930900E-2;-9.113401175E-3;-5.957078934E-2;-1.734142303E-1
1.154619100E-1;-6.868273020E-3;-1.246418953E-1;-4.604473114E-1
1.256398440E-1;-5.856379867E-3;-6.341147423E-2;-2.249746323E-1
1.452405440E-1;7.638418674E-2;1.997683048E-1;6.250753403E-1
1.651022190E-1;5.800831318E-2;1.460716724E-1;4.866609573E-1
1.752094980E-1;2.154976130E-2;6.076121330E-2;2.088623047E-1
1.952142080E-1;6.992578506E-3;1.683497429E-2;5.142974854E-2
2.052719930E-1;2.907717228E-2;5.553865433E-2;1.573677063E-1
2.169733850E-1;1.049473286E-1;1.904897690E-1;5.924310684E-1
2.271520810E-1;2.766096592E-2;6.408953667E-2;2.299947739E-1
2.466248530E-1;2.485811710E-4;-9.006023407E-3;-4.285144806E-2
2.675687960E-1;-2.401471138E-3;-1.862502098E-2;-6.960105896E-2
2.775882870E-1;1.321673393E-3;6.711959839E-3;2.196121216E-2
2.949427780E-1;2.629888058E-2;1.120226383E-1;3.388481140E-1
3.050747780E-1;6.276959181E-2;2.148332596E-1;6.229677200E-1
3.156897780E-1;6.380593777E-2;1.879718304E-1;5.322303772E-1
3.353587780E-1;-2.951979637E-3;-9.760141373E-3;-3.043460846E-2
3.549957780E-1;-5.501568317E-2;3.401172161E-1;-1.285943985E-1
3.755327780E-1;1.803827286E-2;4.392492771E-2;2.282876968E-1
3.950627780E-1;2.888691425E-2;5.995225906E-2;2.416477203E-1
4.052997780E-1;1.729667187E-2;4.068493843E-2;1.511859894E-1
4.251427780E-1;1.469546556E-2;4.365515709E-2;1.682786942E-1
4.351457780E-1;8.336901665E-4;2.614736557E-3;1.048660278E-2
4.454257780E-1;-1.442623138E-2;-8.684611320E-2;-3.516578674E-1
4.654237780E-1;6.914928555E-3;-1.263749599E-1;-5.009450912E-1
4.759587780E-1;-1.502558589E-3;-3.395700455E-2;-1.283617020E-1
4.950057780E-1;-9.495139122E-3;-2.690839767E-2;-1.092758179E-1
5.057487780E-1;-8.582949638E-2;-1.775667667E-1;-7.570781708E-1
5.254697780E-1;4.946851730E-2;5.556488037E-2;2.267265320E-1
5.360167780E-1;9.402728081E-2;1.179046631E-1;4.811515808E-1
5.551667780E-1;-2.057951689E-2;-3.913938999E-2;-2.993211746E-1
5.652337780E-1;1.363158226E-3;2.156376839E-3;1.445484161E-2
5.852777780E-1;-1.388347149E-1;-2.763628960E-1;-6.375789642E-1
6.059827780E-1;-6.772875786E-3;-1.230597496E-2;-5.375289917E-2
6.168637780E-1;-1.363643408E-1;-2.184693813E-1;-7.845125198E-1
6.351737780E-1;-1.029279232E-1;-2.036213875E-1;-5.951309204E-1
6.454267780E-1;-8.900845051E-2;-2.080674171E-1;-6.446676254E-1
6.649947780E-1;-4.276680946E-2;-2.943089008E-1;-1.122737885E0
6.751117780E-1;-1.131096482E-2;-3.891334534E-1;-1.361554146E0
6.855017780E-1;-1.515077800E-2;-4.865419865E-1;-1.589728355E0
7.052337780E-1;-2.449727058E-1;-5.786476135E-1;-1.699317455E0
7.155047780E-1;-3.134788275E-1;-4.879474640E-1;-1.610957623E0
7.352507780E-1;3.020133972E-1;1.494848728E-1;8.772449493E-1
7.550837780E-1;2.350368500E-1;4.404711723E-2;4.581460953E-1
7.750447780E-1;2.677843571E-1;7.611334324E-2;7.132024765E-1
7.851797780E-1;-3.111109734E-1;-8.279311657E-2;-6.981887817E-1
8.052367780E-1;-3.806853294E-1;-1.286535263E-1;-7.393503189E-1
8.253407780E-1;-2.780797482E-1;-1.583863795E-2;-9.893932343E-1
8.354387780E-1;-1.774327755E-1;1.653014123E-2;-7.229394913E-1
8.553977780E-1;-7.222938538E-1;-1.646358371E-1;-1.517807961E0
8.657177780E-1;-7.203285694E-1;-1.615468860E-1;-1.587389946E0
8.867457780E-1;-4.005891085E-1;1.062410176E-1;-2.330051422E0
9.056657780E-1;4.331278801E-1;5.246050358E-1;-3.284535408E0
9.250917780E-1;-8.556276560E-3;3.832767010E-1;-3.842119694E0
9.353237780E-1;-3.051068485E-1;2.270619273E-1;-4.156232834E0
9.551167780E-1;-9.077460766E-1;-1.173854172E-1;-2.729205608E0
9.653557780E-1;-4.296052456E-1;-6.511217356E-2;-1.069044113E0
9.855537780E-1;4.161503315E-1;3.905075788E-2;1.311682701E0
1.005652778E0;8.273231983E-2;-1.447723806E-2;6.155538559E-1
1.025648778E0;-2.219743729E-1;-1.133222133E-2;-1.358036995E0
1.036713778E0;-8.946554661E-1;-2.354351282E-1;-2.468338013E0
1.055139778E0;-3.592448235E-1;-1.587131023E-1;-5.483703613E-1
1.075004778E0;-3.725924492E-1;-4.329342842E-1;1.178206444E0
1.095786778E0;-1.617000818E0;-1.550381184E0;3.022759438E0
1.115591778E0;-1.610746622E0;-1.391846895E0;4.194086075E0
1.135657778E0;-1.286925793E0;-7.621269822E-1;2.964753151E0
1.155021778E0;-3.811688423E-1;3.767547011E-1;1.647881508E0
1.165315778E0;-8.216667175E-2;6.182833910E-1;1.016203880E0
1.185364778E0;-2.109136581E-1;2.401999384E-1;1.973752975E-1
1.205059778E0;1.718338013E0;7.166817784E-1;2.668084145E0
1.216365778E0;1.889444828E0;7.352249622E-1;3.093491554E0
1.235104778E0;1.302141190E0;5.490562916E-1;2.280343056E0
1.255234778E0;5.956945419E-1;6.118012071E-1;2.170143127E-1
1.276759778E0;5.273756981E-1;1.019107819E0;-8.278408051E-1
1.295155778E0;5.470986366E-1;7.463132143E-1;7.790660858E-1
1.315088778E0;1.406681538E0;2.970500290E-1;2.308432579E0
1.325486778E0;1.902549267E0;3.753236234E-1;2.923986435E0
1.335898778E0;2.304078579E0;3.840634823E-1;3.156391621E0
1.355139778E0;2.314407349E0;-8.255743980E-2;2.131227493E0
1.375063778E0;2.484838009E0;1.009475589E-1;8.676552773E-1
1.385606778E0;2.363015652E0;1.721767187E-1;2.901897430E-1
1.405218778E0;2.167697430E0;5.851578712E-2;-4.364323616E-1
1.425459778E0;1.809009075E0;-4.496853948E-1;-1.315505028E0
1.445605778E0;1.054747581E0;-1.056826830E0;-1.139844418E0
1.456576778E0;6.943430901E-1;-1.408191681E0;-9.511675835E-1
1.476521778E0;8.177309036E-1;-1.380202055E0;-6.482648849E-1
1.487472778E0;1.256174088E0;-9.460663795E-1;-8.360357285E-1
1.500570778E0;1.713505745E0;-7.448496819E-1;-1.143138885E0
1.515117778E0;1.326450825E0;-8.606129885E-1;-1.372905254E0
1.525226778E0;7.566657066E-1;-9.752430916E-1;-1.736745358E0
1.536145778E0;1.531610489E-1;-1.116563439E0;-2.035608768E0
1.555105778E0;-4.414119720E-1;-1.516047835E0;-2.013950348E0
1.575377778E0;2.646651268E-1;-1.155941248E0;4.215097427E-2
1.595045778E0;1.229870796E0;-4.717379808E-1;2.412004471E-1
1.605132778E0;8.776865005E-1;-3.666374683E-1;-2.035093307E-2
1.615711778E0;1.010966301E0;-1.579884291E-1;-4.162216187E-1
1.635465778E0;3.616352081E-1;-3.804256916E-1;-1.191356421E0
1.655067778E0;-6.770534515E-1;-1.098960876E0;-1.356800079E0
1.675226778E0;-8.099312782E-1;-1.658006907E0;-5.511512756E-1
1.686866778E0;-5.475883484E-1;-1.347907543E0;7.737495899E-1
1.705301778E0;5.604238510E-1;-8.665568829E-1;1.998147249E0
1.729805778E0;-1.307439804E-1;-1.370528936E0;1.044853210E0
1.745089778E0;-9.139986038E-1;-1.921647549E0;-5.802092552E-1
1.755548778E0;-8.014545441E-1;-2.031418562E0;-1.110563517E0
1.775079778E0;-3.015108109E-1;-1.836745024E0;-2.124035358E-1
1.785410778E0;-5.178918839E-1;-1.695639133E0;-6.830160618E-1
1.805370778E0;9.505729675E-1;-5.902297497E-1;2.626967430E-2
1.825564778E0;1.052659035E0;-2.920615673E-1;1.596634388E-1
1.845074778E0;-5.807466507E-1;-6.497159004E-1;-1.110491157E0
1.855235778E0;-1.417171001E0;-1.022726774E0;-2.062706470E0
1.875218778E0;-3.223183632E0;-1.238903999E0;-1.649763346E0
1.887649778E0;-2.738481522E0;-6.456096172E-1;-9.166904688E-1
1.905163778E0;-1.081799507E0;1.571676731E-1;-1.372596502E0
1.925078778E0;6.776828766E-1;-5.824019909E-1;-1.274897218E0
1.937421778E0;2.501408577E0;-8.194320202E-1;6.408360004E-1
1.955096778E0;3.022484779E0;3.062615395E-1;4.003577709E0
1.975018778E0;1.601543427E0;-8.974590302E-1;1.258223295E0
1.985636778E0;-1.592128277E0;-1.448382378E0;-2.480213404E0
2.005086778E0;-2.571011543E0;-1.383670330E0;-2.488638163E0
2.025167778E0;-4.472341537E-1;-1.790208817E0;-1.494884372E0
2.035909778E0;1.355326653E0;-1.510858059E0;5.741995573E-2
2.046123778E0;1.375265121E0;-1.186870098E0;2.429243565E0
2.065134778E0;-2.205705643E-1;-1.729677200E0;1.946153998E0
2.085496778E0;-5.658054352E-2;-1.213568687E0;-4.281634688E-1
2.105530778E0;8.549718857E-1;-1.244543552E0;1.216495335E-1
2.115569778E0;1.659898758E0;-1.018740654E0;-4.716214538E-2
2.135028778E0;7.591824532E0;2.751331568E0;-2.811052799E0
2.155101778E0;3.924710274E0;-1.211113930E0;6.870277882E0
2.175051778E0;7.435722351E-1;-1.225461006E0;4.157037258E0
2.185802778E0;-6.928357601E0;-3.563827038E0;-6.559954882E-1
2.205080778E0;-1.226497650E1;-4.222373009E0;-6.694785118E0
2.215105778E0;-1.144078732E1;-3.087556839E0;-6.901504040E0
2.225172778E0;-8.147926331E0;-1.871630669E0;-3.902130127E0
2.235542778E0;-5.799576759E0;-1.200781822E0;-1.547834396E0
2.255167778E0;-1.017751217E0;8.954257965E-1;1.599764466E0
2.265188778E0;-1.156674385E0;8.121376038E-1;1.735571623E0
2.285139778E0;-1.852613926E0;8.777971268E-1;3.390706480E-1
2.305144778E0;-1.991968632E0;1.645314693E0;-1.334034443E0
2.315176778E0;-1.135124683E0;1.691413879E0;-1.265135050E0
2.335462778E0;-8.638310432E-1;1.426670551E0;-3.489484787E-1
2.355635778E0;1.169766426E0;4.722127914E-1;7.490016818E-1
2.375102778E0;3.230919838E0;1.055688858E0;7.526350617E-1
2.385484778E0;3.773000240E0;3.380823135E-2;2.868404388E0
2.405130778E0;3.048367500E0;8.727674484E-1;1.955797434E0
2.426042778E0;8.844532967E-1;6.519126892E-2;5.494856834E-2
2.445115778E0;-1.788171768E0;-1.306028366E0;1.976008534E0
2.455144778E0;-2.559687138E0;-1.895971298E0;2.193457127E0
2.465150778E0;-2.417358875E0;-1.740828991E0;1.415920138E0
2.475827778E0;-2.225165367E0;-1.202173233E0;8.174725175E-1
2.495798778E0;-2.218042374E0;-1.017746925E0;5.217798352E-1
2.515505778E0;2.061734200E-1;-8.304581642E-1;-4.916695595E0
2.535799778E0;1.112275124E-1;-1.295565605E0;-2.967401981E0
2.555409778E0;2.886576653E-1;-1.060730934E0;2.737628937E0
2.575110778E0;-9.816265106E-2;-4.948320389E-1;3.065846562E-1
2.585303778E0;-7.417864799E-1;-5.386013985E-1;4.304150343E-1
2.595329778E0;-1.004670620E0;-1.824941635E-1;7.748194337E-1
2.615001778E0;-5.363321304E-1;7.837786674E-1;3.104711473E-1
2.625109778E0;-3.635439873E-1;9.050321579E-1;-1.652034000E-2
2.636069778E0;-4.430351257E-1;6.798596382E-1;-1.339548826E-2
2.655124778E0;-5.570750237E-1;7.359299660E-1;5.869833231E-1
2.665799778E0;-6.968379021E-1;7.766327858E-1;6.479781866E-1
2.676616778E0;-5.721945763E-1;5.858039856E-1;5.162158608E-1
2.695109778E0;8.702454567E-1;-3.052616119E-1;-4.502823353E-1
2.705109778E0;1.055429935E0;-9.652261734E-1;-2.377542853E-1
2.725417778E0;-1.152324677E-2;-3.512973785E-1;3.705185056E-1
2.745057778E0;1.186547279E-1;3.901863098E-2;5.379588902E-2
2.755128778E0;-2.753124237E-1;3.429040909E-1;-1.285042167E-1
2.765167778E0;-7.378044128E-1;7.000408173E-1;-1.338695437E-1
2.775190778E0;-1.147199869E0;1.604518414E0;-2.814700902E-1
2.795110778E0;1.098570824E-1;2.416747570E0;-2.810958385E0
2.805198778E0;6.531558037E-1;1.825545788E0;4.905482829E-1
2.815550778E0;-1.806259155E-3;1.349379063E0;1.456115365E0
2.835912778E0;-1.446939945E0;1.349725723E-1;2.926566839E0
2.852578778E0;-1.345018864E0;-8.750534058E-1;4.708727002E-1
2.865616778E0;-1.675882816E0;-8.245058060E-1;-7.867395878E-1
2.885357778E0;-7.158350945E-1;-1.386333466E0;-2.684019506E-1
2.905146778E0;1.257119179E-1;-1.494946480E0;-1.296162128E0
2.915765778E0;7.962679863E-2;-1.537292480E0;-1.011916757E0
2.939818778E0;9.171574116E-1;-3.603748322E0;2.932324111E-1
2.955144778E0;1.379287004E0;-2.722568512E0;-3.017910123E-1
2.965148778E0;1.214610100E0;-2.333126068E-1;2.332972884E-1
2.985574778E0;5.205464363E-2;1.171312332E-1;-9.601587057E-2
3.005088778E0;-3.729295731E-2;-1.500587463E-1;-9.019231796E-2
3.025009778E0;-3.224513054E0;2.948027611E0;1.223358154E0
3.035496778E0;-2.710796356E0;4.987263203E0;1.562021971E0
3.055047778E0;-1.570910692E0;6.080105305E0;-1.279835224E0
3.065767778E0;-1.878481507E0;5.798931122E0;-1.540855289E0
3.085290778E0;-2.393903255E0;6.083227158E0;-6.813111305E-1
3.105418778E0;-2.668474197E0;7.199671745E0;-5.124065280E-1
3.125045778E0;-2.667771578E0;7.697828293E0;-1.707940817E0
3.135848778E0;-2.829233885E0;8.237404823E0;-1.558735132E0
3.155039778E0;-2.480826378E0;3.383872509E0;-4.499644041E-1
3.165262778E0;1.775044203E0;-9.951545715E0;6.761147976E0
3.185561778E0;1.574203253E0;-1.714243698E1;9.213846207E0
3.206148778E0;1.546151638E0;-1.900409126E1;5.063898563E0
3.225469778E0;-2.402259827E0;-7.182864189E0;-1.109594631E1
3.235493778E0;-2.115991592E0;6.618595123E-2;-1.750952721E1
3.245551778E0;-2.332399607E0;2.798306942E0;-9.538839340E0
3.265229778E0;-3.229180813E0;4.685887814E0;1.792802334E0
3.275852778E0;-2.048759222E0;4.300086975E0;3.471701145E0
3.286941778E0;-5.011057854E-1;3.084944725E0;4.328109741E0
3.305045778E0;1.291042089E0;5.321521759E-1;3.579105377E0
3.315151778E0;1.443741083E0;-3.599214554E-1;2.713684559E0
3.325512778E0;9.814183712E-1;-9.449653625E-1;1.806599975E0
3.345099778E0;-5.694398880E-1;-1.237786293E0;-6.789770722E-1
3.365074778E0;-6.717081070E-1;4.333944321E-1;-2.496501923E0
3.385103778E0;-3.273994923E-1;7.145328522E-1;-2.325692773E-2
3.395191778E0;-2.165875435E-1;6.196718216E-1;8.496218920E-1
3.405527778E0;-2.685785294E-3;4.576263428E-1;1.400686264E0
3.424986778E0;3.487262726E-1;-3.793525696E-2;1.106982231E0
3.435187778E0;4.159440994E-1;-2.567186356E-1;4.333797097E-1
3.445911778E0;5.694544315E-1;-1.339340210E-1;-2.246603966E-1
3.465185778E0;-1.660618782E-1;2.026500702E-1;-5.293149948E-1
3.479471778E0;-6.127796173E-1;1.627750397E-1;-4.480757713E-1
3.495092778E0;-8.179718256E-1;3.127899170E-1;-1.254231930E-1
3.505166778E0;-8.456419706E-1;2.535943985E-1;-1.755599678E-1
3.526067778E0;-8.987454176E-1;-1.967382431E-1;1.382569671E-1
3.546350778E0;-6.205759048E-1;-8.441448212E-2;5.209440589E-1
3.565244778E0;-6.300668716E-1;6.050109863E-3;1.454319954E-1
3.586730778E0;-3.724663258E-1;7.604503632E-2;-4.233791232E-1
3.605150778E0;-2.623851299E-1;1.266460419E-1;-4.360675812E-4
3.625399778E0;-1.441247463E-1;2.700395584E-1;5.979524255E-1
3.636455778E0;-1.485445499E-1;2.976360321E-1;5.806371570E-1
3.655127778E0;-2.020189762E-1;1.608219147E-1;4.035311341E-1
3.674992778E0;-2.181539536E-1;-4.031944275E-2;-1.636485457E-1
3.687501778E0;-2.448194027E-1;-4.065608978E-2;-1.089403033E-1
3.705093778E0;-3.227636814E-1;2.650413513E-1;3.788964748E-1
3.725053778E0;-2.902562618E-1;3.574466705E-1;5.334831476E-1
3.735404778E0;-2.862398624E-1;5.808448792E-2;2.891425192E-1
3.755454778E0;6.965923309E-2;1.110258102E-1;-3.320826292E-1
3.775568778E0;-5.033993721E-2;3.625335693E-1;2.340974808E-1
3.795045778E0;-3.823070526E-1;-3.518962860E-2;3.151157200E-1
3.805107778E0;-4.271309376E-1;-1.205167770E-1;1.176975667E-1
3.825213778E0;-2.852907181E-1;2.933263779E-1;1.343312860E-1
3.845204778E0;-1.966958046E-1;4.041795731E-1;-9.046065807E-2
3.865076778E0;2.453064919E-2;2.549448013E-1;-5.938410759E-4
3.885193778E0;-2.582678795E-1;-5.900382996E-2;1.029769778E-1
3.905268778E0;-3.076906204E-1;1.443338394E-1;-6.816107035E-2
3.925047778E0;-3.468005657E-1;1.173973083E-3;-1.123346090E-1
3.937128778E0;-1.537711620E-1;1.235857010E-1;3.805623353E-1
3.955155778E0;-1.868882179E-1;1.833610535E-1;4.767956734E-1
3.975012778E0;-1.841354370E-1;3.211460114E-1;2.978261411E-1
3.985516778E0;-5.176854134E-2;3.887033463E-1;6.668931246E-2
4.005056778E0;4.972767830E-2;9.852504730E-2;-1.365787983E-1
4.015085778E0;-1.838994026E-2;-1.326942444E-2;2.452536821E-1
4.025216778E0;-1.227145195E-1;-2.302169800E-2;5.489835739E-1
4.035551778E0;-2.666373253E-1;-1.264524460E-1;2.557955384E-1
4.045697778E0;-3.791940212E-1;-1.282701492E-1;-1.326928735E-1
4.065190778E0;-3.503110409E-1;1.152162552E-1;6.382691860E-2
4.075960778E0;-4.015712738E-1;7.271194458E-2;7.587077022E-1
4.095387778E0;-4.177260399E-2;3.299999237E-1;1.055124044E0
4.115587778E0;2.410340309E-2;3.486633301E-1;-7.605195045E-3
4.135514778E0;-5.026652813E-1;-1.863822937E-1;-2.417302132E-1
4.155352778E0;-2.209010124E-1;-3.803062439E-1;5.910656452E-1
4.175122778E0;5.142714977E-1;9.752273560E-3;-2.941249609E-1
4.185492778E0;4.639043808E-1;-8.450794220E-2;-9.356439114E-3
4.205307778E0;5.276653767E-1;6.564311981E-1;-2.975379825E-1
4.225682778E0;1.218243599E0;2.226758957E0;-1.155482888E0
4.236299778E0;-1.472383857E0;-7.526168823E-1;5.067384243E-1
4.255091778E0;-1.211902738E0;-7.874107361E-2;4.221674502E-1
4.265194778E0;-7.193617821E-1;2.283754349E-1;1.417202652E-1
4.285326778E0;-4.875452518E-1;9.597396851E-2;2.452338189E-1
4.305148778E0;-1.130638361E0;-1.266678810E0;-7.179162502E-1
4.315855778E0;-7.838563919E-1;-3.572149277E-1;-3.399983048E-1
4.335079778E0;-4.895009995E-1;-1.797294617E-2;-6.691139936E-2
4.355247778E0;6.527390480E-1;8.993158340E-1;-6.568443775E-2
4.365257778E0;5.433981419E-1;1.325840950E0;-5.165466070E-1
4.385553778E0;-7.130763531E-1;8.141326904E-2;3.736661375E-1
4.405090778E0;4.326493740E-1;1.042978287E0;-1.765139103E-1
4.424981778E0;-6.881072521E-1;-7.081880569E-1;2.282277346E-1
4.435085778E0;-1.916501522E-1;-3.117055893E-1;2.522340715E-1
4.445709778E0;4.191529751E-1;5.539875031E-1;-1.005944610E-1
4.465003778E0;-2.358365059E-2;-5.223245621E-1;-1.582610607E-1
4.475345778E0;5.374052525E-1;4.499788284E-1;-7.446107268E-1
4.485450778E0;-9.097433090E-2;-2.738475800E-2;8.688271046E-2
4.505310778E0;-3.321113586E-1;5.452280045E-1;-2.712535858E-2
4.525800778E0;3.125410080E-1;1.079079628E0;-2.608382106E-1
4.545606778E0;-4.965665340E-1;-1.225852966E-1;-2.441261411E-1
4.556401778E0;-2.816598415E-1;-6.692771912E-1;8.784368634E-2
4.575058778E0;8.394494057E-1;-4.263000488E-1;1.673078537E-2
4.585276778E0;9.625802040E-1;-4.847116470E-1;-1.779938936E-1
4.605112778E0;2.262544394E0;1.932249069E-1;-1.790890455E0
4.625682778E0;-4.622268677E-2;2.176941872E0;1.929721832E0
4.645885778E0;-5.641020536E-1;1.153239250E0;1.658695936E0
4.656488778E0;3.216013908E-1;1.832090378E0;6.039654016E-1
4.675018778E0;7.487981319E-1;1.585034847E0;2.894599140E-1
4.685744778E0;5.413053036E-1;1.280313492E0;5.465396643E-1
4.705015778E0;2.790091038E-1;1.681985855E0;3.920365274E-1
4.715348778E0;-2.213077545E-1;2.207741737E0;-1.907324195E-1
4.735159778E0;-4.575136900E-1;1.762223721E0;-6.078402996E-1
4.755388778E0;-4.308044910E-1;1.030399323E0;-6.552181244E-1
4.775172778E0;3.185460567E-1;1.274399757E0;-1.909647107E0
4.785614778E0;1.601420403E0;1.674789906E0;-1.642852545E0
4.805158778E0;3.617974997E0;1.360930443E0;-1.888514996E0
4.815701778E0;2.652821302E0;-1.631460190E0;-7.957891226E-1
4.835413778E0;6.343765259E-1;-5.241433144E0;1.049826980E0
4.855202778E0;1.554264307E0;7.681188583E-1;1.149928808E0
4.875074778E0;3.572700024E-1;1.712854385E0;-9.511288404E-1
4.885430778E0;5.433347225E-1;1.735308170E0;-1.505161405E0
4.899830778E0;-6.262755394E-2;4.299764633E-1;-8.458493948E-1
4.915152778E0;-1.491601467E-1;1.081676483E-1;-4.274047315E-1
4.925221778E0;6.918292046E-1;2.631893158E-1;-7.249889374E-1
4.936147778E0;1.020617008E0;3.490056992E-1;-1.537885904E0
4.955730778E0;1.267292976E0;4.555358887E-1;-3.318592787E0
4.969405778E0;1.352751970E0;5.590009689E-1;-3.879584312E0
4.985194778E0;1.461344481E0;6.166524887E-1;-4.292947769E0
4.997962778E0;1.399523735E0;4.930191040E-1;-4.188076019E0
5.015103778E0;1.674667120E0;1.444206238E-1;-3.486357927E0
5.025189778E0;2.109395027E0;-5.964279175E-2;-3.385425091E0
5.035642778E0;2.632467270E0;-1.590681076E-1;-3.312489033E0
5.055400778E0;3.260477304E0;-2.577142715E-1;-2.804681540E0
5.065651778E0;3.552905083E0;-4.079647064E-1;-3.207824707E0
5.085522778E0;4.233695507E0;-1.415813446E0;-4.898676395E0
5.105132778E0;3.916958809E0;-3.658486366E0;-5.678819656E0
5.125181778E0;4.268002510E-2;-5.159858704E0;-6.876646996E0
5.145168778E0;3.043606281E-1;-4.198560715E0;-3.084105968E0
5.165015778E0;1.655421495E0;-3.741662979E0;5.430763245E0
5.185539778E0;2.078437328E0;-4.527793884E0;9.357036591E0
5.205059778E0;1.897411585E0;-3.242409706E0;6.364293098E0
5.215106778E0;2.314945936E0;-3.427099228E0;5.446018696E0
5.225518778E0;2.125628710E0;-4.490688324E0;2.667464972E0
5.236026778E0;3.515865803E0;-4.487109184E0;-1.933443546E0
5.255468778E0;4.419848442E0;-3.886946678E0;-5.700289726E0
5.275411778E0;-3.402428627E-1;-4.283291340E0;-2.696142197E-1
5.285963778E0;-1.540976524E0;-3.574854374E0;2.853342056E0
5.305213778E0;-1.782193542E0;-1.666553497E0;6.920573711E0
5.325216778E0;-2.121281624E0;-1.511364460E0;1.992955685E0
5.336281778E0;-1.304087043E0;-1.549049377E0;2.699120522E0
5.355478778E0;4.496776462E-1;-1.807427406E-1;5.581422806E0
5.375341778E0;-1.758835316E-1;9.433836937E-1;5.424217224E0
5.385723778E0;-4.608838558E-1;1.639259815E0;5.642258644E0
5.396323778E0;-3.697003126E-1;2.236701488E0;5.895501137E0
5.415598778E0;-2.269232273E-1;3.127710104E0;5.458043575E0
5.435361778E0;8.143714666E-1;3.826888084E0;4.989537239E0
5.445568778E0;1.551449776E0;3.862743378E0;5.006269455E0
5.465357778E0;2.637092113E0;3.392640114E0;3.595523357E0
5.485957778E0;1.650571823E0;2.867396593E0;2.902621269E0
5.505265778E0;2.017214298E-1;3.481480122E0;3.171361446E0
5.515322778E0;-1.884811401E0;3.878845215E0;2.641875744E0
5.535173778E0;-1.896224260E0;4.061548233E0;1.470416069E0
5.545808778E0;-1.651407003E0;3.725897074E0;-7.448868752E-1
5.565748778E0;-2.846732140E0;1.498751163E0;-6.291991234E0
5.585466778E0;-2.738105536E0;-3.403378963E0;-1.074751472E1
5.595578778E0;-1.214813471E0;-5.558254242E0;-1.275883961E1
5.615419778E0;9.546289444E-1;-2.751664639E0;-6.994383812E0
5.636230778E0;1.189684868E0;2.594657183E0;1.221546173E1
5.655173778E0;-4.711384773E0;4.636769295E-1;1.053113556E1
5.675101778E0;-1.222504807E1;-1.732409000E0;-7.994537354E-1
5.687477778E0;-5.296218395E0;-5.734763145E-1;-4.857063293E-3
5.705084778E0;1.734779716E0;-4.020622253E0;1.858791351E0
5.715099778E0;2.485980511E0;-3.468186855E0;-1.186287403E0
5.735679778E0;9.507960081E-1;-7.391180992E-1;5.955986977E-1
5.755327778E0;-9.245415926E-1;-3.811082840E-1;3.412065268E0
5.775445778E0;-2.466115475E0;-6.725816727E-1;3.485116005E0
5.795199778E0;-3.310115337E0;-1.607607841E0;2.507287979E0
5.805294778E0;-3.284692287E0;-2.109560490E0;2.701819181E0
5.825059778E0;-1.734492183E0;-2.236302853E0;2.727898359E0
5.835092778E0;-5.156367421E-1;-1.985676765E0;2.443411350E0
5.845296778E0;5.606223941E-1;-1.594212055E0;2.389946222E0
5.865012778E0;1.444252253E0;-1.336029053E0;2.603854418E0
5.875369778E0;2.086663961E0;-1.297155380E0;2.526374102E0
5.895221778E0;2.577645540E0;-1.669793129E0;1.770605803E0
5.905794778E0;2.651782036E0;-2.584229469E0;1.106141806E0
5.925168778E0;2.501926422E0;-2.325953484E0;6.023783684E-1
5.935808778E0;2.768228292E0;-1.906562805E0;3.077239990E-1
5.955351778E0;3.414309025E0;-7.588911057E-1;7.443137169E-1
5.965882778E0;3.807670832E0;-1.792411804E-1;7.578554153E-1
5.985497778E0;4.459234715E0;6.141824722E-1;2.678594589E-1
5.995684778E0;4.729720116E0;6.907176971E-1;-4.177153111E-1
6.015108778E0;5.738275051E0;6.742029190E-1;-2.106451988E0
6.025870778E0;6.186839581E0;6.950578690E-1;-2.445111275E0
6.045415778E0;4.502850533E0;6.820802689E-1;-2.850969553E0
6.065126778E0;5.551686287E-1;1.015090942E0;-3.968069553E0
6.085282778E0;-2.062847614E0;2.421655178E0;-3.262327671E0
6.105153778E0;-5.156157494E0;3.936900139E0;-2.537957668E0
6.126319778E0;-3.506773472E0;4.678337097E0;-2.923199654E0
6.145037778E0;-9.737194777E-1;4.309577942E0;-2.767663479E0
6.155243778E0;3.076579571E-1;3.722167969E0;-2.661898851E0
6.165294778E0;1.047283173E0;2.678941250E0;-2.775885820E0
6.175346778E0;1.617054939E0;1.703688622E0;-2.788762093E0
6.185411778E0;1.751375198E0;9.118957520E-1;-2.443769693E0
6.195413778E0;1.222954750E0;1.778564453E-1;-9.611198902E-1
6.215131778E0;3.031806946E-1;-7.738380432E-1;3.179275990E0
6.225296778E0;4.392004013E-2;-9.576635361E-1;3.706741333E0
6.236320778E0;-7.334876060E-2;-1.225852966E0;3.416526556E0
6.255190778E0;-7.094880342E-1;-2.363959312E0;2.367590189E0
6.274997778E0;1.927597523E-1;-3.600113869E0;3.260873556E0
6.285306778E0;7.454252243E-1;-4.296489716E0;5.547495365E0
6.305033778E0;3.328775883E0;-5.832782745E0;1.482076287E0
6.325035778E0;3.279957294E0;-5.292454720E0;-7.701969147E0
6.335762778E0;4.878684998E0;-4.625653267E0;-9.239081383E0
6.355110778E0;5.578169823E0;-4.882893562E0;-5.181288719E0
6.365341778E0;2.241567373E0;-4.841450691E0;-4.046041965E0
6.375630778E0;3.934988976E-1;-3.942277908E0;-6.050724506E0
6.395116778E0;-2.161719799E0;-3.309108734E0;-1.152519321E1
6.405564778E0;-2.735327721E0;-3.113394737E0;-1.293508053E1
6.425111778E0;-3.234834194E0;-2.580647469E0;-1.530642223E1
6.435956778E0;-2.070192099E0;-2.002126694E0;-1.690943336E1
6.455074778E0;2.831330299E-1;-3.548100471E0;-9.120128632E0
6.465402778E0;-3.525443077E-1;-5.415118217E0;1.879963875E0
6.475554778E0;-5.541458130E-1;-6.255412102E0;1.198365593E1
6.495163778E0;-9.554357529E-1;-2.591132164E0;1.006412888E1
6.505317778E0;-1.590239525E0;-3.355298996E0;8.299715996E0
6.525596778E0;-3.886574507E0;-4.560837746E0;5.378589630E0
6.535658778E0;-4.250578880E0;-4.656835556E0;4.257500172E0
6.545802778E0;-4.365061760E0;-4.472108841E0;2.205338001E0
6.565191778E0;-4.486529350E0;-3.956904411E0;-5.835467815E0
6.585373778E0;1.943837523E0;-7.150108337E0;-1.920502472E1
6.605075778E0;1.769446969E0;-1.057723236E1;8.167200089E-1
6.625238778E0;5.288575649E0;-7.905381203E0;1.497999763E1
6.636326778E0;7.597076893E0;-5.513319492E0;1.069876862E1
6.655153778E0;4.586478710E0;-6.266117573E0;-5.229163647E0
6.675075778E0;5.318950653E0;-8.417296410E0;-2.458313942E0
6.685125778E0;7.845839500E0;-7.230313301E0;5.354998589E0
6.705099778E0;6.445521832E0;-2.642335892E0;1.676087379E1
6.715604778E0;4.362545967E0;-6.341977119E-1;1.619335365E1
6.735128778E0;1.763579726E0;3.967041969E0;1.157211876E1
6.755142778E0;-1.845290661E0;5.983577728E0;1.013533211E1
6.765689778E0;2.622992992E-1;7.499096870E0;1.051952076E1
6.785763778E0;1.601783276E0;6.133749962E0;1.057065010E1
6.805771778E0;4.627201080E0;5.893308640E0;9.729701042E0
6.825218778E0;4.759100437E0;7.955061436E0;7.972945690E0
6.835395778E0;3.538941145E0;8.598201752E0;6.552205563E0
6.855154778E0;-5.009217262E-1;7.422584534E0;3.715074539E0
6.875501778E0;-1.623476982E0;5.415348053E0;-6.500329971E-1
6.885914778E0;1.373623848E0;3.963727474E0;-1.816699982E0
6.905245778E0;1.669882774E0;3.353910208E0;-1.679317474E0
6.915329778E0;-5.828380585E-3;3.090528011E0;-9.176287651E-1
6.935484778E0;-1.222594929E1;4.561436176E-1;-9.176819801E0
6.955193778E0;-1.170062637E1;-1.538210869E1;-1.239016438E1
6.975040778E0;9.716401100E-1;-1.252011013E1;-1.150864601E1
6.985089778E0;4.706556320E0;-6.164578438E0;6.315981388E0
7.005187778E0;8.113267422E-1;8.604237556E0;1.776453018E1
7.025383778E0;-9.465122223E0;1.305915451E1;-1.619864464E0
7.035417778E0;-1.399411440E0;8.008495331E0;1.295551300E0
7.046003778E0;3.753505230E0;9.995684624E-1;5.778427124E-1
7.065134778E0;4.452872753E0;-8.231294632E0;-1.257785320E0
7.085126778E0;-1.190979481E-1;-9.847995758E0;1.427680492E0
7.095158778E0;6.838799715E-1;-5.482088089E0;2.372716427E0
7.105235778E0;1.357653618E0;-9.878926277E-1;2.779679298E0
7.125205778E0;7.512843013E-1;3.077960491E0;2.127402306E0
7.137187778E0;1.407613754E-1;3.235592842E0;2.570108414E0
7.155071778E0;-8.433586359E-2;2.331414700E0;2.329392195E0
7.175158778E0;-7.357428074E-1;7.954359055E-2;2.286754608E0
7.185581778E0;-8.196269274E-1;-8.072781563E-1;1.978530169E0
7.205167778E0;-9.150279760E-1;-2.192434311E0;2.189418554E0
7.215175778E0;-6.755435467E-1;-2.304673195E0;3.280391693E0
7.235655778E0;6.334576607E-1;-1.906662941E0;3.636338711E0
7.255100778E0;1.633379936E0;-2.243551254E0;3.304545879E0
7.265293778E0;2.975512028E0;-2.513468742E0;2.827991962E0
7.285098778E0;5.241139412E0;-2.814041138E0;1.172604799E0
7.295121778E0;6.999542713E0;-2.333518028E0;-5.989027023E-2
7.315544778E0;7.682067871E0;-9.743366241E-1;-4.278949738E0
7.335461778E0;5.274319172E0;-9.066963196E-1;-6.228171349E0
7.355595778E0;3.824022532E0;-1.916904449E-1;-3.915863991E0
7.367425778E0;4.548169136E0;1.258910179E0;-2.027997971E0
7.380471278E0;4.247743130E0;3.597088337E0;1.159890175E0
7.395136778E0;3.198563576E0;3.532731533E0;6.006039381E-1
7.405392778E0;1.166936159E0;3.483623981E0;-5.100303888E-1
7.425541778E0;-4.152346134E0;3.841990471E0;-1.177936196E0
7.442665778E0;-7.451220512E0;3.650683403E0;-1.179061413E0
7.455561778E0;-7.185976505E0;4.235109806E0;-2.304441929E0
7.475051778E0;-1.017346382E0;6.793638229E0;-4.993683338E0
7.485514778E0;-8.759412766E-1;6.152605057E0;-3.773582458E0
7.495889778E0;-2.082794905E0;4.625201702E0;-2.736866951E0
7.515117778E0;-1.998863339E0;2.890395164E0;4.298866391E-1
7.525136778E0;-7.606458664E-1;2.200941086E0;2.436110020E0
7.545156778E0;1.127307653E0;-5.288343430E-1;3.371321678E0
7.565121778E0;2.607876062E0;-4.286666870E0;3.219755411E0
7.575641778E0;2.797224760E0;-5.833719254E0;3.011580944E0
7.586404778E0;2.338605881E0;-6.966211319E0;2.911958218E0
7.605169778E0;1.662870646E0;-7.817224503E0;2.838271618E0
7.615890778E0;1.891843557E0;-7.273321152E0;2.213858128E0
7.640822778E0;4.160368919E0;-6.893001556E0;-2.113243103E0
7.655787778E0;5.652281761E0;-5.548505783E0;-1.383508110E1
7.675044778E0;3.236784220E0;-2.962435722E0;-9.758432388E0
7.685852778E0;1.478585720E0;-2.697922707E0;-1.124005127E1
7.705164778E0;-2.261721611E0;-4.388765335E0;-1.291287613E1
7.725179778E0;-3.306011438E0;-5.013663292E0;-1.065185356E1
7.735679778E0;-3.239041567E0;-4.772903442E0;-7.442985058E0
7.755230778E0;-3.800621033E0;-3.932898521E0;2.207948685E0
7.775018778E0;-3.568838120E0;-3.076184273E0;5.151551723E0
7.785488778E0;-3.889754772E0;-4.515157700E0;5.552638054E0
7.805244778E0;-5.456454277E0;-8.926777840E0;3.497457504E0
7.825342778E0;-4.840753555E0;-9.892438889E0;7.971353531E-1
7.835466778E0;-4.711303711E0;-9.446762085E0;-4.924492836E-1
7.855116778E0;-1.824984550E-1;-8.647339821E0;-8.458786011E0
7.865273778E0;1.498570681E0;-9.125110626E0;-4.066505432E0
7.886924778E0;-1.364200234E0;-8.556064606E0;4.199420929E0
7.905494778E0;4.541774988E-1;-6.677153587E0;8.248760223E0
7.925289778E0;3.584665775E0;-5.762455463E0;4.593977451E0
7.935919778E0;3.989015579E0;-6.940330029E0;-4.462766647E-2
7.955100778E0;6.719235420E0;-9.351932526E0;-4.798717499E-1
7.965605778E0;8.504150391E0;-9.264645576E0;2.529338360E0
7.985093778E0;1.074956799E1;-5.237534046E0;1.350616646E1
7.995169778E0;8.530519485E0;-3.269954205E0;1.715548515E1
8.015187778E0;6.956759930E0;-2.226858139E-1;1.625514793E1
8.025692778E0;5.676754951E0;1.728587866E0;1.735087585E1
8.036254778E0;3.678964138E0;4.117531776E0;1.536522770E1
8.055117778E0;-4.813170433E-1;7.685190201E0;1.202895069E1
8.075082778E0;1.585319757E0;6.441503525E0;1.394073105E1
8.085787778E0;9.943494797E-1;4.862851143E0;1.227910614E1
8.105184778E0;2.424842834E0;5.875482559E0;9.251993179E0
8.125144778E0;2.051698208E0;7.876340389E0;4.377433777E0
8.135514778E0;8.340787888E-1;7.473817825E0;2.466017246E0
8.156151778E0;2.793183327E-1;4.504095554E0;-7.641572952E-1
8.175544778E0;1.056362629E0;2.190975428E0;-4.231633186E0
8.186254778E0;7.970135212E-1;2.197631359E0;-5.630939484E0
8.205344778E0;-3.391218185E-2;3.904308319E0;-7.577681541E0
8.215400778E0;-7.196578979E-1;4.253087997E0;-2.867362022E0
8.235353778E0;-3.875449657E0;4.892918110E0;1.091706848E1
8.255139778E0;-3.203927231E1;-1.699653435E1;-7.350635529E-1
8.275046778E0;1.111922646E1;-4.297709942E0;5.868962288E0
8.285845778E0;9.217506409E0;1.100548983E0;2.401075554E1
8.305503778E0;-1.429411030E1;8.707328796E0;-4.356580734E0
8.325118778E0;8.392260075E-1;2.602159739E0;8.596282005E0
8.335426778E0;5.159835815E0;-2.266762257E0;5.335537910E0
8.355564778E0;1.823515058E0;-7.123342991E0;-4.964275360E-1
8.375351778E0;-8.306529522E-1;-6.571690559E0;4.879261971E0
8.385401778E0;-1.015038490E-1;-4.039250851E0;4.561605453E0
8.405051778E0;1.369123220E0;9.447007179E-1;1.830925941E0
8.425351778E0;4.546177387E-2;1.386607647E0;3.157234669E0
8.445511778E0;-1.017846346E0;1.606264114E-1;3.025672436E0
8.465266778E0;-6.392349005E-1;-1.292612553E0;2.690235138E0
8.485595778E0;-4.274196625E-1;-1.804068565E0;3.401343822E0
8.505758778E0;-7.015125155E-1;-2.115476608E0;4.808485985E0
8.525146778E0;1.567810059E0;-2.444177628E0;5.024391651E0
8.535405778E0;3.599489927E0;-3.166774750E0;4.919891357E0
8.546240778E0;4.609593868E0;-3.694528580E0;3.842513084E0
8.565070778E0;5.512745380E0;-4.222361565E0;-5.248661041E-1
8.575558778E0;7.173394203E0;-3.524885178E0;-2.784432888E0
8.595443778E0;9.007209778E0;-2.040217400E0;-6.927754879E0
8.615645778E0;9.690160751E0;-7.078971863E-1;-6.902671814E0
8.639976778E0;6.780616760E0;2.864630699E0;-2.437222958E0
8.655245778E0;1.571964741E0;3.648337841E0;-4.065295219E0
8.675207778E0;-4.452438354E0;4.687976360E0;-4.296071529E0
8.685546778E0;-6.784436703E0;5.385802746E0;-4.220737457E0
8.705064778E0;-6.999915600E0;6.763101578E0;-2.374263287E0
8.715181778E0;-6.328434944E0;6.813198090E0;-3.932894230E0
8.735123778E0;-2.090436459E0;6.901953220E0;-3.569334984E0
8.745220778E0;-8.265758753E-1;6.437309742E0;-1.098817110E0
8.755517778E0;-5.398914814E-1;5.065032005E0;2.643592596E0
8.775049778E0;3.758907318E-3;3.332521439E0;6.380227089E0
8.785062778E0;3.066253662E-1;3.137393951E0;4.273329735E0
8.795356778E0;-1.590468884E-1;3.115846157E0;1.576261640E0
8.815003778E0;-4.326095581E-1;3.062935829E0;-4.150152206E-1
8.835654778E0;1.108687639E0;-1.674559593E0;4.664076328E0
8.845724778E0;1.873622179E0;-3.458906174E0;5.535072327E0
8.865184778E0;2.276271343E0;-7.865798950E0;6.236100674E0
8.886051778E0;3.318240643E0;-1.276604748E1;6.091813564E0
8.905061778E0;6.122108459E0;-1.674811363E1;4.615464687E0
8.915391778E0;7.979094505E0;-1.745788956E1;2.080403566E0
8.935182778E0;5.378415108E0;-1.402868843E1;-1.714331627E1
8.955216778E0;3.408846855E-1;-8.889187813E0;-6.872957706E0
8.975053778E0;-2.443331718E0;-1.419420242E0;-8.915479660E0
8.985532778E0;-1.526899457E0;1.630089760E0;-7.678029060E0
9.005425778E0;2.235145569E-1;2.969221592E0;-6.817643166E0
9.025084778E0;4.079568386E-1;1.108220100E0;-5.709960461E0
9.035203778E0;2.052817106E0;8.016815186E-1;-4.549105167E0
9.045499778E0;5.786189556E0;-2.585859299E-1;-5.079736710E0
9.065026778E0;3.144545794E0;-1.300848007E0;-1.064273119E0
9.075037778E0;5.817658901E-1;-1.871784210E0;1.578512192E0
9.086151778E0;-9.215043783E-1;-2.013370514E0;3.471030474E0
9.105733778E0;-2.588938713E0;-2.546135902E0;5.500555992E0
9.126129778E0;-3.036111832E0;-2.307357788E0;5.385976791E0
9.136419778E0;-2.729418516E0;-1.668897629E0;4.663362026E0
9.155709778E0;-1.908679724E0;-1.863111496E0;-3.180006981E0
9.175817778E0;2.008361816E-1;-3.579470634E0;-1.085694313E1
9.186339778E0;7.302618027E-2;-4.963670731E0;-7.314431190E0
9.205979778E0;5.622760057E-1;-5.835688591E0;2.592945099E-1
9.225052778E0;9.525799751E-1;-3.568862915E0;5.382451534E0
9.235894778E0;2.659395933E0;-9.066629410E-1;5.289717197E0
9.255139778E0;2.800444841E0;-2.128827095E0;5.303101540E-1
9.275061778E0;6.805887222E-1;-4.410593987E0;-5.427235126E0
9.285832778E0;-6.950274706E-1;-5.466974735E0;-4.093072891E0
9.305032778E0;-1.244318366E0;-5.693260193E0;9.041934013E-1
9.325272778E0;8.478763103E-1;-4.097042561E0;4.264741898E0
9.335666778E0;1.641143560E0;-2.948639393E0;4.963214874E0
9.355051778E0;3.133778572E0;-1.424297810E0;6.465759277E0
9.365236778E0;3.725855827E0;-9.768600464E-1;8.531027794E0
9.375320778E0;4.815890312E0;-4.409632683E-1;1.073904419E1
9.385674778E0;4.316346169E0;-8.177137375E-2;1.255171204E1
9.405143778E0;4.949314117E0;1.848504782E0;1.190048218E1
9.425076778E0;4.777474403E0;2.957801819E0;9.600542068E0
9.435096778E0;3.888233185E0;4.022716045E0;1.057198143E1
9.445267778E0;3.119204760E0;4.630135059E0;9.501384735E0
9.465143778E0;1.078465462E0;3.813243866E0;7.067118645E0
9.485076778E0;1.563380957E0;4.263411045E0;9.441125870E0
9.495664778E0;1.059797287E0;4.965480804E0;7.539830685E0
9.515063778E0;1.011360645E0;6.411616325E0;4.132168293E0
9.535906778E0;-1.818901300E0;6.174753189E0;2.226173401E0
9.546438778E0;-2.682325363E0;6.063236237E0;2.226151466E0
9.565427778E0;-2.754140377E0;5.441360474E0;3.835319519E0
9.585765778E0;-2.264655113E0;4.540228367E0;5.446314812E-1
9.605215778E0;-1.368089676E0;3.723230839E0;-1.499159813E0
9.625169778E0;-1.770934105E0;4.144368172E0;-7.745690346E0
9.635984778E0;-9.083153725E0;3.245200634E0;-1.509724331E1
9.646856778E0;-1.166392803E1;-2.590625048E0;-1.684022331E1
9.658174778E0;-6.065399647E0;-9.414968491E0;-6.868903160E0
9.675124778E0;4.507403374E-1;-5.608922005E0;-5.947318077E0
9.685138778E0;3.270967007E0;5.947692394E-1;2.986138821E0
9.695169778E0;1.396223783E0;3.473509550E0;1.204470444E1
9.705261778E0;-1.983254910E0;5.645469666E0;1.425457287E1
9.725048778E0;-3.674285412E0;2.428685188E0;1.349492073E-1
9.735215778E0;7.228410244E-1;-2.092216969E0;1.158644199E0
9.755838778E0;4.243197441E0;-5.331889153E0;-3.085802078E0
9.775369778E0;9.169740677E-1;-5.553977489E0;1.576641560E0
9.785728778E0;-7.628352642E-1;-3.819562435E0;3.139371872E0
9.805253778E0;-1.108568192E0;6.507019997E-1;2.850926876E0
9.825096778E0;6.085697412E-1;-1.349282265E-1;3.318617344E0
9.836858778E0;9.366074800E-1;-6.099376678E-1;3.795526028E0
9.855053778E0;1.274937868E0;-1.331919670E0;2.356231689E0
9.875193778E0;1.509657860E0;-1.844495773E0;2.301863194E0
9.887529778E0;1.522252798E0;-1.747392178E0;2.671332836E0
9.905213778E0;1.960247397E0;-1.575002670E0;1.991666317E0
9.925707778E0;1.670567751E0;-1.579795361E0;1.952086926E0
9.935789778E0;1.628647327E0;-1.524564743E0;1.905090094E0
9.955213778E0;1.345069647E0;-1.220086098E0;1.274553537E0
9.974998778E0;6.183605194E-1;-1.204787254E0;1.478421926E0
9.985122778E0;2.545019388E-1;-1.201116562E0;2.067441463E0
1.000520978E1;4.173571467E-1;-8.254728317E-1;2.640794516E0
1.002528078E1;2.906846523E0;4.663410187E-1;1.875744104E0
1.004596978E1;4.894926548E0;4.240703583E-2;-5.195496082E-1
1.006508078E1;6.059144020E0;-8.782958984E-1;-2.849274158E0
1.007541578E1;6.519684792E0;-1.548935890E0;-3.362676859E0
1.008586378E1;6.339605331E0;-2.015699387E0;-3.784581423E0
1.010559978E1;6.501996040E0;-1.598258018E0;-3.371809006E0
1.012524778E1;6.364119530E0;7.366733551E-1;-1.040676355E0
1.013569978E1;6.365496635E0;7.953128815E-1;-6.006777287E-1
1.015510878E1;4.550724030E0;8.696489334E-1;-2.092988491E0
1.016516078E1;2.640725613E0;1.274363518E0;-2.196245670E0
1.018523178E1;-1.591701031E0;2.872363091E0;-1.583336115E0
1.020554278E1;-5.823731899E0;3.562158108E0;8.870705962E-1
1.022503678E1;-4.025427818E0;6.241207123E0;-6.384284496E0
1.023554078E1;-1.374682426E0;6.651273727E0;-7.440282822E0
1.026084978E1;-1.916687012E0;4.225781918E0;-1.430077434E0
1.027532378E1;-1.951693654E0;3.455901623E0;4.144317627E0
1.029558578E1;-1.868417382E0;4.479778290E0;3.220956802E0
1.031511878E1;-1.071979284E0;4.623129845E0;-1.353804827E0
1.033505778E1;-1.982313752E0;5.030746460E-1;4.820160389E0
1.034519278E1;-2.454874992E0;-3.453474045E-1;5.809778690E0
1.035523078E1;-3.292690754E0;-2.652893066E-1;6.619650841E0
1.036524978E1;-4.225565910E0;-1.196012497E-1;6.759173870E0
1.038567178E1;-3.917480946E0;3.950805664E-1;-5.317663193E0
1.040530978E1;2.264314175E0;-2.076335907E0;1.847810745E0
1.041538778E1;4.812907219E0;-4.713994026E0;6.538486004E0
1.043617778E1;6.164357185E0;-7.850880623E0;4.183628559E0
1.045545978E1;7.458148956E0;-1.178722858E1;1.366919041E0
1.047517478E1;9.708091736E0;-1.413547802E1;2.162281990E0
1.048546778E1;9.589421272E0;-1.391061687E1;2.095206261E0
1.050528978E1;2.861556292E0;-1.193880939E1;-5.671969891E0
1.051536278E1;7.404012680E-1;-9.455389023E0;-6.246915817E0
1.053521778E1;-8.737761974E-1;-4.148727417E0;-5.350345612E0
1.054567078E1;-1.673070312E0;-1.544692993E0;-6.208004475E0
1.056509978E1;-7.349061966E-1;1.509350777E0;-5.328899860E0
1.057510178E1;-7.390350103E-1;1.702585697E0;-4.039011002E0
1.058539178E1;-7.188140154E-1;1.373200417E0;-3.625270844E0
1.060506378E1;-7.943582535E-2;4.340267181E-2;-2.937769651E0
1.062580778E1;5.796940327E-1;-5.977306366E-1;-2.072492599E0
1.064560478E1;8.980724812E-1;4.923152924E-1;-1.112091064E0
1.065707578E1;9.605472088E-1;9.450120926E-1;-6.711854935E-1
1.067024928E1;3.828454018E-2;1.243252754E0;7.443912029E-1
1.068643678E1;-7.228335142E-1;1.054012299E0;1.693550229E0
1.070517178E1;-2.025107861E0;2.521953583E-1;2.584698439E0
1.072511178E1;-2.618015051E0;-1.393027306E0;1.730025172E0
1.073561178E1;-2.304887772E0;-2.259091377E0;1.528916359E-1
1.075516578E1;-9.287060499E-1;-3.119823456E0;-2.020035982E0
1.077553978E1;3.873026371E-2;-2.758027077E0;-6.331315041E-1
1.078560978E1;4.298516512E-1;-2.255566597E0;1.034109116E0
1.080505478E1;-1.419072628E0;-8.663406372E-1;4.515118599E0
1.082538378E1;-4.244678617E-1;-5.493822098E-1;3.332451105E0
1.083544678E1;1.385523558E0;-7.745809555E-1;1.435837150E0
1.085521978E1;3.792917490E0;-1.863914490E0;-2.625527382E0
1.087518578E1;2.301945686E0;-1.854492188E0;-6.084475517E-1
1.088529578E1;6.414456367E-1;-1.698118210E0;8.940427303E-1
1.090600278E1;-1.682007790E0;-7.153453827E-1;2.517980099E0
1.092548278E1;-2.320112944E0;5.769405365E-1;2.225429535E0
1.093554978E1;-2.498863697E0;1.172892094E0;1.332593441E0
1.095514278E1;-2.555220842E0;1.901020527E0;9.863779545E-1
1.097513278E1;-2.173578024E0;1.624554634E0;2.035868883E0
1.098523778E1;-1.650870085E0;1.555153847E0;2.576997042E0
1.100523078E1;-3.264085054E-1;1.756066799E0;3.213009596E0
1.102526678E1;-5.649924278E-1;1.337590694E0;5.547979832E0
1.103563178E1;-4.800422788E-1;1.303057671E0;5.783694744E0
1.105521478E1;-7.676957846E-1;1.632182598E0;7.002043247E0
1.107503278E1;-1.152670622E0;2.949726582E0;8.311315536E0
1.108521278E1;-1.463996649E0;3.622987032E0;7.140582085E0
1.109564678E1;-1.561618686E0;4.113832474E0;6.123662949E0
1.111915878E1;-1.991227031E0;4.373520851E0;7.307559013E0
1.113542278E1;-1.648320317E0;4.403619766E0;6.047416210E0
1.115513178E1;2.112167776E-1;4.044540882E0;2.015967846E0
1.116553878E1;9.734644890E-1;3.756792068E0;1.496672630E0
1.118539578E1;9.432193637E-1;3.092141628E0;-2.688121796E-1
1.119539778E1;1.371850014E0;2.250917435E0;-2.066155910E0
1.121504278E1;8.697482944E-1;1.222831726E0;-9.505252838E-1
1.122508378E1;3.468846679E-1;8.853626251E-1;-7.478866577E-1
1.123511578E1;2.633030713E-2;8.922696114E-1;2.456560135E-1
1.125508478E1;-4.323272407E-1;1.622536659E0;2.244316578E0
1.126509378E1;-5.179424882E-1;2.051799297E0;1.923284531E0
1.127603478E1;-2.562870085E-1;2.437361479E0;1.255879879E0
1.128606778E1;-1.987879276E-1;2.520366192E0;6.032381058E-1
1.130514078E1;-2.752676249E0;6.798539162E-1;-6.538568020E0
1.132500378E1;-1.722785234E0;-8.780733109E0;-2.241785622E1
1.133552178E1;1.846286416E0;-1.357542992E1;-1.284869766E1
1.135633378E1;-4.182805717E-1;-1.444683647E1;1.817036438E1
1.137613778E1;-5.570361137E0;6.600992680E0;7.938513756E-1
1.139502778E1;-4.125067234E0;1.129013824E1;6.652626991E-1
1.140523778E1;-1.891530752E0;6.787823677E0;8.986169815E0
1.142502678E1;-7.608140111E-1;-1.435661316E-1;6.753290176E0
1.143944978E1;-7.326662540E-1;-2.786520004E0;5.045125484E0
1.145515378E1;1.384315372E0;-7.909118652E0;-4.793906212E-1
1.147502078E1;1.641390800E0;-8.192450523E0;9.536726475E-1
1.148565878E1;1.747903943E0;-6.527494431E0;1.917893887E0
1.150573178E1;2.646311522E0;-3.194917679E0;2.086488247E0
1.152524578E1;3.305168629E0;-1.255671501E0;-1.395604610E-1
1.153621678E1;2.955639124E0;-9.348411560E-1;-1.047962427E0
1.155553278E1;1.639866590E0;-1.336075783E0;1.335906982E-2
1.157607878E1;1.297767282E0;-1.721619606E0;1.279330850E0
1.159524578E1;2.142848492E0;-3.671474457E-1;5.729328394E-1
1.160565278E1;2.281228065E0;3.161487579E-1;1.153758764E-1
1.162607078E1;2.276030540E0;1.706808567E0;-1.085245490E0
1.164514278E1;2.230753422E0;2.844736576E0;-2.013723373E0
1.165614678E1;1.864073515E0;2.836553097E0;-1.854427338E0
1.167701578E1;2.098499298E0;2.475896358E0;-9.120636582E-1
1.169508378E1;3.437405109E0;1.849726677E0;-1.219433308E0
1.170581878E1;4.250334263E0;1.916797161E0;-1.892789364E0
1.172519578E1;2.054106474E0;2.612050056E0;-2.576768398E0
1.173573178E1;1.831528068E0;3.187892437E0;-2.800796986E0
1.175639778E1;3.209254742E-1;3.700846672E0;5.990242958E-1
1.177500978E1;-4.151675224E0;2.622562885E0;3.420162201E-2
1.178508078E1;-4.209444046E0;1.147130013E0;-4.361773968E0
1.179511378E1;-2.598208666E0;4.707374573E-1;-5.227261066E0
1.181500878E1;1.210232496E0;-1.383715630E0;-3.625005245E0
1.182512278E1;1.577786684E0;-2.251420021E0;-1.901928663E0
1.183520778E1;1.702298641E0;-2.768476486E0;-1.723884583E0
1.185537378E1;1.688881874E0;-3.982771873E0;-3.621364594E0
1.187544378E1;9.484281540E-1;-5.454675674E0;-4.262346745E0
1.189570378E1;-2.432123423E-1;-5.598740578E0;-6.813808441E0
1.191512078E1;-5.468626022E-1;-5.645196915E0;-1.134050369E1
1.192521178E1;-5.669069290E-2;-6.441108704E0;-1.216991615E1
1.194501478E1;8.355233669E-1;-7.113699913E0;-6.475325108E0
1.195505278E1;3.232948780E-1;-6.468677521E0;-3.689754963E0
1.196536678E1;-3.791570663E-2;-5.198771477E0;-2.130336046E0
1.197549378E1;-1.290180922E0;-3.713018417E0;-2.096168518E0
1.198557078E1;-2.305980444E0;-3.595513344E0;-1.294639587E0
1.200506278E1;-3.314851522E0;-3.828433037E0;2.819191217E-1
1.201510278E1;-3.110577822E0;-3.838291168E0;6.548185349E-1
1.203507978E1;-2.504039288E0;-1.445624352E0;4.369487762E0
1.204560178E1;-2.440258265E0;-1.042549133E0;5.226738930E0
1.206507678E1;-3.714132309E0;-2.571491241E0;4.261580944E0
1.207515178E1;-4.052193642E0;-3.420609474E0;3.792623520E0
1.208540778E1;-4.458533764E0;-3.877902985E0;3.647801876E0
1.209547878E1;-2.780707836E0;-3.726341248E0;1.407819271E0
1.211519578E1;6.582416058E0;-4.507776260E0;-9.803195953E0
1.212553878E1;7.343571663E0;-5.146575928E0;-6.455836296E0
1.213557078E1;5.247652054E0;-6.085525513E0;-1.383400440E0
1.215515478E1;9.147861004E-1;-5.428662300E0;2.465000153E0
1.217510678E1;-1.661243558E0;-2.048628330E0;4.356591225E0
1.218648478E1;-1.337824583E0;-1.552354813E0;6.020415306E0
1.220515378E1;2.711539268E-1;-1.173357964E-1;4.022647858E0
1.222534478E1;-1.815140247E-2;5.672755241E-1;2.369431973E0
1.223583278E1;8.756071329E-1;1.147490501E0;3.066955090E0
1.225522378E1;3.852002621E-1;1.065497875E0;8.141447067E0
1.227510978E1;-4.789868891E-1;1.500449657E0;1.386350346E1
1.228586278E1;-1.213183999E-1;2.968685150E0;1.456593895E1
1.230572578E1;2.138219118E0;6.237443924E0;1.028601742E1
1.232523878E1;-5.205055475E-1;6.294743061E0;7.843346119E0
1.233542978E1;-2.670284271E0;5.276043892E0;8.931107521E0
1.235511378E1;-3.712587833E0;4.416743279E0;1.037371349E1
1.237501578E1;1.389586926E-1;4.813917637E0;3.801527500E0
1.238514778E1;2.931872606E-1;4.471640587E0;3.571003437E0
1.240511078E1;3.739259839E-1;4.136383057E0;-1.814247608E0
1.241521378E1;1.220341802E0;3.598234892E0;-6.737551212E0
1.242571278E1;3.123243809E0;3.104323626E0;-1.003529549E1
1.244530278E1;3.766040325E0;2.138753176E0;-6.911826611E0
1.246524678E1;9.676603079E-1;1.419824123E0;7.734045982E-1
1.247542978E1;4.509073496E-2;1.720767498E0;8.530495644E0
1.249561778E1;-3.387472034E-1;4.409642220E0;2.218214989E1
1.250596778E1;-3.153876305E0;4.911091805E0;1.270033455E1
1.252502478E1;-2.086549759E1;-1.778129578E1;-3.233835983E1
1.253541378E1;-8.906785011E0;-2.248296165E1;2.300647736E0
1.255570078E1;3.034597158E0;-9.131860733E0;2.665478897E1
1.257510578E1;1.585252583E-1;1.338117599E1;-1.996516705E0
1.258545378E1;2.353643179E0;1.398969841E1;9.871084213E0
1.259563978E1;1.572088003E0;7.211541176E0;8.598209381E0
1.261506178E1;4.774526954E-1;-1.633215904E0;3.216017723E0
1.262561878E1;-5.765939951E-1;-5.597627640E0;1.687618971E0
1.264018078E1;-1.505345821E0;-8.745779037E0;7.613339424E-1
1.265551878E1;4.377553463E-1;-8.539570808E0;3.392239571E0
1.267504178E1;3.876680851E0;-3.324253082E0;2.317807674E0
1.268575078E1;5.710895061E0;-1.618642807E0;6.281943321E-1
1.270510978E1;6.254429817E0;-1.177883148E0;-3.600261688E0
1.271548278E1;4.948143959E0;-1.936356544E0;-5.197321892E0
1.273605078E1;1.863568544E0;-2.943491936E0;-4.738786697E0
1.275507578E1;1.096114755E0;-1.373065948E0;-3.071465731E0
1.276533578E1;2.218792439E0;1.002750397E0;-7.782982588E-1
1.277567178E1;2.623885632E0;1.586366177E0;-3.245450258E-1
1.279503778E1;2.767189980E0;8.104496002E-1;-1.039667010E0
1.280519478E1;3.696921349E0;6.281671524E-1;-2.109770298E0
1.282539278E1;4.612533092E0;1.034064293E0;-4.317141533E0
1.283640678E1;4.595057011E0;1.135979652E0;-5.115117550E0
1.285513678E1;3.340782881E0;9.205751419E-1;-5.608717918E0
1.287504978E1;1.480214596E-1;1.700897217E0;-4.911651611E0
1.288509578E1;-1.405766964E0;2.494789600E0;-5.246379375E0
1.289517578E1;-2.921609163E0;3.171036243E0;-4.940450668E0
1.290519878E1;-3.658001184E0;3.909746170E0;-4.455329895E0
1.292520278E1;-3.998173952E0;4.785973072E0;-3.587960243E0
1.293520678E1;-2.757708788E0;5.420461655E0;-2.544260502E0
1.295540978E1;-1.608482480E0;4.417159081E0;3.074393511E0
1.297582778E1;-1.073184252E0;4.419059277E0;2.106089592E0
1.299507878E1;-1.525593758E0;4.139149666E0;2.527287960E0
1.300511178E1;-2.009112358E0;3.687077045E0;4.203484058E0
1.302520778E1;-5.011264324E0;2.371498585E0;-1.474803209E0
1.303606078E1;-6.708783150E0;1.341504574E0;-3.424452543E0
1.305534878E1;-5.542624950E0;-1.133563995E0;3.939730406E0
1.307512578E1;-2.581073761E0;-5.302335739E0;2.462015867E0
1.308558678E1;1.869782209E0;-6.721177101E0;4.781517506E0
1.310513978E1;5.871294022E0;-1.023871899E1;1.391002536E0
1.311515078E1;6.144852638E0;-1.182035160E1;1.886041164E0
1.313468328E1;7.826643944E0;-1.381041336E1;1.121709049E-1
1.314516278E1;7.826643944E0;-1.381041336E1;1.121709049E-1
1.315564978E1;7.677334309E0;-1.022801399E1;-5.142547607E0
1.316570978E1;5.939118385E0;-8.952228546E0;-6.756892681E0
1.318550878E1;1.663110971E0;-7.289445877E0;-8.426815033E0
1.320499078E1;-2.847219944E0;-4.002051353E0;-8.935386658E0
1.321579478E1;-1.436198950E0;-1.046404839E0;-8.391611099E0
1.322599578E1;-2.326517105E-1;1.379330158E0;-8.184368134E0
1.323680278E1;2.725038528E-1;2.514650345E0;-8.313295364E0
1.325507078E1;1.699120522E0;2.355827808E0;-8.042136192E0
1.326537378E1;2.734661579E0;2.021338463E0;-7.500615597E0
1.328570478E1;5.144346714E0;7.175216675E-1;-5.295054436E0
1.330713078E1;3.946593285E0;-4.134969711E-1;-1.131401181E0
1.332531078E1;2.566983700E-1;-8.660049438E-1;9.925733805E-1
1.333539878E1;-1.475358725E0;-1.753416061E0;2.068880796E0
1.335518278E1;-5.122186661E0;-4.468914986E0;3.773836136E0
1.336523678E1;-4.390867233E0;-4.232646942E0;3.150305748E0
1.338688478E1;-2.617371559E0;-2.590534210E0;1.542621493E0
1.340550878E1;-1.068475723E0;-9.774913788E-1;-5.188660622E-1
1.341559278E1;-9.472180009E-1;-1.223691940E0;-1.450200319E0
1.343506778E1;-4.124796391E-2;-2.615429878E0;-3.287486553E0
1.345537378E1;-4.779194593E-1;-4.312099457E0;-2.638316870E0
1.346553978E1;-8.312091827E-1;-4.868488312E0;-9.284491539E-1
1.348577078E1;-6.546978951E-1;-4.970059395E0;1.928399324E0
1.350528278E1;-8.970816135E-1;-4.152487755E0;2.631667614E0
1.352525778E1;-1.934790969E0;-4.702750206E0;-1.029268742E0
1.353658078E1;-2.884482861E0;-4.369841576E0;-1.938094139E0
1.355523278E1;-2.296576023E0;-3.355491638E0;4.688024521E-1
1.357509878E1;-1.621381044E0;-2.551079273E0;3.155083418E0
1.358525178E1;-8.355941772E-1;-1.799114227E0;3.796600580E0
1.360548178E1;1.974506736E0;-8.529329300E-1;5.454661369E0
1.361584978E1;3.379430056E0;-3.481483459E-1;7.530213833E0
1.363508678E1;4.709125042E0;6.548862457E-1;1.042732334E1
1.364549778E1;4.929171562E0;1.482183456E0;1.046853447E1
1.365627778E1;4.622978687E0;2.196992159E0;9.948743820E0
1.367517478E1;4.161546230E0;3.341762543E0;6.616669655E0
1.368583878E1;3.552128553E0;3.382238865E0;6.809797287E0
1.370515878E1;2.161786079E0;2.837580204E0;1.112251091E1
1.371516178E1;8.078720570E-1;2.564046860E0;1.240250015E1
1.373519478E1;-1.098903418E0;4.709937096E0;1.164749908E1
1.374540978E1;-1.219974279E0;7.097172737E0;9.144861221E0
1.375579378E1;-2.397271156E0;6.904316902E0;7.745135784E0
1.377594978E1;-2.036344051E0;5.911538124E0;4.266890049E0
1.378600378E1;-1.217027426E0;4.787380219E0;1.876127243E0
1.380753978E1;9.720505476E-1;2.940516710E0;-1.355250359E0
1.382512778E1;2.588793755E0;3.560411453E0;-2.388819695E0
1.383547278E1;2.531292439E0;3.783592939E0;-4.018273354E0
1.385518978E1;1.954918861E0;5.163105965E0;-4.442790985E0
1.387501978E1;1.412340164E0;6.146851063E0;-5.144504547E0
1.388518878E1;3.673052788E-1;6.405688763E0;-5.266201973E0
1.390625078E1;-7.052190304E-1;6.520504951E0;-3.261865616E0
1.392509778E1;-1.155259848E0;5.559413910E0;-2.340641975E0
1.393510778E1;-2.583902597E0;4.950472832E0;-4.557122231E0
1.394534078E1;-6.802229881E0;1.204019189E0;-1.386709213E1
1.395574978E1;-4.768754959E0;-5.294811726E0;-1.037454414E1
1.396611578E1;-7.928171158E-1;-1.199441147E1;1.123685837E0
1.398630978E1;-1.415226698E0;-8.533993721E0;-2.881441116E-1
1.400544778E1;-2.471287966E0;2.626999855E0;1.420324135E1
1.402507278E1;-3.549685001E0;9.740304947E0;3.367044449E0
1.403512178E1;-3.872346878E-1;4.755139828E0;3.451017380E0
1.404522778E1;1.829642892E0;-3.736209869E-1;3.146616936E0
1.406523978E1;-3.784220219E-1;-7.792559624E0;-3.553161621E-1
1.408648478E1;-3.152282953E0;-9.163988113E0;3.583277702E0
1.410533578E1;-2.223004341E0;-1.893821716E0;4.423690319E0
1.412512078E1;-2.365166187E0;1.787214279E0;4.061156273E0
1.413546178E1;-2.258866310E0;1.329029083E0;3.800984144E0
1.415571578E1;-9.380931258E-1;8.591375351E-1;4.493253231E0
1.416615078E1;3.353834450E-1;6.898970604E-1;3.835932493E0
1.417658178E1;1.509348392E0;1.976838112E-1;4.406902313E0
1.419507378E1;1.513059735E0;-1.461855888E0;5.678137779E0
1.420517678E1;1.384598017E0;-2.102098942E0;5.687184334E0
1.422500278E1;1.926153302E0;-3.055180550E0;5.328335285E0
1.423590578E1;2.519561291E0;-3.303646088E0;5.413391113E0
1.425609478E1;2.711683273E0;-4.118574142E0;3.650624990E0
1.427500378E1;2.001997471E0;-4.770476341E0;2.778697252E0
1.428530478E1;2.444680214E0;-5.215048790E0;2.658305645E0
1.430538478E1;3.183527470E0;-4.825335503E0;-5.443899632E-1
1.432525478E1;2.255286217E0;-3.391385078E0;-2.472551107E0
1.433538478E1;1.158052206E0;-2.628112793E0;-2.359355927E0
1.435504578E1;1.766492128E0;-1.739180565E0;-1.877690673E0
1.436530378E1;3.521181583E0;-3.304643631E-1;-2.258682728E0
1.438593278E1;5.084108353E0;2.419471264E0;-2.932832241E0
1.440504778E1;4.244060516E0;3.365264416E0;8.475748897E-1
1.441571378E1;3.964390278E0;2.666230679E0;-5.046317577E-1
1.443537378E1;4.054719925E0;2.357533455E0;-3.321437597E0
1.445518478E1;4.251339436E0;2.695657730E0;-3.889973164E0
1.446631278E1;3.345206738E0;2.969039440E0;-3.600083828E0
1.448629878E1;1.470838547E0;4.226174355E0;-3.094236374E0
1.450531678E1;-4.844956398E-1;5.346755981E0;-1.785359025E0
1.451532978E1;-1.613821030E0;5.437017918E0;-8.456547260E-1
1.453599378E1;-4.022598743E0;3.367070675E0;-2.420107841E0
1.455522378E1;-1.883828640E-2;1.963935375E0;-5.506751537E0
1.457504978E1;3.639030457E0;2.211427689E-1;-2.829487085E0
1.458530078E1;3.640298605E0;-2.544050217E-1;-1.339752197E0
1.460515378E1;2.310326576E0;-1.774888992E0;-9.180200100E-2
1.462517078E1;1.692330360E0;-3.078479767E0;-1.017562032E0
1.464246978E1;1.028233767E0;-3.890941620E0;-8.050088286E-1
1.465522978E1;-4.603219032E-2;-5.957444191E0;-7.493681908E-1
1.466631378E1;-1.084494591E-2;-7.125878334E0;-1.887380958E0
1.468512278E1;2.542567730E0;-8.119061470E0;-4.291477680E0
1.469515778E1;4.254893780E0;-8.039289474E0;-5.153692722E0
1.470789378E1;4.578964233E0;-8.519679070E0;-7.738590240E0
1.472513078E1;-9.308812618E-1;-7.349458694E0;-5.554223061E0
1.473574778E1;-2.579236269E0;-5.798286438E0;-8.189347267E0
1.475508978E1;-1.708472848E0;-1.346894264E0;-7.551429272E0
1.476513278E1;-8.016663790E-1;-2.432050705E-1;-4.669025421E0
1.477513978E1;-2.339363098E-1;-8.875656128E-2;-2.062883615E0
1.478579278E1;3.396232128E-1;-4.660711288E-1;-4.726911783E-1
1.480533578E1;-1.702378988E0;-8.656339645E-1;2.248713493E0
1.482502978E1;-2.553390265E0;-4.138169289E0;3.650431156E0
1.483511478E1;-3.360933065E0;-5.920385361E0;4.513249397E0
1.484518278E1;-3.767572880E0;-7.367998123E0;4.418326855E0
1.486511478E1;-5.142519951E0;-9.500049591E0;2.405858278E0
1.488513778E1;-5.313096046E0;-9.315463066E0;-1.656600475E0
1.490518478E1;-1.605007648E0;-5.652062416E0;-2.215038300E0
1.492538278E1;1.964906693E0;-3.965113640E0;-1.527807713E0
1.494510378E1;1.645286560E0;-4.653308392E0;2.702969313E0
1.496512078E1;7.519721985E-4;-5.243739605E0;4.982655048E0
1.498500578E1;-1.188586116E0;-4.882941723E0;4.168780804E0
1.499518178E1;-2.993392944E-1;-5.583485603E0;3.906295538E0
1.501660178E1;-2.776858807E-1;-5.363935471E0;1.642608166E0
1.503543278E1;2.191379070E0;-3.629301071E0;3.802123308E0
1.505513678E1;4.555702209E0;-1.425997734E0;1.073960018E1
1.506542478E1;4.192126751E0;-3.039364815E-1;1.504295540E1
1.508532278E1;2.756180286E0;1.977725744E0;1.566938019E1
1.510517278E1;3.279495239E0;3.371397972E0;1.119709587E1
1.512507178E1;2.256743908E-1;4.777143002E0;1.262963963E1
1.513556278E1;-8.169236183E-1;4.881898403E0;1.238454056E1
1.515506478E1;-2.526086807E0;5.688089848E0;9.115505219E0
1.516517378E1;-2.571673393E0;6.134909630E0;6.980062485E0
1.517581378E1;-2.277549744E0;6.034190178E0;4.780467510E0
1.519522478E1;-5.266087055E-1;5.156785488E0;3.090189457E0
1.521623878E1;2.157677174E0;4.500547886E0;-1.408632278E0
1.522642378E1;2.482511759E0;3.721287727E0;-2.786453247E0
1.523726278E1;2.306057692E0;3.096242905E0;-3.152506828E0
1.525539978E1;1.045137644E0;3.348311424E0;-4.414604187E0
1.527561278E1;3.837236166E-1;5.475611687E0;-3.724493027E0
1.528593878E1;-1.376671553E0;6.395264626E0;-4.414127350E0
1.530518778E1;-8.194597244E0;6.354524612E0;-1.243112659E1
1.531520778E1;-7.530373573E0;-1.709715128E0;8.006935120E-1
1.533536978E1;-6.325149536E0;-2.895601511E0;-3.796052933E-1
1.534549978E1;-7.334333420E0;-3.174087048E0;-4.361828804E0
1.535624978E1;-3.211817026E0;-2.302251577E0;5.118018150E0
1.537513478E1;8.711262941E-1;-1.476514339E0;6.575149536E0
1.538555778E1;-1.262246966E0;-2.460167885E0;5.179464340E0
1.540548178E1;-1.282398343E0;-2.789705276E0;3.800647259E0
1.542523378E1;-1.956955194E-1;-3.588267803E0;2.644593716E0
1.543537878E1;-4.897764921E-1;-4.008589745E0;1.792694569E0
1.545520078E1;-1.817184687E0;-4.470300198E0;1.228008270E0
1.547503678E1;-1.399836183E0;-3.990018845E0;2.414875507E0
1.548507378E1;-9.164987803E-1;-3.456454754E0;2.743029118E0
1.549507778E1;-7.255626321E-1;-2.852729321E0;3.238268852E0
1.550511278E1;-6.629238129E-1;-2.120065689E0;4.220189571E0
1.551577878E1;-9.403291345E-2;-1.225929260E0;4.238300800E0
1.553523378E1;6.371345520E-1;-1.206201553E0;4.778967857E0
1.555511078E1;1.009357333E0;-2.510351181E0;3.807439566E0
1.556514578E1;1.174138784E0;-3.197269440E0;3.137774944E0
1.557516278E1;1.096700668E0;-3.634306908E0;2.646313906E0
1.558559178E1;1.001781702E0;-3.908244133E0;1.993265152E0
1.560516878E1;1.923719525E0;-3.532893181E0;2.186245918E-1
1.561520878E1;2.182134390E0;-3.083800316E0;-4.768660069E-1
1.562534178E1;2.528502226E0;-2.807106972E0;-6.413929462E-1
1.563570878E1;3.132417440E0;-2.256382942E0;-9.020545483E-1
1.565508278E1;4.038954258E0;-4.778051376E-1;-2.403053284E0
1.566539878E1;4.202775955E0;3.596096039E-1;-3.166155815E0
1.567543978E1;4.441595078E0;1.336400986E0;-3.348543644E0
1.568545778E1;4.192174911E0;2.188731194E0;-3.272024870E0
1.569623778E1;2.956800461E0;2.736208916E0;-2.343725920E0
1.571546678E1;2.299013138E0;2.586728573E0;-4.885095358E-1
1.573550878E1;3.252635002E0;2.797254562E0;-7.640104294E-1
1.575510878E1;2.831152916E0;3.189247608E0;-2.242234230E0
1.576511478E1;2.307816029E0;3.227229595E0;-2.547789335E0
1.578554478E1;1.921073914E0;3.677364349E0;-2.634980440E0
1.579563878E1;1.215114117E0;3.836277008E0;-2.312521219E0
1.581509678E1;-2.608432770E0;3.433607578E0;-6.850596666E-1
1.582514978E1;-4.244319916E0;2.831420422E0;-5.418377519E-1
1.583589178E1;-4.713984489E0;2.346068859E0;-2.280810356E0
1.585515578E1;-4.218529701E0;2.066737175E0;-6.577256203E0
1.587504778E1;-3.955254555E-1;2.208888531E0;-4.813671589E0
1.588532378E1;1.046833754E0;1.865937233E0;-2.870746613E0
1.590499578E1;4.242532253E0;-6.840648651E-1;-2.108242512E0
1.591507178E1;4.551415920E0;-1.622612000E0;-2.470222235E0
1.592526178E1;4.346101761E0;-2.755895615E0;-1.706707001E0
1.593536878E1;4.053441525E0;-3.485757828E0;-6.896119714E-1
1.595635478E1;3.243076086E0;-3.721521378E0;-2.356079221E-1
1.597504378E1;1.261193991E0;-3.377880096E0;4.782208204E-1
1.598616378E1;3.715004921E-1;-3.755305290E0;-1.360867023E-1
1.600537278E1;-3.307662010E-1;-5.179865837E0;-2.099802494E0
1.602568978E1;-2.398292303E0;-5.061457634E0;-5.167557716E0
1.603570778E1;-3.398949146E0;-4.453598976E0;-7.948469162E0
1.605518078E1;-1.407656193E0;-4.080516815E0;-7.203428745E0
1.606563278E1;4.705560207E-1;-4.619777679E0;-6.518825054E0
1.608523478E1;3.091992855E0;-5.742641449E0;-4.833314419E0
1.610504678E1;-4.734566212E-1;-1.572254181E0;9.368745685E-1
1.612578878E1;-2.812124729E0;-2.578536034E0;-1.828350067E0
1.614528778E1;-3.831850529E0;-3.171690941E0;-2.128657579E0
1.616537978E1;-3.920491457E0;-3.772318840E0;2.616507530E0
1.618523578E1;-3.377204418E0;-3.885925293E0;6.109370708E0
1.620521478E1;-2.209567308E0;-3.491115570E0;5.463264465E0
1.622522978E1;-2.513118267E0;-3.557140350E0;3.617553473E0
1.624518978E1;-1.833911419E0;-4.313108444E0;-5.478024483E-2
1.625586478E1;7.379345894E-1;-4.665473938E0;-4.707777977E0
1.627504478E1;1.609881878E0;-5.143163681E0;-3.747176170E0
1.628536278E1;-1.757916570E0;-2.565555573E0;4.030844212E0
1.630528078E1;-2.439089298E0;4.466047287E-1;7.523331165E0
1.632566578E1;-1.418756485E0;1.785398960E0;6.011812687E0
1.633586678E1;-6.329884529E-1;2.143496990E0;3.967523336E0
1.635503878E1;-1.326994658E0;1.104214668E0;-2.200134754E0
1.636533578E1;-2.508290291E0;1.657543182E-1;-1.500199795E0
1.638536778E1;-2.196397305E0;2.242345810E-1;3.391225815E0
1.640515578E1;-6.357738376E-1;1.487930775E0;7.244746685E0
1.641522678E1;-1.621644497E-1;1.749917984E0;7.852778912E0
1.643656578E1;7.809675932E-1;2.516622543E0;8.050129890E0
1.645518478E1;1.457425356E0;3.894868612E0;8.538505554E0
1.647501978E1;9.260661602E-1;5.282518864E0;1.038678455E1
1.648538578E1;-4.239463508E-1;6.418366432E0;6.317841530E0
1.650529078E1;-1.914891720E0;6.098397732E0;3.812312365E0
1.651536778E1;-2.063386202E0;5.819996834E0;2.217056751E0
1.653518878E1;9.084355235E-1;4.973347664E0;-2.093090057E0
1.655512278E1;4.310828686E0;3.093239784E0;-1.498237133E0
1.656525178E1;3.688038349E0;2.073195457E0;-1.788165569E0
1.658520178E1;-5.503603220E-1;-5.680146217E-1;-8.845533371E0
1.659567378E1;-1.489713311E0;-1.671238422E0;-6.273384094E0
1.661508078E1;-2.744546413E0;-3.888395786E0;5.691137314E0
1.662515278E1;-2.676176071E0;-4.912295818E0;1.348867893E0
1.663581978E1;-3.507309675E0;-7.247100353E0;-4.926937580E0
1.664917078E1;-4.717934608E0;-4.937004089E0;7.706267357E0
1.666529178E1;-4.693159103E0;-1.634398937E0;3.542934895E0
1.667778278E1;-1.953117728E0;-1.121211052E-1;5.724646091E0
1.669514978E1;-5.689792633E-1;-1.603537560E0;3.465609074E0
1.670519378E1;-4.345864058E-1;-2.844775200E0;2.927134752E0
1.672606078E1;-8.719444275E-3;-5.489637375E0;2.612174988E0
1.674515678E1;1.854752779E0;-7.175929070E0;2.740777016E0
1.675519378E1;3.134457588E0;-6.848285675E0;1.523648739E0
1.677513378E1;4.114714146E0;-3.610604286E0;1.461777687E-1
1.678571078E1;4.287418365E0;-2.240349770E0;-4.791548252E-1
1.680519578E1;4.115294456E0;-2.592124939E-1;-8.952064514E-1
1.682561778E1;4.224909782E0;1.397524834E0;-1.853629947E0
1.684503078E1;3.044488907E0;2.147792339E0;-2.378378153E0
1.685513678E1;1.880444765E0;2.194737434E0;-2.538212061E0
1.687505878E1;1.245063543E0;2.260858536E0;-2.035386562E0
1.688508378E1;8.497952223E-1;1.526742935E0;-1.885891438E0
1.689509478E1;9.574295282E-1;1.733277798E0;-2.327542782E0
1.690517278E1;1.045639753E0;2.186466217E0;-2.593895435E0
1.692517478E1;1.211328506E0;3.262136936E0;-2.467698336E0
1.694501078E1;1.735827088E0;3.942536831E0;-1.853838086E0
1.695560878E1;1.412936330E0;4.117796898E0;-1.062291384E0
1.697512578E1;-7.858263254E-1;3.799335480E0;-1.280748248E0
1.698589378E1;-7.744770646E-1;3.527460098E0;-1.388964891E0
1.700546678E1;1.820672631E0;2.595663548E0;-1.043623447E0
1.702509778E1;1.890549541E0;5.729026794E-1;-1.476347446E0
1.703749278E1;2.580339670E0;-1.190143585E0;-3.490144014E0
1.705063378E1;2.775348425E0;-1.990748405E0;-4.006538868E0
1.706523878E1;2.817183018E0;-2.977187157E0;-4.622391701E0
1.708519178E1;7.850272655E-1;-5.831710815E0;-7.944769382E0
1.710522278E1;-9.900736809E-1;-4.864239693E0;-1.223352051E1
1.712527678E1;-2.509109497E0;-5.098226547E0;-1.271564865E1
1.713812778E1;-3.538616180E0;-6.222304344E0;-1.027236557E1
1.715063378E1;-4.986944675E0;-6.628426552E0;-3.124431133E0
1.716507978E1;-4.742650509E0;-6.231018066E0;-1.448889971E0
1.717517678E1;-4.221864700E0;-6.150150299E0;-6.550917625E-1
1.718582778E1;-3.266619205E0;-5.791730881E0;6.080150604E-2
1.720513378E1;-1.789448261E-1;-2.867190361E0;2.299456596E0
1.721513378E1;9.009615183E-1;-2.112171173E0;3.021607637E0
1.723514878E1;2.484725952E0;5.513782501E-1;3.080265522E0
1.725543078E1;1.050355196E0;-2.651747704E0;5.130908489E0
1.727523878E1;-3.012711287E0;-6.959982872E0;1.164155293E1
1.729517178E1;-4.294859886E0;-4.602588654E0;7.647310257E0
1.730525678E1;-3.796330214E0;-3.686743736E0;-6.341581345E-1
1.732529378E1;-3.355628967E0;-4.708751678E0;-1.322387600E1
1.734522978E1;-5.012291908E0;-3.573868752E0;-1.014405727E0
1.735535778E1;-4.691234589E0;-2.516447544E0;5.667811871E0
1.737518178E1;-1.002065897E0;1.653163910E0;9.714325905E0
1.738554778E1;5.665531158E-1;2.670693398E0;7.475502491E0
1.740550178E1;1.966450572E0;2.869377136E0;1.223881245E0
1.742530378E1;5.217645168E-1;1.264517307E0;1.752845764E0
1.743558378E1;2.480745316E-3;1.218006611E0;2.669825077E0
1.745605778E1;-9.004924297E-1;2.831287146E0;2.565678120E0
1.747504678E1;-4.158914685E-1;1.977418900E0;4.487479210E0
1.748509778E1;6.097168326E-1;1.970234394E0;8.029305458E0
1.749510778E1;1.580692172E0;2.741545200E0;1.151840401E1
1.750516578E1;2.101709843E0;4.003312111E0;1.497991657E1
1.752533178E1;-5.350222588E-1;6.786846638E0;1.309865570E1
1.754501178E1;-3.950953960E0;7.449910641E0;3.159825325E0
1.755523378E1;-5.666653633E0;6.763255119E0;2.054826260E0
1.757498578E1;-4.410103321E0;6.304998398E0;-4.568572044E-1
1.758541278E1;4.961615801E-1;5.991024494E0;-3.371659279E0
1.760507578E1;4.202109814E0;2.785978794E0;-2.009546280E0
1.761522078E1;3.374225616E0;1.663622856E0;9.126839638E-1
1.763518878E1;-3.058538437E0;7.384552956E-1;5.946877480E0
1.764554778E1;-4.809386253E0;-5.095200539E-1;8.673835754E0
1.765631278E1;-4.794667244E0;-5.633531094E0;-2.118536377E1
1.767517278E1;-1.528523326E0;-1.536208725E1;2.573191643E0
1.768587878E1;-3.215512991E0;-1.415351868E1;8.384820938E0
1.770537878E1;-5.570805073E-1;-3.510475159E-3;1.390518188E0
1.772510778E1;2.196963310E0;7.522840023E0;3.901671410E0
1.773570078E1;1.996257782E0;6.390612125E0;4.945213318E0
1.775523478E1;5.796992779E-2;8.787932396E-1;4.482205868E0
1.777510578E1;-1.483569145E-1;-4.329008102E0;3.033743382E0
1.778512578E1;1.971071959E-1;-6.468797684E0;1.805115819E0
1.779513178E1;1.841778755E-1;-8.490035057E0;9.580996037E-1
1.781514178E1;1.306132674E0;-7.821885109E0;-1.222880602E0
1.783569978E1;3.032928467E0;-4.204986572E0;-2.359809875E0
1.785512278E1;3.337315321E0;-5.354518890E-1;-1.056263685E0
1.787499478E1;2.963304281E0;7.037820816E-1;2.193202972E-1
1.788526678E1;3.184950829E0;8.398780823E-1;-9.269952774E-3
1.790506378E1;2.739705801E0;1.235777855E0;-1.659870386E0
1.791512378E1;2.078333139E0;1.722815037E0;-2.801164627E0
1.792574378E1;1.541285276E0;2.035706520E0;-3.360556602E0
1.794509478E1;1.308706045E0;2.705790997E0;-2.654371738E0
1.795512578E1;1.675391674E0;3.102832794E0;-2.115174294E0
1.796514378E1;2.238799572E0;3.281751633E0;-1.729857683E0
1.798527178E1;2.819207907E0;3.018024445E0;-8.322118521E-1
1.799536078E1;2.148669243E0;3.002276897E0;3.720253706E-1
1.801544578E1;4.690551758E-2;3.088670731E0;-3.895762563E-1
1.803561778E1;-2.873374701E0;2.971134663E0;-2.493662596E0
1.805509978E1;-2.493565083E0;3.678780556E0;-1.088884234E0
1.806519478E1;-2.305604935E0;3.455040932E0;-2.690057456E-1
1.808538378E1;-1.044920683E0;2.165708542E0;2.870336175E-1
1.810533478E1;1.234118104E0;6.198520660E-1;-6.948807836E-1
1.812506078E1;3.109738350E0;-3.377141953E-1;-1.844647646E0
1.813543078E1;3.646232128E0;-8.852138519E-1;-2.142925739E0
1.815514678E1;3.846820354E0;-2.417846680E0;-2.744667053E0
1.816533978E1;4.134199142E0;-3.120612144E0;-3.045192719E0
1.818573278E1;3.580602169E0;-4.837646484E0;-3.352869034E0
1.820523378E1;2.147589684E0;-5.556944847E0;-4.538614273E0
1.822504678E1;7.216602564E-1;-5.939093590E0;-6.203256607E0
1.823511978E1;-1.059633493E-1;-6.141570091E0;-5.809490204E0
1.825539078E1;-1.250117064E0;-6.415607452E0;-3.094477654E0
1.826562378E1;-1.787863374E0;-6.299475670E0;-4.488337040E0
1.828536278E1;-1.823586106E0;-3.755470276E0;-7.365234375E0
1.829539478E1;-1.109222651E0;-2.777057648E0;-8.433160782E0
1.831513278E1;-4.904758930E-1;-2.078160286E0;-1.136095905E1
1.833542678E1;-1.600260735E-1;-2.267603874E0;-7.707645416E0
1.834561478E1;-6.674540043E-2;-2.732883453E0;-3.188640594E0
1.836505378E1;-2.139019251E0;-3.787945747E0;6.781787872E0
1.837517978E1;-2.242087841E0;-2.848411560E0;7.778986931E0
1.838547878E1;-2.061207771E0;-2.078455925E0;7.183174610E0
1.840509978E1;-3.102632046E0;-4.780690193E0;5.416728020E0
1.842500878E1;-5.946702957E0;-7.325390816E0;2.639443636E0
1.843554378E1;-6.700865746E0;-7.346944809E0;-1.675920010E0
1.845542778E1;-3.539333344E0;-6.323533058E0;-1.362683678E1
1.846572778E1;-3.062387466E0;-6.146146774E0;-7.743120193E0
1.848523378E1;-1.358003378E0;-4.526150703E0;2.086118221E0
1.849543678E1;-1.204139948E0;-4.221429825E0;6.535285473E0
1.850627678E1;1.942076683E-1;-3.477494240E0;8.710746765E0
1.852551978E1;1.482765198E0;-2.728684425E0;5.987921715E0
1.854525178E1;-3.362867832E-1;-3.797799110E0;-6.370997429E-1
1.855568378E1;7.354784012E-2;-4.719675541E0;-2.886947632E0
1.857499078E1;1.061148643E0;-5.637248039E0;-1.431632042E0
1.858519878E1;9.319393635E-1;-5.272685528E0;5.904340744E-1
1.859532078E1;1.250965595E0;-4.106236458E0;2.766113281E0
1.861519878E1;1.616574526E0;-2.793249130E0;6.301629066E0
1.862539378E1;1.817960262E0;-2.272996426E0;8.930589676E0
1.864510078E1;2.070612907E0;1.901901245E0;1.192953873E1
1.865699378E1;1.676145315E0;3.293908834E0;1.055114746E1
1.867515278E1;5.143039227E-1;4.905065060E0;9.005468369E0
1.868523078E1;-6.740244627E-1;5.072078228E0;8.600288391E0
1.870614778E1;-1.018519402E0;4.868304729E0;8.869349480E0
1.872505978E1;1.245422721E0;4.413319588E0;9.074725151E0
1.873599478E1;2.656857967E0;4.793817520E0;9.072116852E0
1.875503978E1;3.019017696E0;4.979649544E0;8.235097885E0
1.876524678E1;2.579411268E0;5.247443199E0;7.991808414E0
1.878536578E1;8.608675003E-2;6.610493660E0;5.690421581E0
1.880568778E1;3.461003304E-1;7.447145462E0;1.544259071E0
1.882502478E1;1.238228321E0;6.175745010E0;-2.259737015E0
1.883536878E1;1.620534301E0;4.800270081E0;-3.938919067E0
1.885559378E1;-1.643857956E-1;4.405884743E0;-6.407236099E0
1.886579878E1;-1.790322781E0;5.186975479E0;-1.140552235E1
1.888532378E1;-1.340007496E1;1.653350592E0;-2.954608536E1
1.889580978E1;-8.991323471E0;-7.578697205E0;-1.012774181E1
1.891498878E1;2.746841431E0;-4.630303383E0;7.978213310E0
1.893514378E1;-6.264997482E0;5.374261856E0;1.183042336E1
1.895509678E1;-1.018529892E1;7.941213608E0;1.248914242E0
1.897503978E1;4.446346283E0;-5.498989105E0;5.092582703E0
1.898522378E1;5.395488739E-1;-7.910569668E0;3.480782986E0
1.900526478E1;4.154033661E-1;-3.098345757E0;3.990516663E-1
1.902517778E1;-4.966957092E0;-6.159248352E-1;3.546848297E0
1.903635078E1;-2.842295885E0;4.370307922E-2;3.276163578E0
1.905517078E1;5.413036346E-1;-9.677639008E-1;2.486450672E0
1.906521878E1;1.600379467E0;-1.703199387E0;2.799581528E0
1.908546278E1;1.989900827E0;-2.487405777E0;2.506264210E0
1.909554478E1;1.616955876E0;-2.405825615E0;2.232245922E0
1.911517178E1;9.146804810E-1;-1.359107971E0;1.441785336E0
1.913551778E1;1.260953665E0;-6.271276474E-1;1.987961292E0
1.915516978E1;8.740560412E-1;-1.134144783E0;2.697235346E0
1.916546778E1;4.112994075E-1;-1.461457729E0;3.022023678E0
1.918538278E1;-1.011590958E-1;-1.752774239E0;2.374383211E0
1.919576478E1;2.394824028E-1;-1.792741776E0;2.365070581E0
1.921502878E1;5.208992958E-1;-2.032280922E0;2.218710423E0
1.922508478E1;8.926046491E-1;-2.149671555E0;1.750385761E0
1.923511878E1;5.294888616E-1;-2.916693687E0;8.867359161E-1
1.924516878E1;9.373571873E-1;-2.721081734E0;3.899111748E-1
1.926507178E1;2.515074730E0;-1.755104065E0;-3.669350147E-1
1.928524278E1;2.935683250E0;-6.668443680E-1;-1.450731993E0
1.930502178E1;3.050280094E0;2.060194016E-1;-9.150054455E-1
1.932535478E1;2.494833946E0;5.969285965E-1;-1.103652716E0
1.933744478E1;2.266509533E0;3.319196701E-1;-9.469267130E-1
1.935041028E1;2.570899487E0;6.664609909E-1;-6.550111771E-1
1.936520678E1;1.992208123E0;1.103766441E0;-7.039414644E-1
1.937538778E1;2.179536104E0;1.208073616E0;-1.252875447E0
1.938559778E1;2.555322886E0;1.265625954E0;-2.254523277E0
1.940504678E1;4.152122498E0;1.888198853E0;-3.336824656E0
1.942500978E1;4.980010509E0;2.466521263E0;-3.435044765E0
1.943646978E1;2.606233597E0;3.017117500E0;-2.952909946E0
1.945509578E1;-1.050508022E0;2.790625095E0;-1.275838852E0
1.946513278E1;-1.801105261E0;3.010640621E0;-1.096194863E0
1.948528078E1;-1.880196333E0;3.713764668E0;-4.023517132E0
1.950542878E1;-1.617841125E0;4.095540524E0;-5.887481689E0
1.952507878E1;-8.370252848E-1;3.312652111E0;-1.806082010E0
1.953540478E1;-8.015046120E-1;3.138437748E0;1.757073402E-2
1.955537178E1;2.333736420E-1;3.342628002E0;2.237607002E0
1.956548778E1;-3.682711124E-1;2.777867317E0;2.732427120E0
1.957551578E1;-1.452134371E0;2.099127769E0;1.247329950E0
1.958571978E1;-1.947277069E0;1.871045113E0;-2.001672506E0
1.960506778E1;-1.443614721E0;1.807445526E0;2.458988190E0
1.961531978E1;-1.519122005E0;1.035409927E0;8.221138000E0
1.963650478E1;-3.517358541E0;2.772558689E0;-6.398927689E0
1.964966878E1;-2.687660217E0;8.564558029E-1;-9.031962156E-1
1.966593578E1;2.418572903E-1;-3.896911621E0;7.709371090E0
1.968505378E1;2.463455439E0;-7.570175171E0;2.404410839E0
1.970569578E1;3.853848696E0;-9.451447487E0;-1.669011593E0
1.972526778E1;4.331967354E0;-1.042543602E1;1.317230701E0
1.974508678E1;4.720357418E0;-1.064120960E1;2.082001448E0
1.975519578E1;6.120850086E0;-1.101556110E1;1.666984200E0
1.977503978E1;6.700128555E0;-1.192757225E1;-3.050692797E0
1.978550978E1;4.822253227E0;-1.125786781E1;-3.338809013E0
1.980517878E1;-1.831484795E0;-6.398303032E0;-3.637464762E0
1.982513778E1;-4.217669964E0;2.087659359E0;-4.606088638E0
1.983532178E1;-2.884453297E0;3.469947815E0;-3.606682539E0
1.985513578E1;-7.307409048E-1;3.881019592E0;-3.857266426E0
1.987538578E1;1.434337497E0;1.079350471E0;-4.823534489E0
1.989557578E1;3.458098888E0;9.379196167E-2;-1.687311053E0
1.991517478E1;2.899447441E0;1.251759529E0;4.769873619E-2
1.993556778E1;1.627633691E0;2.915487289E0;2.472895980E-1
1.995603478E1;-1.052022696E0;2.291698933E0;1.059707165E0
1.997521378E1;-2.208611250E0;1.227957726E0;1.577999353E0
1.998559878E1;-2.574523211E0;1.166467667E-1;1.871212125E0
2.000562178E1;-4.436196327E0;-4.195161819E0;2.008165836E0
2.002506578E1;-3.665396214E0;-4.107522964E0;1.998862743E0
2.003566078E1;-2.921226978E0;-3.201107979E0;1.934379220E0
2.004578378E1;-2.458990574E0;-2.230857849E0;1.772657156E0
2.006506978E1;-2.084798098E0;-1.253927231E0;1.223623991E0
2.008553978E1;-1.469184160E0;-8.535566330E-1;1.201357841E-1
2.009580478E1;-1.197353721E0;-7.739877701E-1;1.832406521E-1
2.011538778E1;-9.415090084E-1;-5.581150055E-1;1.315758705E0
2.013535978E1;-4.864174724E-1;1.731061935E-1;2.907699347E0
2.015503978E1;-1.298758268E0;2.046563148E0;4.755162239E0
2.016524978E1;-1.436261773E0;2.939972878E0;4.742956161E0
2.018558378E1;-6.065434217E-1;3.164973736E0;4.007914066E0
2.020503678E1;-3.413028717E-1;1.867999554E0;1.881310940E0
2.021506078E1;7.195581198E-1;-2.698783875E-1;-4.476625443E0
2.022513678E1;1.115114689E0;-8.897495270E-1;-5.081553459E0
2.023515378E1;1.123412251E0;-1.325396538E0;-3.694573402E0
2.024526978E1;7.146268487E-1;-1.496992111E0;-1.456582546E0
2.025606178E1;3.887281418E-1;-1.307863235E0;9.250993729E-1
2.027515878E1;-1.196694374E-2;-3.152313232E-1;3.350903988E0
2.029513478E1;-1.182692051E0;5.760564804E-1;1.997297287E0
2.031508078E1;-1.851302505E0;2.036027908E-1;3.464832306E-1
2.033537478E1;-5.757195950E-1;-9.970178604E-1;-1.534287930E0
2.034555778E1;1.741401553E-1;-1.732327938E0;-1.869970798E0
2.036514778E1;5.315075517E-1;-3.165609837E0;-3.790411949E-1
2.038539578E1;-1.481499970E-1;-3.013040543E0;6.790647507E-1
2.040544378E1;-1.441062450E0;-1.550137997E0;5.161781311E-1
2.042540978E1;-1.075342655E0;-7.802610397E-1;1.102559566E0
2.044507678E1;-3.287804127E-2;-3.157629967E-1;1.064667702E0
2.045516078E1;7.416747212E-1;-3.334417343E-1;1.787252426E0
2.046516178E1;1.356966257E0;-3.334879875E-1;3.496948719E0
2.048548878E1;1.892294168E0;6.384701729E-1;4.135808468E0
2.050529178E1;1.669098735E0;1.486922264E0;3.499900341E0
2.051583178E1;1.345998406E0;1.830497026E0;3.552483559E0
2.053508778E1;9.226520061E-1;2.906092167E0;3.567494869E0
2.055566678E1;1.185708523E0;3.497787237E0;4.967258930E0
2.056582478E1;1.606387138E0;3.622010231E0;5.841953278E0
2.057602278E1;1.859839320E0;3.561595678E0;6.021075726E0
2.059501978E1;5.817263126E-1;3.707361937E0;6.114940166E0
2.060591378E1;-9.488992691E-1;3.830969810E0;4.357767105E0
2.062528278E1;-9.448702335E-1;4.059471607E0;3.590911388E0
2.063559978E1;-8.997101784E-1;3.825906754E0;2.821271896E0
2.064643678E1;-3.743643761E-1;3.725641489E0;2.314965725E0
2.065675878E1;6.892213821E-1;3.283022642E0;7.461714745E-1
2.067635178E1;3.431467295E0;2.669886112E0;-2.223429680E0
2.069668578E1;4.128704548E0;3.396831274E0;-3.972797394E0
2.071541378E1;1.632132292E0;4.047956467E0;-4.056632996E0
2.072552378E1;3.874542713E-1;4.467298508E0;-3.889790535E0
2.074507978E1;-2.182735682E0;4.193916321E0;-5.424145699E0
2.075561578E1;-4.020914078E0;2.495765686E0;-7.733341217E0
2.077509078E1;-5.896638393E0;-1.938292027E0;-1.261861801E1
2.078515278E1;-5.689166546E0;-1.164053440E0;-1.443410206E1
2.080509078E1;1.541183710E0;3.511785507E0;9.064618111E0
2.082597578E1;-2.922411919E0;4.332795143E0;1.612913132E1
2.084535278E1;-9.047258377E0;3.018987179E0;4.698483467E0
2.086520978E1;6.371469021E0;-3.316517830E0;1.858445168E0
2.088531078E1;1.246083498E0;-6.858420849E0;-4.973520756E0
2.090539578E1;-3.657188416E-1;-6.869520664E0;-6.020982265E0
2.091547778E1;-7.392621040E-1;-6.134341717E0;-8.522882462E-1
2.093511878E1;-2.310498714E0;-1.652329445E0;4.165909767E0
2.095542578E1;-2.167683601E0;1.860225677E0;4.950394154E0
2.097564978E1;-1.209827185E0;4.096560478E-1;3.850833893E0
2.099634478E1;-8.327584267E-1;-2.843084812E0;2.526550293E0
2.101562278E1;-6.817219257E-1;-2.786347866E0;1.879024029E0
2.103541178E1;6.783168912E-1;-7.497124672E-1;2.079639912E0
2.104570778E1;1.180045366E0;2.114276886E-1;1.692705631E0
2.106561978E1;1.212783217E0;1.149068832E0;2.270257950E0
2.108532078E1;8.766074777E-1;8.913903236E-1;3.839872122E0
2.110505178E1;5.761520863E-1;9.113693237E-2;3.365109921E0
2.112553578E1;3.393748701E-1;-1.128580093E0;2.793060541E0
2.113559978E1;4.616898894E-1;-1.621309280E0;2.667591572E0
2.115511978E1;1.316695452E0;-1.852817535E0;2.715506554E0
2.117522478E1;1.823714018E0;-1.765112877E0;2.094380379E0
2.118541478E1;2.456459045E0;-1.750117302E0;1.866132021E0
2.120509478E1;2.803565025E0;-1.501599312E0;1.428035378E0
2.121519578E1;2.858049393E0;-1.515609741E0;1.108295918E0
2.123534978E1;2.770713329E0;-8.513422012E-1;-4.458334446E-1
2.126032978E1;2.964287043E0;1.368637085E-1;-2.207105875E0
2.127502178E1;3.081488132E0;1.629980564E0;-3.230517864E0
2.128536578E1;3.009874821E0;2.078593254E0;-3.466465950E0
2.130510278E1;3.541678190E0;2.403193951E0;-3.060039997E0
2.131510478E1;4.032196522E0;2.566755772E0;-2.662912369E0
2.132519978E1;3.922440052E0;2.346038342E0;-2.611484051E0
2.133542478E1;3.989748478E0;2.495200634E0;-2.887687206E0
2.134621778E1;3.807039022E0;3.002833366E0;-3.354145527E0
2.137022278E1;-1.863883018E0;4.226509571E0;-4.938441277E0
2.138504378E1;-4.292299271E0;5.017796993E0;-4.245399475E0
2.140769578E1;-3.933500767E0;4.291786194E0;-3.161985159E0
2.142510078E1;-1.422766924E0;1.950803757E0;-1.316562295E0
2.143519978E1;1.355245113E-1;1.509536743E0;9.994501472E-1
2.144535478E1;3.514811993E-1;1.028600693E0;4.298277855E0
2.146505778E1;-2.213808060E0;5.827016830E-1;8.257928848E0
2.147573178E1;-3.095055103E0;9.112358093E-1;9.574158669E0
2.149509778E1;-1.865723968E0;6.650648117E-1;7.964521885E0
2.151519678E1;2.349415064E0;-2.496016502E0;-1.487780660E-1
2.153518778E1;1.269787788E0;-1.069731712E1;-1.108714867E1
2.155517078E1;3.046709538E0;-1.162777138E1;5.110408783E0
2.157519178E1;1.504891157E0;-1.440515137E1;-1.938895583E-1
2.158547178E1;2.097862720E0;-1.217990208E1;-5.340080261E0
2.160533378E1;-9.355862141E-1;-8.689550400E0;-4.880585194E0
2.162512178E1;8.369448185E-1;-4.554869652E0;-6.862780571E0
2.163530278E1;2.267554283E0;-3.225467682E0;-6.355982780E0
2.164880978E1;2.405998707E0;-3.233484268E0;-7.831889629E0
2.166510778E1;2.662827253E0;-1.706447601E0;-2.898641586E0
2.168535878E1;2.227498770E0;3.191868305E0;-2.891607285E-1
2.170508378E1;1.902435780E0;4.114455223E0;-3.093500376E0
2.171514578E1;8.843808174E-1;2.293776035E0;-3.824668407E0
2.172555378E1;9.489989281E-2;9.464273453E-1;-3.545053482E0
2.174503778E1;3.116896152E-1;-6.697216034E-1;-2.273183823E0
2.175542478E1;3.308582306E-2;-1.247344017E0;-1.457173944E0
2.177520978E1;-1.648255587E0;-2.381833076E0;9.673545957E-1
2.178537478E1;-2.434914112E0;-2.582441330E0;2.224835157E0
2.180511178E1;-2.452726364E0;-2.461030006E0;1.742957592E0
2.182511878E1;-2.290308952E0;-1.608068466E0;3.484732509E-1
2.184508578E1;-1.494239807E0;-7.125272751E-1;-8.385268450E-1
2.185511878E1;-1.190301657E0;-9.988460541E-1;-1.131744981E0
2.186519378E1;-1.146692157E0;-1.652279854E0;-1.248468518E0
2.188583878E1;-7.799868584E-1;-2.392601013E0;-2.620697021E-1
2.190513978E1;3.862019777E-1;-3.028762817E0;-1.068251848E0
2.192496978E1;8.454115391E-1;-4.080043793E0;-1.470331907E0
2.193507178E1;-7.959210873E-2;-3.917524338E0;-2.305519581E-1
2.194536478E1;-1.380682707E0;-3.219890594E0;1.344706774E0
2.196538478E1;-2.317925215E0;-1.749781609E0;2.904568195E0
2.197540578E1;-6.295140982E-1;-2.030408859E0;3.377060890E-1
2.199512378E1;-1.267379522E-1;-2.991287231E0;-1.074208260E0
2.201508578E1;-1.154000521E0;-3.359918594E0;8.570814133E-2
2.202511478E1;-1.468366146E0;-3.417695999E0;1.131596565E-1
2.203573878E1;-1.325087786E0;-3.062663555E0;5.515780449E-1
2.205508678E1;1.906938553E-1;-1.625218868E0;2.256629229E0
2.206533178E1;8.748561144E-1;-9.611282349E-1;2.058809280E0
2.208503978E1;1.069028378E0;-8.242821693E-1;8.148112297E-1
2.210528578E1;2.247400522E0;-1.542160988E0;3.603345871E0
2.212503878E1;3.214216232E0;-2.541744709E0;8.384940147E0
2.213540378E1;3.226027966E0;-2.222600937E0;9.158395767E0
2.215628778E1;3.440728426E0;1.561008930E0;1.066284084E1
2.217596478E1;1.182138085E0;2.995243788E0;8.374288559E0
2.218621078E1;6.321334839E-2;4.262743950E0;9.476436615E0
2.220502478E1;-9.040174484E-1;5.291974068E0;9.494203568E0
2.221507178E1;-1.111791134E-1;5.432332516E0;9.985962868E0
2.222570278E1;5.628144741E-1;5.475745201E0;9.841857910E0
2.223655978E1;8.156110048E-1;5.321630478E0;9.179750443E0
2.225542878E1;1.473223686E0;6.016452312E0;6.489387512E0
2.227584078E1;2.215299129E0;7.036012650E0;4.087219238E0
2.229534478E1;1.879802465E0;6.972976208E0;2.110684395E0
2.231518978E1;-1.748666286E0;5.786000729E0;-1.808282852E0
2.232577078E1;-2.267598629E0;5.401329994E0;-2.342724800E0
2.234613978E1;-2.518637180E0;4.457135201E0;-4.330189705E0
2.236506378E1;-4.830069542E0;4.921019554E0;-1.534016323E1
2.237513078E1;-8.108051300E0;3.341819763E0;-2.648120689E1
2.238531978E1;-6.467826366E0;-2.600756168E0;-2.629193878E1
2.239544378E1;-1.633727789E0;-9.005169868E0;-1.377054787E1
2.241502178E1;6.348457336E0;-7.981641293E-1;6.366902828E0
2.242503978E1;3.340081215E0;3.171578884E0;1.393297386E1
2.243511878E1;-6.625137329E-1;6.149497032E0;2.315291405E1
2.245509878E1;-1.872561646E1;8.305523872E0;3.155510426E0
2.246517678E1;-7.879095078E0;2.836901188E0;-3.853498936E0
2.248521078E1;7.464098930E0;-8.491266251E0;2.072827339E0
2.249521978E1;4.299986839E0;-1.077170753E1;-2.474010944E0
2.250526178E1;1.311459541E0;-1.043315125E1;-2.629350662E0
2.251554878E1;4.311034679E-1;-7.922455311E0;1.188760757E0
2.253504978E1;-2.285361290E-1;-4.804816246E-1;2.275898457E0
2.254518278E1;-6.068639755E-1;1.324280739E0;1.476510048E0
2.255565378E1;-1.061470509E0;1.403081417E0;3.431643724E0
2.257515678E1;4.840723276E-1;-3.307552338E-1;4.500737190E0
2.258547178E1;5.725350380E-1;-8.196096420E-1;3.360219240E0
2.260640578E1;1.088841438E0;-1.300626755E0;3.161904812E0
2.262511678E1;2.067186356E0;-1.291080952E0;2.786158562E0
2.263564678E1;2.020774364E0;-1.274249554E0;2.837305546E0
2.264580978E1;2.145417690E0;-1.321558475E0;2.321271658E0
2.266840178E1;1.594928265E0;-1.323756218E0;1.760638952E0
2.268550078E1;1.575685024E0;-6.034097672E-1;1.161988735E0
2.270506878E1;1.170414567E0;-3.554563522E-1;1.357206345E0
2.271518978E1;1.044422269E0;-4.118328094E-1;1.489729881E0
2.273515178E1;1.229599476E0;-5.432863235E-1;1.050359726E0
2.274522678E1;1.175324798E0;-5.357265472E-1;7.955644131E-1
2.276511678E1;2.106395483E0;-6.986656189E-1;6.465253830E-1
2.278523178E1;2.600699663E0;-9.226121902E-1;1.621048450E-1
2.280589878E1;2.974694729E0;-6.409282684E-1;-1.388099194E0
2.282522278E1;3.129174709E0;-3.418502808E-1;-2.674476147E0
2.283548878E1;2.808282375E0;-6.129589081E-1;-2.060840368E0
2.285503178E1;2.855157852E0;-1.277618408E-1;-1.281969428E0
2.286517878E1;3.474039555E0;4.218921661E-1;-1.703075647E0
2.288520178E1;2.378866434E0;1.370434761E0;-2.788226366E0
2.289569478E1;2.317072392E0;1.589259148E0;-2.794877768E0
2.291577278E1;3.426927567E0;1.956623077E0;-2.789857864E0
2.293543578E1;3.172669888E0;1.930685043E0;-3.065893173E0
2.294549378E1;2.048626423E0;1.786977768E0;-2.672629356E0
2.296503378E1;2.864546776E-1;2.860926151E0;-3.042973042E0
2.298517478E1;-2.253903151E0;3.833907127E0;-3.429674387E0
2.299538178E1;-3.596834660E0;3.994129658E0;-4.186087608E0
2.300553678E1;-4.403261185E0;3.723994732E0;-4.511231422E0
2.302527678E1;-4.914538383E0;2.700158119E0;-2.396437407E0
2.304552878E1;-5.543610573E0;2.679524899E0;-1.308652163E-1
2.306531278E1;-2.298248529E0;3.514027119E0;4.678882122E0
2.308589978E1;2.003950119E0;3.459014893E0;5.866376400E0
2.310546978E1;2.999681711E0;3.315303326E0;2.630420685E0
2.312513478E1;1.198457956E0;3.099899769E0;1.907476187E0
2.314542678E1;-6.786595583E-1;1.283547401E0;4.071761608E0
2.316513978E1;-4.485061169E-1;-1.242536545E0;5.356582642E0
2.318508078E1;-2.255510569E0;-5.969169617E0;-7.981431007E0
2.320513178E1;9.339766502E-1;-8.308831215E0;3.890199184E0
2.322511878E1;1.978103399E0;-9.804257393E0;-1.337216139E0
2.324522078E1;5.024333954E0;-9.357832909E0;4.342968464E0
2.325524478E1;7.552193165E0;-9.854847908E0;3.207787514E0
2.326544778E1;9.479341507E0;-1.079516029E1;1.176314831E0
2.328513378E1;9.309921265E0;-1.264897251E1;1.036024094E-1
2.330548678E1;5.313572884E0;-9.575003624E0;-5.497539043E0
2.332513778E1;4.772412777E-1;-1.264356613E0;-6.770407677E0
2.333550178E1;-2.373982191E0;1.360612869E0;-4.228971481E0
2.335684378E1;-2.375169754E0;4.068164825E-1;-3.236323118E0
2.337557078E1;-2.731117249E0;-2.580718994E0;-3.502240896E0
2.339541078E1;-9.130597115E-1;-3.398420334E0;-2.467006207E0
2.341667678E1;-1.503852367E0;-2.054852486E0;-1.429585457E0
2.343518078E1;-1.058274865E0;5.646448135E-1;-1.803748608E0
2.345564978E1;-5.752563477E-3;2.598793030E0;2.039375305E-1
2.347508178E1;-5.384435058E-1;2.934724808E0;2.116635799E0
2.348520478E1;-7.573746443E-1;2.736412525E0;2.489053249E0
2.350526178E1;-1.117500067E0;1.509251595E0;2.626452923E0
2.352502578E1;-1.882098556E0;-9.629364014E-1;1.371610880E0
2.353533278E1;-2.426777840E0;-2.350484848E0;5.017510056E-1
2.355610778E1;-2.152682543E0;-2.521306992E0;1.057065845E0
2.357509278E1;-1.117867708E0;-7.530145645E-1;5.446223021E-1
2.358510778E1;-1.034490943E0;-3.278141022E-1;2.257316113E-1
2.360515478E1;-7.319087982E-1;-7.230472565E-2;-1.084079504E0
2.362512478E1;7.118371725E-1;8.670616150E-1;-2.287513733E0
2.363535078E1;1.215524197E0;1.355424881E0;-1.505272627E0
2.365509478E1;1.476146340E0;1.373067856E0;7.238991261E-1
2.367522078E1;-6.952715516E-1;5.513572693E-2;6.515811920E0
2.368590578E1;-1.425608516E0;7.458791733E-1;8.843162537E0
2.370505978E1;-1.640359402E0;2.582599640E0;8.631505966E0
2.371508878E1;-1.855593085E0;2.831287861E0;6.582894325E0
2.372528678E1;-1.341440916E0;2.139836311E0;1.364980459E0
2.374506678E1;-1.866987228E0;-2.781545639E0;-9.561407089E0
2.375509578E1;-2.063707113E0;-3.235504150E0;-5.506849289E0
2.376529578E1;-2.235599279E0;-3.301898003E0;-1.712761402E0
2.378540878E1;-1.255161762E0;-2.043925285E0;3.829351902E0
2.380620978E1;-1.384505510E0;-6.799478531E-1;3.216664791E0
2.382510478E1;-1.737531900E0;-1.113490105E0;-6.773576736E-1
2.383517178E1;-7.162224054E-1;-1.836262226E0;-1.410567760E0
2.384518578E1;5.502109528E-1;-2.445892811E0;-1.025015354E0
2.386500978E1;2.917935371E0;-2.785677910E0;-5.624866486E-2
2.387507078E1;2.963158131E0;-2.777757645E0;3.284235001E-1
2.388530978E1;2.291984320E0;-2.769936085E0;1.738395214E0
2.389554478E1;1.455311775E0;-2.731141090E0;1.945155621E0
2.391514078E1;1.144302130E0;-1.854568005E0;2.498103619E0
2.392520778E1;1.688567162E0;-1.174382687E0;4.363898277E0
2.393537478E1;8.958159685E-1;1.032803535E0;5.938202381E0
2.395504678E1;-1.139569283E-2;2.851889133E0;3.654823780E0
2.396568978E1;2.851438522E-1;3.375545263E0;4.036933899E0
2.398534778E1;1.633955717E0;3.896628618E0;5.078064919E0
2.399537278E1;2.144129038E0;3.911337376E0;5.666811943E0
2.400545378E1;2.677460432E0;3.593918085E0;5.642554283E0
2.401589678E1;2.605095387E0;3.080055237E0;5.067646027E0
2.403522178E1;2.165978909E0;2.600764751E0;5.172405243E0
2.405514378E1;1.609292269E0;3.308704615E0;4.445679665E0
2.407505678E1;1.126906157E0;4.685160637E0;4.744233131E0
2.408519578E1;1.258460760E0;5.170020103E0;4.501094341E0
2.410508678E1;1.404275656E0;5.057228088E0;2.986536980E0
2.412507678E1;4.661280155E0;5.050875664E0;1.261521816E0
2.413616578E1;6.543197155E0;4.173311710E0;-2.808082581E0
2.415598278E1;4.386346340E0;3.601679564E0;-5.761607170E0
2.417506778E1;1.039817095E0;4.783516407E0;-4.763214111E0
2.418549578E1;-1.079911232E0;5.235712051E0;-4.485162735E0
2.420514778E1;-8.788023949E0;4.295889854E0;-1.396298695E1
2.422500378E1;-1.108485126E1;-4.080101013E0;-2.097050476E1
2.423515478E1;-1.021446991E1;-8.329721451E0;-1.181446171E1
2.425518078E1;5.465240479E-1;1.205679297E0;6.041642666E0
2.427507578E1;-1.255310535E0;6.886675835E0;1.510925293E1
2.428509278E1;-5.121315956E0;8.342630386E0;1.634272957E1
2.430615078E1;4.701701164E0;-1.873021126E0;2.457610607E0
2.432507978E1;5.557254314E0;-8.615858078E0;-4.999017715E-2
2.433548678E1;1.101850510E0;-8.962016106E0;-1.268023491E0
2.434598478E1;-8.493051529E-1;-7.277412415E0;-8.411164284E-1
2.436531078E1;-1.706249237E0;-2.327331543E0;2.148478031E0
2.438532278E1;-9.145870209E-1;7.673101425E-1;3.477498531E0
2.439570578E1;2.910804749E-2;1.123282433E0;4.080958366E0
2.441514378E1;1.327193499E0;2.511544228E-1;3.791277885E0
2.442515778E1;1.255087256E0;-4.315400124E-1;3.645080805E0
2.443547878E1;8.531787395E-1;-1.070368290E0;3.608858109E0
2.445514578E1;1.587164402E-1;-1.730305195E0;2.894883156E0
2.446588578E1;5.865901709E-1;-1.708982944E0;2.699017048E0
2.448523878E1;1.582708240E0;-1.686324120E0;2.649271965E0
2.450536378E1;1.315674424E0;-1.737548828E0;1.938784599E0
2.452541378E1;1.227347136E0;-1.287642956E0;1.908466339E0
2.454515078E1;4.463031888E-1;-1.372803688E0;2.596594810E0
2.455521878E1;1.151787281E0;-9.353780746E-1;3.515027046E0
2.457501578E1;2.177694798E0;-3.218746185E-1;1.873049021E0
2.458537878E1;2.565027714E0;-1.969118118E-1;1.020507336E0
2.460513478E1;2.603761673E0;-6.619014740E-1;-8.441195488E-1
2.461569178E1;2.143570900E0;-1.108614922E0;-4.475493431E-1
2.464079378E1;2.495956659E0;-7.130327225E-1;3.968598843E-1
2.465508978E1;3.153583050E0;-5.531196594E-1;2.034363747E-1
2.466594978E1;3.500482559E0;-4.321994781E-1;6.067585945E-2
2.468576278E1;3.797116995E0;-2.744007111E-2;-7.522141933E-1
2.469676478E1;3.189693213E0;2.683782578E-1;-1.411348581E0
2.471512378E1;2.629630566E0;6.125030518E-1;-1.155530930E0
2.472741178E1;3.006883860E0;6.761627197E-1;-1.133556247E0
2.474507478E1;3.011898518E0;4.031705856E-1;-1.267160535E0
2.475676278E1;3.187773705E0;5.024909973E-1;-1.627437592E0
2.477510778E1;3.515690327E0;1.594943523E0;-2.700134039E0
2.479505578E1;1.094012499E0;2.504019737E0;-3.015893936E0
2.480510678E1;-1.382304311E0;2.802795410E0;-2.297760487E0
2.481511878E1;-4.372983932E0;2.713172436E0;-1.835134029E0
2.483514878E1;-3.486752510E0;3.705813885E0;-4.036880970E0
2.485512278E1;-3.564646244E-1;3.942131042E0;-3.779209375E0
2.486538978E1;-4.633188248E-3;3.593967915E0;-1.939619303E0
2.488514678E1;-9.320726395E-1;2.722569942E0;1.353120804E0
2.490506778E1;-1.677137613E0;4.129164219E0;1.196348667E-2
2.491511678E1;6.988906860E-1;3.678536892E0;3.632846832E0
2.492578878E1;1.604819536E0;2.633546352E0;6.814126968E0
2.494510878E1;-4.962122440E-1;2.373573303E0;5.265007019E0
2.496511278E1;-3.902978897E0;3.442046642E0;-6.066377163E0
2.497561778E1;-3.454765797E0;3.101689816E0;-1.918115616E0
2.499501078E1;-4.104787111E-1;-1.378664017E0;6.311017036E0
2.500507278E1;1.279215336E0;-3.627727509E0;-3.958745003E-1
2.501562078E1;3.081315517E0;-6.234400749E0;-1.607749104E0
2.503556778E1;4.404893875E0;-1.034436703E1;5.212866306E0
2.505510878E1;2.202808619E0;-1.614859009E1;8.155775666E-1
2.506515178E1;4.536847115E0;-1.548542881E1;-1.237407088E0
2.508677578E1;6.722076893E0;-1.198394299E1;-1.975366354E0
2.510515078E1;3.741746902E0;-1.101843357E1;-5.096612930E0
2.512528078E1;1.534502268E0;-3.106110573E0;-7.046046257E0
2.513544578E1;-9.732961655E-3;-1.816552162E0;-4.761044979E0
2.515522478E1;-1.265992045E0;1.251553535E0;-4.487146378E0
2.516525978E1;-4.348495007E-1;2.174134731E0;-4.333245277E0
2.517619578E1;5.544590950E-1;2.517572403E0;-4.566347122E0
2.519564378E1;2.741572380E0;1.116575241E0;-6.153337479E0
2.521515578E1;2.768122911E0;-8.233766556E-1;-3.767622948E0
2.522552578E1;2.309464455E0;-1.155663490E0;-1.729807258E0
2.524566478E1;8.013135195E-1;-2.168798447E-1;5.806435943E-1
2.526521278E1;-4.925643206E-1;1.320138931E0;1.033696651E0
2.528531478E1;-1.305508137E0;1.083550453E0;1.747118473E0
2.530506878E1;-2.203593969E0;-1.398361206E0;2.491611719E0
2.531551178E1;-2.560062170E0;-2.404932022E0;2.552462101E0
2.533518378E1;-2.421823978E0;-3.199323654E0;1.579954505E0
2.534553978E1;-2.210250139E0;-3.308998108E0;2.370132208E-1
2.536535178E1;-1.577731848E0;-3.492003441E0;-2.771614075E0
2.538519678E1;-6.414086819E-1;-2.596166611E0;-1.494788170E0
2.539552478E1;-9.236243367E-1;-2.738046646E0;-6.182506084E-1
2.540584078E1;-4.058192968E-1;-2.741468430E0;-2.498316765E-1
2.542503278E1;-2.856844664E-1;-3.518732071E0;6.464111805E-1
2.543524478E1;-1.297374725E0;-3.825671196E0;1.649316311E0
2.545500678E1;-2.829189062E0;-3.992834091E0;2.953166008E0
2.546512278E1;-3.587821960E0;-4.133173943E0;2.437634468E0
2.547537278E1;-4.012711525E0;-4.296018600E0;1.264163733E0
2.549509578E1;-4.022705555E0;-3.770267487E0;-5.511021614E-1
2.550536878E1;-2.916208744E0;-2.868120670E0;-8.211188316E-1
2.552558978E1;-5.956041217E-1;-3.072625637E0;1.230417728E0
2.554496778E1;1.415207148E0;-3.628125668E0;2.922605753E0
2.555509578E1;2.150849342E0;-3.921279430E0;3.303308725E0
2.557509678E1;3.588310719E0;-3.832186222E0;3.413919449E0
2.559520378E1;3.371775389E0;-2.801264286E0;4.618958473E0
2.561505178E1;3.745988369E0;-1.454266071E0;6.729966640E0
2.563523878E1;3.934834003E0;7.613372803E-2;8.338553429E0
2.565509478E1;4.230914593E0;1.044598341E0;1.023487282E1
2.566512378E1;3.238447189E0;1.491575956E0;1.025581837E1
2.567534678E1;2.458553791E0;1.704856634E0;9.631660461E0
2.569509578E1;7.791864872E-1;2.661164284E0;1.069336510E1
2.571511278E1;4.651904106E-1;5.487431526E0;8.610449791E0
2.573515078E1;-2.016549110E-1;4.191944122E0;5.650519371E0
2.575579778E1;1.635833502E0;4.908361912E0;7.313689232E0
2.577503378E1;2.345074415E0;5.510547161E0;5.274991035E0
2.578509378E1;2.017915249E0;5.869234562E0;3.418543816E0
2.579514278E1;1.177826405E0;6.109086514E0;2.190257549E0
2.580537978E1;1.777219772E-1;6.073464394E0;1.082111359E0
2.581541978E1;-8.051981926E-1;5.625391006E0;-6.316032410E-1
2.583503378E1;-1.097599983E0;4.009309769E0;-3.178582191E0
2.584554878E1;6.361770630E-2;3.531921625E0;-3.566205025E0
2.586510878E1;2.223622322E0;5.428144455E0;-6.228309631E0
2.588506978E1;-1.833913803E0;6.912189960E0;-1.513075352E1
2.589521578E1;-1.134142971E1;-2.371808052E0;-2.174003983E1
2.590558978E1;-5.247553349E0;-9.226716042E0;-1.169628143E1
2.592525778E1;6.500391483E0;1.947891593E0;1.469572067E1
2.593671678E1;6.379384995E-1;8.360596657E0;1.649329948E1
2.595511078E1;-1.639634132E1;1.033545208E1;2.497396946E0
2.597537878E1;4.443017006E0;-1.004744053E0;2.450024605E0
2.599585078E1;4.772983074E0;-8.821368217E0;4.975578308E0
2.601569278E1;-2.530060768E0;-5.202742100E0;2.284318924E0
2.603510578E1;-1.928779125E0;-2.328920364E-1;2.299106598E0
2.605510078E1;4.002225399E-1;1.736178398E-1;1.876708508E0
2.607505978E1;2.390260696E0;-1.237828255E0;1.948251247E0
2.608517578E1;2.688228607E0;-1.983457088E0;2.990072250E0
2.610521378E1;1.795362949E0;-2.986139297E0;3.179554701E0
2.612557978E1;1.542979002E0;-2.161463737E0;2.806552410E0
2.614537078E1;1.695560336E0;-1.233724594E0;2.432791233E0
2.615548078E1;1.080613852E0;-1.115614891E0;2.639819860E0
2.617515378E1;1.326412678E0;-1.001231670E0;3.507560015E0
2.618541778E1;1.073711157E0;-1.238340855E0;3.117538214E0
2.620506678E1;5.532397032E-1;-1.794416428E0;3.045762300E0
2.621522178E1;6.259887218E-1;-1.783171654E0;2.721611977E0
2.623618078E1;1.190318108E0;-1.770575523E0;2.131773233E0
2.625537478E1;1.812319756E0;-1.622516632E0;1.056713343E0
2.627510378E1;1.086698413E0;-2.027353287E0;1.085862637E0
2.628516178E1;1.531548262E0;-1.625715256E0;8.173604012E-1
2.630546978E1;2.467922449E0;-4.362630844E-1;4.300515652E-1
2.632542678E1;3.441729307E0;4.869928360E-1;-1.817006111E0
2.634509278E1;3.610618591E0;9.341402054E-1;-2.694796801E0
2.635511578E1;3.075090408E0;7.534923553E-1;-2.582509041E0
2.636518378E1;2.635312557E0;6.768674850E-1;-2.398735523E0
2.638521778E1;2.756153822E0;1.202728271E0;-1.446448445E0
2.639537678E1;3.241470575E0;1.246344566E0;-1.493999362E0
2.641511178E1;4.223179817E0;6.477222443E-1;-1.599988937E0
2.642514978E1;4.795135021E0;6.447896957E-1;-1.870590448E0
2.643605778E1;4.541997433E0;1.110815048E0;-3.008002520E0
2.645505778E1;1.738737106E0;2.387648582E0;-4.474002361E0
2.646525278E1;1.459379196E-1;3.050592422E0;-5.051814079E0
2.648510578E1;5.908961296E-1;4.775265694E0;-5.269487858E0
2.650528878E1;1.564978600E0;4.299631596E0;-4.828721046E0
2.652606178E1;4.571342468E-2;3.206126690E0;-3.500963449E0
2.654520378E1;-2.736432314E0;2.528967381E0;1.265774012E0
2.655536078E1;-3.794465780E0;3.207260132E0;2.734442472E0
2.657508578E1;-3.915242910E0;3.983299255E0;3.720704556E0
2.659522378E1;-2.365034819E0;2.397999287E0;6.412411213E0
2.660525878E1;-2.180977106E0;2.381126404E0;5.799280643E0
2.662526578E1;-3.550347805E0;1.516288280E0;4.985700130E0
2.663537678E1;-3.340213299E0;6.000595093E-1;3.804477215E0
2.664543278E1;-2.580104351E0;-8.636350632E-1;1.135226250E0
2.665560578E1;-8.107956648E-1;-2.360289574E0;-1.457303643E0
2.667546178E1;4.198583126E0;-7.094049454E0;3.391819239E0
2.669510078E1;4.626713753E0;-9.642968178E0;3.193481207E0
2.670575778E1;3.438513994E0;-1.208885574E1;2.550809860E0
2.672566578E1;1.963294029E0;-1.500066948E1;3.009758234E0
2.674513678E1;2.371243715E0;-1.389305305E1;2.071753740E0
2.676507478E1;-7.714225054E-1;-1.279104424E1;-1.087379360E1
2.677513878E1;-3.806728125E-1;-1.093941021E1;-1.030595112E1
2.679507478E1;1.496622562E-1;-7.235958099E0;-8.103513718E0
2.681510078E1;-3.711128235E-2;-9.665031433E-1;-8.237077713E0
2.683512778E1;2.170124292E0;3.485490799E0;-5.535837173E0
2.684516878E1;3.168043375E0;4.741351128E0;-5.862462521E0
2.686506178E1;4.288799763E0;3.420378208E0;-6.087928772E0
2.688532578E1;4.972075462E0;-6.839313507E-1;-2.869389534E0
2.689534378E1;4.141622066E0;-7.947244644E-1;-1.504550576E0
2.691498878E1;8.658380508E-1;5.016279221E-1;-2.443944514E-1
2.692556278E1;-4.275252819E-1;8.511676788E-1;-2.047597766E-1
2.693613178E1;-1.557193160E0;1.024113655E0;-1.996878684E-1
2.695501978E1;-3.284809113E0;3.422260284E-2;-6.188129187E-1
2.696526478E1;-3.341248512E0;-7.246971130E-1;-1.621554375E0
2.698540778E1;-2.343746901E0;-1.142726898E0;-1.177114844E0
2.699565378E1;-2.313134432E0;-7.975521088E-1;3.017306328E-2
2.701542178E1;-3.029922009E0;-6.137208939E-1;2.325406313E0
2.703513978E1;-2.287213802E0;-1.137125015E0;1.380300045E0
2.705520178E1;3.063745499E-1;-2.505433083E0;-2.846678019E0
2.707512078E1;7.975625992E-1;-3.223402023E0;-1.108257294E0
2.708541178E1;6.192471981E-1;-3.325154305E0;-3.780090809E-1
2.710514378E1;-6.897224784E-1;-3.057381630E0;1.405654430E0
2.712511278E1;-1.856638789E0;-1.801887512E0;2.676379204E0
2.713518478E1;-2.613656044E0;-1.888220787E0;2.392631054E0
2.715518978E1;-2.808604717E0;-3.176163673E0;-5.370149612E-1
2.717563978E1;-1.710236549E0;-3.364644527E0;-1.278629303E-1
2.719504078E1;-7.226184011E-1;-3.299221516E0;6.564140320E-1
2.720512978E1;-1.767915487E-1;-3.199982166E0;1.156006336E0
2.722519278E1;8.528070450E-1;-2.962620258E0;3.831094503E0
2.723628078E1;1.587648153E0;-2.795433521E0;4.542152405E0
2.725581078E1;2.579305410E0;-2.587773800E0;5.554072380E0
2.727502378E1;2.587513447E0;-1.545657158E0;7.811435223E0
2.728584078E1;2.684511423E0;-9.795379639E-1;8.562386513E0
2.730534578E1;2.795813084E0;8.781962395E-1;7.438776016E0
2.731534878E1;2.126476765E0;1.385739565E0;7.115776539E0
2.733516478E1;6.962470412E-1;2.089034081E0;8.655593872E0
2.734520578E1;3.565483093E-1;2.838785648E0;9.422689438E0
2.736516978E1;6.386756897E-1;5.120682240E0;9.745643616E0
2.738562678E1;-7.882952690E-2;5.760663986E0;9.300878525E0
2.740541678E1;-2.634177208E-1;6.577438831E0;8.846108437E0
2.742526078E1;-1.209568977E-2;7.269162178E0;4.101804256E0
2.743584378E1;6.439018250E-1;7.080757141E0;2.683347225E0
2.745502478E1;1.581476688E0;6.679389954E0;2.394886017E-1
2.746521078E1;2.201538086E0;5.069561958E0;-5.650422096E0
2.747539378E1;2.114382267E0;3.951900005E0;-6.582483292E0
2.748547878E1;1.970207453E0;3.349731445E0;-6.850709915E0
2.750517978E1;1.764369011E0;4.141841412E0;-5.902096748E0
2.752510278E1;-2.987879038E0;3.620335817E0;-1.440493488E1
2.753534678E1;-4.500635147E0;5.645365715E-1;-1.991258621E1
2.755507978E1;-3.909022808E-1;-5.924961090E0;-5.708846092E0
2.756535778E1;1.311029434E0;-5.172159195E0;5.990356922E0
2.758508278E1;-1.651979685E0;1.496403694E0;1.351221275E1
2.759524378E1;-4.864341736E0;5.420867920E0;1.503964424E1
2.761499478E1;-8.524826050E0;7.741063118E0;1.396664619E0
2.762507478E1;-9.057712555E-1;1.006013155E0;4.044924736E0
2.763515078E1;3.435678720E0;-3.088427544E0;2.559436321E0
2.764679378E1;3.291331768E0;-6.666294575E0;-2.469658852E0
2.766510578E1;-2.089802265E0;-6.394794464E0;3.715171814E-1
2.767515178E1;-3.560886860E0;-4.002339363E0;8.772726059E-1
2.769506878E1;-2.870972872E0;1.191303730E0;3.510909557E0
2.770566878E1;-2.167609453E0;2.082397223E0;4.097653866E0
2.772509578E1;-1.666350126E0;1.103001118E0;3.035298824E0
2.773537578E1;-1.319790244E0;1.596713066E-1;3.379913092E0
2.775553978E1;1.486740112E-1;-1.145034313E0;3.749559641E0
2.777533378E1;1.215346932E0;-1.929528236E0;3.004572153E0
2.779507178E1;1.235941172E0;-2.603032589E0;3.049113989E0
2.780526378E1;1.428740263E0;-2.554153919E0;2.772483110E0
2.782497378E1;1.751333594E0;-1.924216270E0;2.192976475E0
2.783503578E1;2.128444910E0;-1.425502777E0;2.116144180E0
2.784603978E1;2.282669783E0;-1.076730728E0;1.666488409E0
2.786515878E1;2.019693851E0;-1.034978867E0;1.057180405E0
2.788507878E1;1.575543761E0;-1.473661423E0;1.155325651E0
2.790505678E1;1.419944525E0;-1.421856880E0;-1.480774879E-1
2.791515578E1;1.991958857E0;-1.277733803E0;-6.228260994E-1
2.792518478E1;2.328901291E0;-1.116112709E0;-7.776632309E-1
2.793519478E1;2.074632168E0;-1.015779495E0;-5.716390610E-1
2.795511978E1;2.725945473E0;-2.939510345E-1;3.477151394E-1
2.796533378E1;3.235980988E0;-2.969074249E-2;2.861371040E-1
2.798514278E1;4.365615368E0;4.695062637E-1;-7.521123886E-1
2.799533178E1;4.682157993E0;6.209106445E-1;-1.433387280E0
2.801542478E1;4.031352520E0;1.326407433E0;-2.702477455E0
2.803504578E1;3.388972282E0;1.368309021E0;-2.263997555E0
2.804505478E1;3.826559782E0;1.229699135E0;-2.090056419E0
2.806511478E1;3.826408863E0;1.207380295E0;-2.975763559E0
2.808548078E1;1.614631295E0;2.522513390E0;-2.838351727E0
2.810515678E1;-2.439570189E0;3.623826504E0;-2.488932133E0
2.812523978E1;-3.998585701E0;4.349030018E0;-2.520436764E0
2.813556878E1;-3.416748285E0;4.636694431E0;-3.418258190E0
2.815572678E1;-1.477615833E-1;4.353558064E0;-3.024628401E0
2.817514578E1;-6.236232519E-1;3.005620003E0;1.008095741E-1
2.818515678E1;-9.688736200E-1;3.076049805E0;9.454945326E-1
2.820556978E1;-1.525127411E0;3.394247532E0;9.587351680E-1
2.822500278E1;-1.038195014E0;3.186294556E0;-9.912456274E-1
2.823535978E1;-8.432769775E-1;2.213212013E0;2.561970949E-1
2.825513478E1;1.012140989E0;-6.551494598E-1;7.676334381E0
2.827498678E1;6.656563282E-1;-1.666833878E0;4.689768791E0
2.828517478E1;-1.267242432E-2;-3.122501373E0;3.182785988E0
2.830523878E1;-5.546586514E-1;-7.261818886E0;3.533747673E0
2.831577178E1;-5.269626379E-1;-9.260470390E0;5.116333961E0
2.833524578E1;2.041837215E0;-1.312485313E1;4.569774628E0
2.835518478E1;4.793167591E0;-1.532268715E1;-4.377487183E0
2.836524278E1;4.592328072E0;-1.416678333E1;-3.632693768E0
2.838527478E1;2.021059513E0;-9.907421112E0;-6.240673065E0
2.840538078E1;1.096487045E-3;-6.051890373E0;-6.290898323E0
2.842531378E1;-2.141532660E0;-1.581593513E0;-4.663724422E0
2.843593278E1;-1.603334069E0;9.350862503E-1;-2.567186832E0
2.845546678E1;-8.812952042E-2;3.224863052E0;-3.168517828E0
2.847506578E1;1.317304969E0;1.119503021E0;-5.214761257E0
2.848518678E1;2.089647055E0;-2.932720184E-1;-4.979290485E0
2.850526578E1;3.095916748E0;-6.256551743E-1;-2.146130085E0
2.851559178E1;3.034951448E0;8.278179169E-2;-8.923533559E-1
2.853567078E1;1.822628975E0;2.001600266E0;1.092534542E0
2.855535778E1;-3.532867432E-1;2.403536320E0;1.844168305E0
2.857540278E1;-2.091849566E0;7.502651215E-1;2.250363111E0
2.858698678E1;-2.955691814E0;-5.929498672E-1;2.290543795E0
2.860503078E1;-3.643193245E0;-2.868179321E0;1.963927031E0
2.861503378E1;-2.916824102E0;-3.148197174E0;9.565116167E-1
2.862512878E1;-2.071809292E0;-3.051551819E0;-4.268108606E-1
2.863552978E1;-8.033878803E-1;-1.350396156E0;-3.885867596E-1
2.865557478E1;-1.825619102E0;-7.627029419E-1;2.038588047E0
2.866568578E1;-2.039938211E0;-7.947320938E-1;1.946577191E0
2.867761778E1;-1.661093473E0;-1.251834869E0;7.826619148E-1
2.869504878E1;4.289429188E-1;-3.271200180E0;-2.986417055E0
2.870511778E1;8.962100744E-1;-4.058913231E0;-2.593060732E0
2.871535878E1;4.465962648E-1;-4.108382225E0;-1.393148184E0
2.873567478E1;-2.251232862E0;-3.410946846E0;1.381059408E0
2.875517778E1;-3.019661188E0;-2.134834290E0;2.491412640E0
2.876546178E1;-2.935769081E0;-1.990353584E0;1.983957291E0
2.878509978E1;-1.858987093E0;-3.046052933E0;-2.513170242E-2
2.879523978E1;-1.529470801E0;-3.678573608E0;-1.084763050E0
2.881507878E1;-1.221848965E0;-4.326976299E0;1.418261528E-1
2.882515978E1;-1.076380610E0;-4.423282623E0;1.084120750E0
2.884526178E1;2.830015421E-1;-2.991660118E0;1.325599670E0
2.886499378E1;1.306106448E0;-2.725567341E0;2.162865162E0
2.887500878E1;2.116366625E0;-2.630002022E0;3.785431623E0
2.888525578E1;2.787956953E0;-2.331496716E0;5.335117340E0
2.890495578E1;3.500733614E0;-1.414180756E0;5.596278191E0
2.891497878E1;3.212186813E0;-1.305177212E0;5.634933472E0
2.892573678E1;2.813888550E0;-1.187561035E0;7.315036774E0
2.894497078E1;3.097333193E0;5.934333801E-2;9.638068199E0
2.895508878E1;2.118534088E0;8.889486790E-1;9.301624298E0
2.896551378E1;8.158265352E-1;1.816730976E0;9.726328850E0
2.898506378E1;-2.482001781E-1;4.423013210E0;1.125912666E1
2.900505978E1;-1.910447836E0;6.288918495E0;8.926221848E0
2.901523378E1;-2.304805040E0;6.005909920E0;8.312736511E0
2.903506078E1;2.726404667E0;5.746555328E0;6.049537182E0
2.905558078E1;2.382134914E0;5.676943779E0;4.100408077E0
2.907504278E1;2.419830322E0;5.989043236E0;2.582333565E0
2.908517778E1;2.149382830E0;5.725775719E0;1.557464123E0
2.910506578E1;1.183064699E0;4.205930710E0;-2.684168816E0
2.911541078E1;7.839779854E-1;3.656664848E0;-3.739242554E0
2.913517478E1;1.362152338E0;3.915404797E0;-3.981488228E0
2.914524178E1;1.016450286E0;4.400130749E0;-4.784516335E0
2.915543178E1;-1.038300276E0;4.983501434E0;-7.503641129E0
2.917505478E1;-6.555514336E0;1.138350010E0;-1.819258499E1
2.918659478E1;-5.227383137E0;-3.478451729E0;-1.270317650E1
2.920531078E1;5.407390594E-1;-3.651978731E0;2.281688213E0
2.922509178E1;-3.950635195E0;2.374691963E0;1.246730995E1
2.923598378E1;-6.403451443E0;5.029409409E0;1.183994389E1
2.925512978E1;-3.246416092E0;2.556077003E0;4.417240620E0
2.926529078E1;6.707429886E-1;-2.157299042E0;4.877276897E0
2.928501578E1;1.551430345E0;-7.448763847E0;-3.059834480E0
2.929504578E1;6.445766687E-1;-8.632760048E0;-1.876096725E0
2.930536778E1;-1.021073818E0;-8.402494431E0;-1.480862617E0
2.932499978E1;-2.698812246E0;-3.373206139E0;1.827651024E0
2.933538478E1;-2.406907558E0;-3.021092415E-1;3.438886166E0
2.935513878E1;-1.702792048E0;2.328644276E0;3.356154919E0
2.936520778E1;-1.514657378E0;1.812452793E0;4.124852657E0
2.938506478E1;-1.323286772E0;-2.935223579E-1;3.402248144E0
2.939507878E1;-8.503103256E-1;-1.101593018E0;2.534713745E0
2.940538278E1;-3.283355236E-1;-1.785972595E0;2.436591625E0
2.941543578E1;2.593120635E-1;-2.490041256E0;3.072255850E0
2.943513978E1;1.004423976E0;-1.685579777E0;3.755567074E0
2.944520478E1;1.440587878E0;-1.169426441E0;4.001802921E0
2.946519678E1;1.532006502E0;-6.564626694E-1;3.634039164E0
2.948530278E1;2.746073484E0;-7.070388794E-1;3.905653477E0
2.950507478E1;2.745661020E0;-1.469470978E0;2.194489479E0
2.951511178E1;2.750482321E0;-1.708262444E0;8.593091965E-1
2.952526478E1;2.512814522E0;-2.052174568E0;-1.238563061E-1
2.954516778E1;1.923387051E0;-2.273830414E0;-1.265501976E-1
2.955575478E1;2.165914774E0;-2.231369019E0;6.106901169E-2
2.957515678E1;2.466267109E0;-1.590196609E0;-6.847784519E-1
2.958535778E1;2.622237682E0;-1.134051323E0;-1.185808420E0
2.960509178E1;3.537307739E0;1.577510834E-1;-2.012383938E0
2.961509578E1;3.479380369E0;8.754806519E-1;-1.757958889E0
2.963539878E1;2.701023102E0;1.647716999E0;-1.181070805E0
2.965620578E1;2.541350365E0;1.327116013E0;-1.764589548E-1
2.967613778E1;2.977145910E0;1.398746490E0;-4.714831114E-1
2.969502278E1;3.555871010E0;1.235819817E0;-7.686480284E-1
2.970526178E1;3.971590519E0;1.479961395E0;-8.741549253E-1
2.971558378E1;3.834036589E0;1.668833256E0;-1.156438470E0
2.973538778E1;3.552724600E0;2.737540245E0;-2.884282589E0
2.975509278E1;1.041952133E0;3.193552971E0;-4.771378517E0
2.976525478E1;-9.952051640E-1;3.128750324E0;-4.905685425E0
2.978511878E1;-3.299954414E0;2.486390591E0;-5.191337109E0
2.980649178E1;-1.888575554E0;1.410765648E0;-3.739387512E0
2.982512878E1;-1.440473557E0;2.388130188E0;-1.356906295E0
2.984518078E1;-2.658463001E0;3.946204662E0;9.811778069E-1
2.986518878E1;-4.393711090E0;5.094278812E0;1.256651282E0
2.988513878E1;-2.518157959E0;4.094511032E0;4.222620964E0
2.990579578E1;-2.532007694E-1;1.547928810E0;8.277589798E0
2.992511778E1;-1.737873912E0;-1.885633469E-1;6.743927956E0
2.993515378E1;-1.417680621E0;-8.382139206E-1;4.394869328E0
2.995550778E1;-8.039289713E-1;-4.111266136E0;-3.385859489E0
2.996566678E1;5.465533733E-1;-5.579216957E0;-2.025230825E-1
2.998515478E1;3.548734665E0;-8.263358116E0;3.317032099E0
2.999536878E1;4.565632343E0;-1.049661350E1;7.401722074E-1
3.001517578E1;6.904638290E0;-1.667315292E1;5.862228572E-2
3.003521478E1;9.225867271E0;-1.364698792E1;-3.309081197E-1
3.004533378E1;7.073552132E0;-1.280616379E1;-4.123531818E0
3.006512878E1;-1.350835681E0;-8.861682892E0;-5.597315311E0
3.008528078E1;-4.175139427E0;-1.734906197E0;-7.104271889E0
3.010515578E1;-2.308519840E0;1.424003124E0;-4.776858330E0
3.012516078E1;1.840937138E-1;9.965066910E-1;-4.596650600E0
3.013520278E1;1.635370374E0;-7.010364532E-2;-6.303182602E0
3.014543478E1;3.086276531E0;-7.730703354E-1;-7.042551041E0
3.016524278E1;4.382965565E0;-7.788200378E-1;-4.715313911E0
3.018528778E1;2.502577782E0;8.697719574E-1;-1.324074745E0
3.020531178E1;-7.980835438E-2;2.278484821E0;1.772775054E0
3.021613978E1;-9.893474579E-1;1.974297047E0;2.282420397E0
3.023504878E1;-2.640186548E0;6.001520157E-1;2.582408190E0
3.024546178E1;-2.632296085E0;-7.772731781E-2;1.781299829E0
3.026515378E1;-2.112019777E0;-2.085748672E0;-4.172567844E0
3.028550878E1;-8.095394969E-1;1.292333603E-1;-2.592029572E0
3.030499178E1;-5.555503368E-1;1.266647339E0;1.162232995E0
3.031536678E1;-6.103855968E-1;5.796985626E-1;1.569074154E0
3.033509378E1;-1.618760824E-1;-1.668837547E0;5.240149498E-1
3.034511878E1;3.842509985E-1;-2.938179016E0;4.819273949E-2
3.035578878E1;5.419009924E-1;-3.783722878E0;-3.781747818E-2
3.037502878E1;-2.276704311E-1;-4.063862801E0;8.169465065E-1
3.038511078E1;-1.445796013E0;-3.768157959E0;1.247778893E0
3.040520378E1;-2.219440937E0;-3.357838631E0;8.430225849E-1
3.041540978E1;-2.437448502E0;-3.721050262E0;-2.524194717E-1
3.042567878E1;-2.745505333E0;-3.929753304E0;-9.488940239E-1
3.044517578E1;-1.605013132E0;-3.948557854E0;-7.543506622E-1
3.046516178E1;2.492418289E-1;-3.949859142E0;6.745719910E-1
3.047552978E1;5.001767874E-1;-3.915174961E0;1.821446896E0
3.049516878E1;4.650324583E-1;-3.743860245E0;2.555987358E0
3.050524378E1;6.541616917E-1;-3.824254513E0;2.804785728E0
3.051536578E1;1.125513554E0;-3.911713600E0;3.428692579E0
3.053650378E1;2.642449379E0;-3.499305248E0;5.721780777E0
3.055538978E1;3.303938866E0;-2.216004848E0;5.876586437E0
3.057507778E1;3.296729565E0;-2.010925293E0;7.854288101E0
3.058530878E1;3.122359753E0;-1.616487503E0;8.817218781E0
3.059538778E1;2.424391031E0;-3.324484825E-1;9.561244965E0
3.061500878E1;2.650713205E0;1.527166843E0;1.184334564E1
3.062523478E1;2.162246227E0;3.234826088E0;1.329351807E1
3.063580778E1;9.770761132E-1;4.523099899E0;1.201074505E1
3.065616378E1;-2.235152245E0;6.847692490E0;1.030425739E1
3.066631878E1;-1.908643723E0;7.665040016E0;8.835013390E0
3.068559978E1;3.610851765E-1;7.887758255E0;7.893781185E0
3.070506078E1;4.009298325E0;6.418389320E0;6.746258259E0
3.071511378E1;4.302471638E0;6.544324875E0;4.456781387E0
3.072511978E1;2.510884285E0;6.461030006E0;2.070348740E0
3.073541878E1;5.805087090E-2;6.170453072E0;7.113876343E-1
3.075506978E1;-2.262241364E0;4.406853199E0;-1.774085999E0
3.076512878E1;-1.818114281E0;3.472629070E0;-2.041921616E0
3.078517478E1;4.579102993E-1;4.669266224E0;-3.574588776E0
3.080503078E1;-4.627859116E0;6.764200687E0;-1.460197926E1
3.081510478E1;-8.160135269E0;9.323863983E-1;-1.817136765E1
3.083507678E1;-3.085946321E0;-1.470751953E1;-1.571963215E1
3.085540578E1;5.602146149E0;-5.059251308E0;7.050304413E0
3.087507778E1;-2.335862160E0;7.415928841E0;1.804985046E1
3.088534278E1;-8.315000534E0;1.220343971E1;1.015916634E1
3.090501578E1;-4.198219299E0;4.371519089E0;4.419880867E0
3.091514478E1;2.311515331E0;-1.662614822E0;2.176576138E0
3.092580278E1;3.420455456E0;-5.663001060E0;-2.373052597E0
3.094540278E1;-1.583279133E0;-1.034836388E1;1.537577152E0
3.095575178E1;-3.375218391E0;-8.740051270E0;2.313668251E0
3.097540878E1;-2.279792786E0;-6.294083595E-1;1.528508663E0
3.099500878E1;-4.938046932E-1;8.480114937E-1;3.517066002E0
3.100514978E1;1.695582867E-1;5.605840683E-1;3.590044498E0
3.101532578E1;2.360872030E-1;4.902276993E-1;2.901556015E0
3.103502678E1;8.573837280E-1;-2.661690712E-1;3.773882151E0
3.104504978E1;1.131831646E0;-5.193820000E-1;3.778948545E0
3.105509878E1;1.616171598E0;-6.930994987E-1;2.677267075E0
3.106511478E1;1.860886574E0;-1.028934479E0;1.907439232E0
3.108564778E1;1.555089831E0;-1.652153969E0;3.101415873E0
3.110533978E1;2.357507944E0;-1.699934483E0;2.151191473E0
3.112562678E1;1.608243823E0;-2.126777649E0;1.357747793E0
3.114528278E1;4.533092380E-1;-2.247146606E0;2.459129095E0
3.115533178E1;5.622133017E-1;-2.164130211E0;2.264259100E0
3.117518178E1;7.594310045E-1;-2.013028145E0;2.174432278E0
3.118540878E1;8.298501968E-1;-2.302036285E0;3.026836157E0
3.120516178E1;2.577260017E0;-2.044085503E0;1.687909126E0
3.121544778E1;3.137735844E0;-1.974005699E0;2.384097576E-1
3.122594778E1;2.924167633E0;-1.893808365E0;-8.642792702E-1
3.124525178E1;1.457435012E0;-1.983234406E0;-1.934875011E0
3.125585278E1;1.533249855E0;-1.726439476E0;-1.798123598E0
3.127515378E1;5.420194626E0;2.673215866E-1;-2.020896435E0
3.129498178E1;6.367652893E0;1.635375023E0;-2.646340847E0
3.130516278E1;5.637184620E0;1.717386723E0;-1.342612267E0
3.131538578E1;5.064769745E0;1.699178696E0;1.087785959E0
3.133514478E1;6.008158684E0;6.818027496E-1;-1.807399988E0
3.134526578E1;6.775876045E0;7.749118805E-1;-3.359779358E0
3.136509178E1;3.934599161E0;1.964473724E0;-5.179005623E0
3.138549078E1;-1.508794188E0;4.403293133E0;-3.139924526E0
3.140533978E1;-3.684634686E0;4.765733242E0;-2.921820641E0
3.142580278E1;-2.584082603E0;5.027408600E0;-3.393535614E0
3.144499378E1;8.737809658E-1;5.130979538E0;-2.182274103E0
3.145549478E1;5.868320465E-1;4.290899277E0;-1.645733714E0
3.147499778E1;-2.234134197E0;2.691653728E0;-1.116271734E0
3.148526178E1;-3.235621691E0;2.335762978E0;-3.835338354E-1
3.150535578E1;-3.012899876E0;3.127666950E0;2.800152302E-1
3.152542078E1;-1.243796706E0;2.713795185E0;4.717331886E0
3.154524078E1;-2.115535736E-1;1.970413685E0;7.106390476E0
3.155524978E1;-1.008454680E0;1.678883076E0;7.723055840E0
3.156581978E1;-2.206775188E0;-1.867839813E0;7.063412666E0
3.157604078E1;-1.703148246E0;-4.587844849E0;5.000479698E0
3.159516278E1;1.314356327E-1;-9.537096024E0;1.092224717E0
3.161507378E1;3.925428867E0;-1.372478390E1;5.966068506E-1
3.162511878E1;5.611347198E0;-1.595339966E1;2.114841223E0
3.163519078E1;6.770655632E0;-1.839118004E1;1.656118512E0
3.164742778E1;6.142260551E0;-1.889490128E1;3.547970653E-1
3.166532878E1;3.753712654E0;-1.419636726E1;-2.166725397E0
3.168535478E1;-3.425609112E0;-9.663222313E0;-5.438577175E0
3.170517078E1;-6.038693428E0;-3.461358070E0;-6.476174831E0
3.171532378E1;-4.405186653E0;-9.357328415E-1;-7.314334393E0
3.173515078E1;-1.000501990E0;2.927064896E-1;-7.792606831E0
3.175508278E1;2.193778515E0;-1.885862350E0;-7.374060154E0
3.177595778E1;7.975415230E0;-1.123975754E0;-6.101131916E0
3.179512178E1;5.185299873E0;9.867486954E-1;-9.632834196E-1
3.181511478E1;7.947344780E-1;3.358394146E0;1.257819235E-1
3.182517078E1;-3.425947428E-1;3.127861500E0;6.449533701E-1
3.184511678E1;-1.811650038E0;1.089174271E0;1.943845153E0
3.185691978E1;-1.660908103E0;-9.461975098E-1;1.537396312E0
3.187504178E1;-2.298588991E0;-5.274685860E0;-1.648997545E0
3.189509878E1;-2.660406590E0;-3.143959045E0;-1.079558849E0
3.190531578E1;-2.543411016E0;-2.135047913E0;-2.690808773E-1
3.192546578E1;-3.590922356E-1;-1.566606522E0;-9.576063156E-1
3.194522378E1;1.625930786E0;-4.999005318E0;-4.589032173E0
3.196499878E1;-5.841071606E-1;-6.957326889E0;-1.304654121E0
3.197597178E1;-2.500062943E0;-5.371382713E0;1.851862907E0
3.199508378E1;-1.857957482E0;-7.362491131E0;1.653680801E-1
3.200518478E1;-1.946836114E0;-7.984230518E0;-7.022771835E-1
3.202505478E1;-2.188441515E0;-7.769031048E0;4.153256416E-1
3.203522678E1;-1.319317102E0;-7.333671093E0;4.248499870E-1
3.205508578E1;1.654670238E-1;-7.662971020E0;3.890335083E0
3.207502678E1;2.709973335E0;-6.177411556E0;1.018442059E1
3.209507778E1;4.190104008E0;-4.240192890E0;1.303718948E1
3.210536078E1;5.373156548E0;-3.300064564E0;1.315317726E1
3.211539278E1;5.276315212E0;-2.294248343E0;1.347749901E1
3.212543978E1;5.180957794E0;-9.658286572E-1;1.431361961E1
3.213565278E1;5.857455254E0;2.901546955E-1;1.663137436E1
3.214568578E1;5.339159966E0;1.796714306E0;1.790293503E1
3.216519578E1;8.386939764E-2;7.935600281E0;1.414200592E1
3.217592078E1;-2.028436661E0;8.664842606E0;1.383404636E1
3.219559578E1;-4.067369461E0;9.298976898E0;1.379651451E1
3.221520578E1;-2.739581347E0;8.226538658E0;9.816809654E0
3.223518578E1;-7.853944302E-1;6.909705162E0;5.874234676E0
3.224578478E1;-3.430001736E-1;6.135777950E0;3.985326290E0
3.226573378E1;1.866937160E0;4.459775925E0;1.079867363E0
3.228512678E1;3.507154942E0;1.989132166E0;-1.745999336E0
3.230544378E1;3.722465038E0;6.698399782E-1;-4.486461639E0
3.231570778E1;2.593160391E0;1.011369705E0;-5.340838432E0
3.233504878E1;-2.405433416E0;3.100919962E0;-8.834055901E0
3.234531078E1;-9.424259186E0;3.626264572E0;-1.814840889E1
3.235595978E1;-1.596529961E1;-1.244614840E0;-2.878434372E1
3.237514578E1;-6.075708866E-1;-1.429234266E0;8.733806610E0
3.238532778E1;-1.376468182E0;7.534494400E0;2.470257568E1
3.239593278E1;-6.277988434E0;1.220474052E1;1.976071548E1
3.241499478E1;-2.115696144E1;1.203854847E1;-5.508834839E0
3.242516978E1;-5.078113556E0;3.278363228E0;-8.348693848E-1
3.243597778E1;8.371944427E0;-2.836186886E0;2.980963707E0
3.245499978E1;6.047010422E0;-1.008055782E1;1.690698147E0
3.246526178E1;3.687292337E-1;-1.006882668E1;-1.381282806E0
3.248514578E1;-2.050140858E0;-4.570646763E0;1.237233162E0
3.249516478E1;-1.148097277E0;-1.805571079E0;1.242607117E0
3.250612978E1;-6.153863668E-1;-5.795331001E-1;2.789956093E0
3.252532878E1;-9.387779236E-1;-4.635415077E-1;3.290055752E0
3.253544178E1;-1.115625978E0;-5.766730309E-1;3.444329262E0
3.255505478E1;-9.553747177E-1;-8.667607307E-1;4.436006069E0
3.256516978E1;4.566400647E-1;-1.209986687E0;5.260757446E0
3.257521778E1;5.709237456E-1;-1.767192841E0;4.507470131E0
3.258699978E1;-2.096884847E-1;-2.553852558E0;4.692806244E0
3.260543078E1;-2.041596174E-1;-3.444135189E0;3.980246305E0
3.261563278E1;5.177450180E-2;-3.701613426E0;3.429724693E0
