"Time (s)";"Acceleration x (m/s^2)";"Acceleration y (m/s^2)";"Acceleration z (m/s^2)"
0.000000000E0;-3.160346150E-1;3.050212860E0;8.781931877E0
2.415230700E-2;-1.544260085E-1;3.003525972E0;8.866926193E0
4.116996000E-2;-5.027823523E-2;2.888604403E0;8.961497307E0
5.472628700E-2;2.035071515E-2;2.816778183E0;9.087192535E0
6.648195000E-2;6.344634295E-2;2.789244890E0;9.212887764E0
7.733828200E-2;6.823474914E-2;2.779668093E0;9.330204010E0
8.775744800E-2;7.182605099E-3;2.772485495E0;9.425971985E0
9.815703100E-2;-8.619125932E-2;2.795230389E0;9.469067574E0
1.081783220E-1;-1.855506301E-1;2.822763920E0;9.528923035E0
1.183474680E-1;-2.609679997E-1;2.859874010E0;9.557653427E0
1.382478270E-1;-3.627215624E-1;2.961627483E0;9.625887871E0
1.583711670E-1;-4.489128292E-1;3.051409960E0;9.557653427E0
1.685928900E-1;-4.094084799E-1;3.075352192E0;9.477447510E0
1.886276830E-1;-3.519476354E-1;3.118447781E0;9.402029991E0
2.085578810E-1;-2.250549644E-1;3.033453465E0;9.429563522E0
2.187897470E-1;-1.604115069E-1;2.998737574E0;9.460687637E0
2.290041800E-1;-1.041477770E-1;2.984372377E0;9.441534042E0
2.390858970E-1;-9.935937077E-2;2.962824583E0;9.406818390E0
2.588496840E-1;-1.939303428E-1;2.906560898E0;9.442731857E0
2.786658810E-1;-2.394201756E-1;2.863465309E0;9.477447510E0
2.890402470E-1;-2.597708702E-1;2.857479811E0;9.436745644E0
3.089085220E-1;-2.944868207E-1;2.880224705E0;9.366117477E0
3.192865680E-1;-3.016694188E-1;2.877830505E0;9.349357605E0
3.391118520E-1;-2.825157940E-1;2.938882589E0;9.220070839E0
3.588639230E-1;-2.442085743E-1;2.987963676E0;9.209297180E0
3.786786910E-1;-1.699883193E-1;3.014299870E0;9.496601105E0
3.987798830E-1;-1.939303428E-1;2.995146275E0;9.657012939E0
4.095332480E-1;-2.023100406E-1;2.978386879E0;9.672574997E0
4.287097720E-1;-2.250549644E-1;2.941276789E0;9.643844604E0
4.487674030E-1;-2.956839204E-1;2.943670988E0;9.485827446E0
4.587695080E-1;-3.627215624E-1;2.947262287E0;9.421183586E0
4.787830870E-1;-3.268085420E-1;2.949656487E0;9.346963882E0
4.890223500E-1;-3.016694188E-1;2.935291290E0;9.350554466E0
5.087090480E-1;-2.681505978E-1;2.960430384E0;9.364919662E0
5.286244720E-1;-4.345476031E-1;2.954444885E0;9.300276756E0
5.485528280E-1;-3.196259141E-1;3.011905670E0;9.352949142E0
5.585977210E-1;-3.459621370E-1;2.991554976E0;9.363722801E0
5.687701670E-1;-2.657563984E-1;2.993949175E0;9.441534042E0
5.885677520E-1;-1.556231081E-1;2.980781078E0;9.415198326E0
5.989341830E-1;-1.604115069E-1;2.967612982E0;9.447520256E0
6.186905060E-1;-1.280897856E-1;2.936488390E0;9.527725220E0
6.385825870E-1;-1.628057212E-1;2.890998602E0;9.466673851E0
6.487241000E-1;-1.412578970E-1;2.906560898E0;9.442731857E0
6.685959850E-1;-1.795651317E-1;2.907757998E0;9.466673851E0
6.786542990E-1;-1.915361285E-1;2.916137695E0;9.488221169E0
6.986210350E-1;-1.687912196E-1;2.946065187E0;9.488221169E0
7.186392190E-1;-1.903390288E-1;2.946065187E0;9.351752281E0
7.286579160E-1;-2.082955539E-1;2.935291290E0;9.289502144E0
7.387537650E-1;-2.442085743E-1;2.948459387E0;9.255983353E0
7.586504010E-1;-3.327940404E-1;2.958036184E0;9.260771751E0
7.686965070E-1;-3.447650373E-1;3.011905670E0;9.358934402E0
7.787230600E-1;-3.303998411E-1;3.032256365E0;9.422380447E0
7.985859750E-1;-3.387795389E-1;3.046621561E0;9.435548782E0
8.187979540E-1;-3.363853395E-1;3.059789658E0;9.530119896E0
8.385936990E-1;-2.669534981E-1;3.017891169E0;9.613917351E0
8.585716350E-1;-2.729389966E-1;2.990357876E0;9.642647743E0
8.688586240E-1;-2.789244950E-1;2.998737574E0;9.598354340E0
8.788841190E-1;-3.244143426E-1;2.987963676E0;9.612719536E0
8.988079900E-1;-3.639186621E-1;3.008314371E0;9.771934509E0
9.187927080E-1;-2.190694511E-1;3.025073767E0;9.755174637E0
9.288461610E-1;-1.819593310E-1;2.966415882E0;9.546878815E0
9.485900000E-1;-2.298433632E-1;3.064578056E0;9.338583946E0
9.586753070E-1;-3.399766386E-1;3.057395458E0;9.336189270E0
9.785110370E-1;-3.890577853E-1;3.165134668E0;1.014542961E1
9.988699690E-1;-1.735796183E-1;3.159149170E0;9.337387085E0
1.018649702E0;-3.459621370E-1;3.050212860E0;8.456320763E0
1.038722136E0;-7.565677166E-1;3.612850428E0;9.404424667E0
1.058713244E0;-4.225766063E-1;3.362656355E0;8.912415504E0
1.068829429E0;-5.363011956E-1;3.367444754E0;8.898050308E0
1.089160567E0;-5.410895944E-1;3.368641853E0;8.987833023E0
1.108840852E0;-6.440402865E-1;3.324349165E0;9.023746490E0
1.129046923E0;-4.297592044E-1;3.341108561E0;9.204508781E0
1.152198191E0;-8.379706144E-1;3.259705544E0;9.047688484E0
1.168576614E0;-8.379706144E-1;3.259705544E0;9.047688484E0
1.178732614E0;-1.399410844E0;3.661931515E0;8.661025047E0
1.188856614E0;-1.301248670E0;3.745728493E0;8.831012726E0
1.199860614E0;-1.094150186E0;3.849876404E0;9.217676163E0
1.210574614E0;-1.145625472E0;3.791218281E0;9.366117477E0
1.228913614E0;-1.267729759E0;3.775655985E0;9.091980934E0
1.239531614E0;-1.157596469E0;3.745728493E0;9.261969566E0
1.250315614E0;-1.023521185E0;3.634398222E0;9.493009567E0
1.269635614E0;-7.996633649E-1;3.508702517E0;9.882067680E0
1.288724614E0;-8.882488012E-1;3.465606928E0;9.870096207E0
1.299317614E0;-9.696516991E-1;3.457227230E0;9.867702484E0
1.318475614E0;-8.702923059E-1;3.471592426E0;9.471462250E0
1.328567614E0;-7.457938194E-1;3.445256233E0;9.149441719E0
1.348504614E0;-1.071405292E0;3.485957623E0;8.634688377E0
1.358631614E0;-1.364694953E0;3.640383720E0;8.757989883E0
1.378541614E0;-1.563413739E0;3.683479309E0;9.363722801E0
1.388698614E0;-1.400607944E0;3.661931515E0;9.208099365E0
1.413557614E0;-1.297657371E0;3.657143116E0;9.138668060E0
1.428643614E0;-1.218648672E0;3.750516891E0;9.387664795E0
1.439304614E0;-1.179144382E0;3.787626982E0;9.427168846E0
1.459401614E0;-9.672574997E-1;4.170699596E0;7.976283073E0
1.478238614E0;-8.726865053E-1;3.580528736E0;7.802703381E0
1.488586614E0;-7.553706169E-1;3.562572241E0;7.796717644E0
1.509681614E0;-1.085770488E0;3.576937437E0;7.903259754E0
1.529684614E0;-2.032677174E0;4.351461411E0;8.097189903E0
1.548987614E0;-2.310404539E0;4.168305397E0;8.815450668E0
1.568204614E0;-2.509123325E0;4.107253075E0;9.009381294E0
1.578578614E0;-3.033453465E0;4.283226967E0;9.607931137E0
1.589314614E0;-2.962824583E0;4.200626850E0;9.692925453E0
1.608518614E0;-2.287659645E0;3.810372114E0;9.776722908E0
1.628791614E0;-1.855506301E0;3.315969467E0;9.042900085E0
1.648793614E0;-1.790862918E0;3.740940094E0;8.911218643E0
1.668230614E0;-2.014720678E0;4.487931252E0;8.878896713E0
1.678543614E0;-1.976413488E0;4.461595058E0;8.766369820E0
1.688805614E0;-2.044648170E0;4.121618271E0;8.785523415E0
1.709333614E0;-2.226607561E0;4.171896458E0;9.002198219E0
1.728658614E0;-2.530671120E0;4.290409565E0;8.906430244E0
1.748762614E0;-2.682703018E0;4.195838451E0;8.452729225E0
1.768545614E0;-2.557007313E0;2.638410330E0;8.777143478E0
1.788650614E0;-2.703053713E0;4.066551685E0;8.963891029E0
1.808596614E0;-1.910573006E0;5.210979939E0;8.821435928E0
1.828540614E0;-1.948880196E0;4.556165695E0;8.202534676E0
1.838588614E0;-1.812410712E0;4.410119534E0;8.233659744E0
1.848782614E0;-1.909375906E0;4.213795185E0;8.596381187E0
1.868511614E0;-2.516305923E0;3.732560396E0;8.216899872E0
1.878562614E0;-2.646790028E0;3.648763418E0;8.040925980E0
1.898983614E0;-2.606088638E0;3.920505285E0;7.775169849E0
1.909373614E0;-2.464830637E0;3.950432777E0;7.915230751E0
1.928873614E0;-2.006340981E0;4.070142746E0;8.452729225E0
1.948471614E0;-1.385045648E0;4.437653065E0;8.366538048E0
1.959091614E0;-1.349132657E0;4.582501888E0;8.562862396E0
1.970836614E0;-1.574187636E0;4.264073372E0;8.785523415E0
1.988988614E0;-1.720233917E0;3.624821424E0;9.149441719E0
1.999236614E0;-1.641225219E0;3.660734415E0;9.266757965E0
2.018518614E0;-1.130063176E0;3.703830004E0;8.895656586E0
2.028951614E0;-1.028309584E0;3.875015497E0;9.093177795E0
2.050078614E0;-1.034295082E0;3.738545895E0;9.253589630E0
2.068811614E0;-1.279700756E0;2.932897091E0;9.412803650E0
2.089325614E0;-7.517793179E-1;3.179499865E0;9.320627213E0
2.100310614E0;-5.758054852E-1;3.581725836E0;9.227252960E0
2.118623614E0;-5.207388401E-1;4.157531261E0;9.536105156E0
2.128888614E0;-6.165069342E-1;4.232948780E0;1.017176628E1
2.149164614E0;-1.395819545E0;4.193444252E0;8.301894188E0
2.169413614E0;-1.784877419E0;3.362656355E0;8.477868080E0
2.185250614E0;-1.766920805E0;3.307589531E0;8.999804497E0
2.198931614E0;-1.537077546E0;3.262099743E0;1.038484955E1
2.209069614E0;-1.407790542E0;3.283647537E0;1.086129570E1
2.228694614E0;-1.200692177E0;3.406949043E0;1.008916569E1
2.248894614E0;-1.262941360E0;3.355473757E0;9.036913872E0
2.259429614E0;-1.331176162E0;3.223792553E0;8.894459724E0
2.278981614E0;-1.508347034E0;3.332728863E0;9.181763649E0
2.298498614E0;-1.100135684E0;3.557783842E0;9.595960617E0
2.318502614E0;-6.153098345E-1;3.919308186E0;1.009994030E1
2.328814614E0;-6.464344859E-1;4.000710964E0;9.750386238E0
2.339279614E0;-5.422866940E-1;4.121618271E0;9.281123161E0
2.358440614E0;-3.519476354E-1;4.229357243E0;8.890868187E0
2.368777614E0;-4.369418025E-1;4.277241230E0;8.461109161E0
2.379499614E0;-4.345476031E-1;4.277241230E0;8.242039680E0
2.398409614E0;-4.058171809E-1;4.422090530E0;8.167819023E0
2.409247614E0;-5.662286878E-1;4.347870350E0;8.657433510E0
2.419494614E0;-7.398083210E-1;4.204218388E0;9.785101891E0
2.438631614E0;-6.619967818E-1;3.881000996E0;1.026035118E1
2.458553614E0;-4.405331016E-1;4.048594952E0;9.147047997E0
2.468597614E0;-4.141969085E-1;4.082113743E0;8.647856712E0
2.488576614E0;-3.603273630E-1;4.077325344E0;8.002618790E0
2.498683614E0;-2.059013397E-1;4.168305397E0;8.143877029E0
2.509270614E0;-3.830722719E-2;4.253299236E0;8.713697433E0
2.528814614E0;-4.537012279E-1;4.116829872E0;9.096769333E0
2.539004614E0;-5.123591423E-1;4.043806553E0;9.260771751E0
2.558470614E0;-4.261679053E-1;4.005499363E0;9.713275909E0
2.569452614E0;-4.800374508E-1;4.003105164E0;9.870096207E0
2.588435614E0;-4.417302012E-1;3.981557369E0;9.364919662E0
2.598455614E0;-4.632780254E-1;4.054580688E0;8.826224327E0
2.609369614E0;-3.794809580E-1;4.158728123E0;8.580819130E0
2.628784614E0;-1.951274425E-1;4.152742863E0;9.009381294E0
2.649422614E0;-3.088520169E-1;4.016273499E0;9.138668060E0
2.668515614E0;-3.603273630E-1;3.871424198E0;9.343372345E0
2.688667614E0;-3.675099611E-1;3.728969097E0;9.230844498E0
2.709215614E0;-1.723825186E-1;3.801992416E0;8.929175377E0
2.728927614E0;-1.508347094E-1;3.927687883E0;8.789113998E0
2.739932614E0;-3.028665185E-1;3.915716887E0;8.834604263E0
2.758447614E0;-1.783680320E-1;3.772064686E0;8.655038834E0
2.778670614E0;-2.358288616E-1;3.732560396E0;8.646659851E0
2.788807614E0;-3.651157618E-1;3.676296711E0;8.641871452E0
2.808885614E0;-3.699041605E-1;3.569754839E0;8.755595207E0
2.829064614E0;1.149216816E-1;3.841496706E0;9.038111687E0
2.848796614E0;2.633621916E-2;3.806780815E0;9.247604370E0
2.868944614E0;2.693476975E-1;4.085705280E0;8.927978516E0
2.888758614E0;2.035071515E-2;4.062960148E0;9.364919662E0
2.909279614E0;-3.172317147E-1;3.738545895E0;9.783905029E0
2.929395614E0;-6.871358752E-1;3.290830135E0;9.895236015E0
2.948880614E0;-7.841010690E-1;3.035847664E0;9.374496460E0
2.968842614E0;-6.308721304E-1;3.187879562E0;9.087192535E0
2.988592614E0;1.855506301E-1;3.570951939E0;8.283937454E0
2.998904614E0;7.230489254E-1;3.756502390E0;8.064867973E0
3.018583614E0;1.233013868E0;4.023456097E0;7.829039574E0
3.028599614E0;1.381454349E0;4.047398090E0;8.067262650E0
3.039010614E0;1.549048543E0;4.013879299E0;8.356961250E0
3.049426614E0;1.701080322E0;3.942053080E0;8.572439194E0
3.059496614E0;1.819593310E0;3.922899485E0;8.555679321E0
3.078711614E0;1.350329757E0;3.657143116E0;8.720879555E0
3.099000614E0;1.165976286E0;3.764882088E0;9.605537415E0
3.119232614E0;1.051054597E0;3.679888010E0;1.005804157E1
3.138449614E0;1.223437071E0;3.318363667E0;9.922768593E0
3.148935614E0;1.320402265E0;3.240551949E0;1.005804157E1
3.159733614E0;1.387439847E0;3.130418777E0;1.014542961E1
3.169842614E0;1.284489155E0;2.890998602E0;1.035971069E1
3.188810614E0;1.540668845E0;2.795230389E0;9.994594574E0
3.198900614E0;1.630451322E0;2.730587006E0;9.777919769E0
3.209399614E0;1.818396211E0;2.779668093E0;9.265560150E0
3.229205614E0;2.140416384E0;3.215412855E0;8.327033043E0
3.248574614E0;1.831564307E0;3.669114113E0;7.824251175E0
3.258867614E0;1.684320927E0;3.657143116E0;8.075642586E0
3.278613614E0;1.590947032E0;3.332728863E0;7.984662533E0
3.298553614E0;1.308431268E0;3.269282341E0;8.954314232E0
3.318573614E0;1.356315255E0;3.207033157E0;9.071630478E0
3.329149614E0;1.159990668E0;3.198653460E0;9.129091263E0
3.348581614E0;8.307880163E-1;3.082534790E0;9.651026726E0
3.358586614E0;8.355764151E-1;2.919728994E0;9.458293915E0
3.369640614E0;1.042674899E0;2.840720415E0;9.473855972E0
3.388442614E0;8.523358107E-1;2.460042238E0;9.477447510E0
3.398494614E0;6.631938815E-1;2.401384354E0;9.615114212E0
3.420115614E0;6.320692301E-1;2.653972626E0;9.373299599E0
3.438273614E0;7.254431248E-1;2.967612982E0;8.505401611E0
3.448611614E0;7.709329724E-1;3.147178173E0;8.312667847E0
3.468795614E0;7.422025204E-1;3.161543369E0;8.334216118E0
3.488754614E0;1.083376288E0;2.737769604E0;8.382100105E0
3.508423614E0;8.367735147E-1;2.467224836E0;8.582015991E0
3.519059614E0;-9.097966552E-2;1.745373011E0;7.649474621E0
3.538447614E0;-8.978256583E-2;1.855506301E0;8.469488144E0
3.548601614E0;-2.777273953E-1;2.621650934E0;9.264363289E0
3.559238614E0;9.732429981E-1;3.979163170E0;1.008318043E1
3.578530614E0;7.637503147E-1;4.092887878E0;9.720458984E0
3.598567614E0;8.391677141E-1;4.204218388E0;8.674192429E0
3.609001614E0;2.059013367E0;5.467159748E0;7.969100475E0
3.628605614E0;1.790862918E0;4.936843872E0;8.735244751E0
3.648925614E0;1.641225219E0;4.327519417E0;9.755174637E0
3.668755614E0;1.133654475E0;4.976348400E0;9.714473724E0
3.689036614E0;-1.582567334E0;1.845929503E0;1.129704094E1
3.708436614E0;-2.059013397E-1;2.042253971E0;1.311064816E1
3.729002614E0;-8.427590132E-1;3.118447781E0;7.869740963E0
3.748658614E0;2.777273953E-1;4.252102375E0;7.994239330E0
3.769493614E0;5.195417404E-1;5.185841084E0;1.122641182E1
3.788584614E0;-6.081272364E-1;4.881777287E0;9.769539833E0
3.798925614E0;-7.170634270E-1;4.454412460E0;7.951143742E0
3.818433614E0;-1.060631394E0;3.387795448E0;6.337451935E0
3.828587614E0;6.739677787E-1;2.795230389E0;1.102888966E1
3.848672614E0;2.650381327E0;4.867412090E0;1.921466637E1
3.868649614E0;1.119289279E0;5.553350925E0;1.238400841E1
3.878827614E0;1.885433793E0;5.171475887E0;1.184531307E1
3.898578614E0;1.097741485E0;5.427655220E0;8.832210541E0
3.908684614E0;-5.590460896E-1;4.728548527E0;6.775590897E0
3.928743614E0;-1.110909581E0;3.533841610E0;3.181894064E0
3.948752614E0;-1.604115069E-1;4.705803394E0;2.431311846E0
3.958886614E0;7.565677166E-1;5.444414616E0;2.260126352E0
3.978485614E0;5.424064159E0;7.509413719E0;1.244745445E1
3.988551614E0;5.585672379E0;7.040150166E0;1.395939255E1
3.999355614E0;3.530250311E0;5.021838188E0;1.017176628E1
4.018444614E0;3.339911461E0;3.080140591E0;9.985017776E0
4.038556614E0;5.657498837E0;4.195838451E0;7.326257229E0
4.058199614E0;7.697358608E0;5.422866821E0;6.192602634E0
4.068529614E0;7.481880188E0;5.366602898E0;5.221754074E0
4.088624614E0;5.045780182E0;3.252522945E0;3.834314108E0
4.108633614E0;5.359420300E0;4.047398090E0;5.244498730E0
4.128582614E0;7.137115479E0;4.618414879E0;5.877765179E0
4.149119614E0;8.372523308E0;7.110779285E0;3.192667961E0
4.159158614E0;6.903680801E0;7.086836815E0;3.086126089E0
4.169193614E0;4.805162907E0;6.020220280E0;3.529053211E0
4.188601614E0;1.795651317E0;2.833537817E0;4.537012100E0
4.208961614E0;1.529894829E0;2.234987259E0;5.175066948E0
4.229372614E0;1.508347034E0;2.834734917E0;2.943670988E0
4.248542614E0;4.352658749E0;4.243722439E0;4.769249916E0
4.259054614E0;5.602431774E0;4.510675907E0;4.663905144E0
4.279574614E0;5.528211594E0;4.853046894E0;5.802347660E0
4.298545614E0;3.731363297E0;5.149928093E0;4.845864296E0
4.309382614E0;3.615244627E0;5.638344765E0;4.345476151E0
4.321313614E0;4.291606426E0;5.906495571E0;4.492719650E0
4.338817614E0;5.732915878E0;7.874529362E0;4.147954464E0
4.349936614E0;6.094440460E0;8.508993149E0;3.280056238E0
4.368529614E0;1.088044930E1;1.033337498E1;3.119644880E0
4.378855614E0;1.047822380E1;7.177816868E0;9.935936928E-1
4.398434614E0;5.547365189E0;1.053688145E1;2.086546898E0
4.409192614E0;5.483919144E0;9.346963882E0;1.450886250E0
4.429303614E0;6.511031628E0;1.102410126E1;-5.614402890E-1
4.439952614E0;4.564545631E0;1.003649330E1;-4.560954273E-1
4.458576614E0;4.173093796E0;9.106346130E0;3.065775394E0
4.481564614E0;6.165069580E0;1.115697956E1;5.416881561E0
4.498328614E0;6.463147640E0;1.180580902E1;5.707777023E0
4.508720614E0;5.242104530E0;1.205121422E1;4.220977783E0
4.528581614E0;3.906140089E0;1.102769279E1;4.323928356E0
4.538629614E0;3.294421434E0;9.746794701E0;4.486733913E0
4.559551614E0;3.500322819E0;9.336189270E0;4.453215122E0
4.580002614E0;3.551798105E0;8.856152534E0;5.905298710E0
4.598514614E0;3.119644880E0;8.450334549E0;6.852205276E0
4.608832614E0;3.044227362E0;8.163030624E0;6.290764809E0
4.628624614E0;2.507926226E0;8.244433403E0;6.133944988E0
4.648686614E0;1.960851192E0;7.508216381E0;6.242880821E0
4.669121614E0;1.875856996E0;6.558915615E0;5.591658115E0
4.688589614E0;2.263717651E0;6.210559368E0;5.768828869E0
4.708881614E0;1.564610839E0;7.015010834E0;7.297526836E0
4.728982614E0;8.535329103E-1;6.734889507E0;7.819462776E0
4.748496614E0;8.152256608E-1;6.344634533E0;7.250839710E0
4.758539614E0;2.561795712E-1;6.072892666E0;6.822277546E0
4.778547614E0;-2.693476975E-1;6.714538574E0;5.562927723E0
4.788551614E0;-6.979097724E-1;6.770802498E0;5.555745125E0
4.799467614E0;-1.328781962E0;6.455965042E0;6.212953568E0
4.818593614E0;-4.525041282E-1;6.324283600E0;5.340266705E0
4.829338614E0;-4.141969085E-1;6.400898457E0;5.164293289E0
4.849367614E0;-3.052607179E-1;6.646304131E0;6.461950302E0
4.868664614E0;-1.556231081E-1;6.636727333E0;6.861782074E0
4.888559614E0;-4.094084799E-1;6.625953197E0;5.571307182E0
4.908607614E0;-7.841010690E-1;5.807136059E0;6.519411087E0
4.919249614E0;-3.435679376E-1;5.866991043E0;6.549338818E0
4.939012614E0;4.740519226E-1;6.464344501E0;6.588842869E0
4.958880614E0;7.505822182E-1;7.164648533E0;6.916848660E0
4.969204614E0;7.362170219E-1;6.690596581E0;7.329848289E0
4.988551614E0;8.870517015E-1;6.283582211E0;8.486248016E0
4.998607614E0;1.426944256E0;6.749254704E0;7.803900242E0
5.018894614E0;8.044517636E-1;7.662642479E0;6.360196590E0
5.038461614E0;-8.068459630E-1;8.544905663E0;7.448361397E0
5.048911614E0;-4.991910458E-1;8.573636055E0;8.167819023E0
5.068945614E0;5.937620401E-1;1.050455952E1;9.018958092E0
5.088466614E0;1.939303428E-1;8.324639320E0;8.475474358E0
5.098637614E0;-5.578489900E-1;7.600393295E0;6.436811447E0
5.108766614E0;-4.680664241E-1;7.876923561E0;6.550535679E0
5.118889614E0;-5.506663918E-1;8.085219383E0;6.262034416E0
5.138424614E0;-1.352723986E-1;8.835801125E0;6.981492043E0
5.149174614E0;3.531447649E-1;8.956708908E0;6.683413982E0
5.168597614E0;1.280897856E-1;8.693346024E0;5.397727966E0
5.178611614E0;-2.693476975E-1;8.743624687E0;4.819528103E0
5.198536614E0;-1.270123959E0;8.793902397E0;3.987542868E0
5.208810614E0;-9.876081944E-1;8.944737434E0;3.444059134E0
5.228899614E0;2.462436438E0;1.021366405E1;2.924517393E0
5.248558614E0;3.711012602E0;1.029267311E1;4.283226967E0
5.268705614E0;4.612429619E0;8.858546257E0;3.473986626E0
5.288531614E0;4.429273129E0;9.022548676E0;3.903745890E0
5.298992614E0;3.481169224E0;8.702922821E0;4.291606426E0
5.309082614E0;3.128024578E0;8.283937454E0;3.784035683E0
5.328664614E0;3.639186621E0;7.705738068E0;3.722983599E0
5.339254614E0;4.030638695E0;7.417236805E0;4.274847031E0
5.358647614E0;4.656722069E0;7.080851555E0;4.704606533E0
5.378629614E0;3.050212860E0;6.305130005E0;5.348646641E0
5.398888614E0;1.893813491E0;7.199364662E0;4.277241230E0
5.408992614E0;1.708262920E0;7.966706276E0;3.458424330E0
5.419386614E0;1.604115129E0;7.790732384E0;3.119644880E0
5.441238614E0;2.036268473E0;7.675810814E0;5.044582844E0
5.454544114E0;2.681505919E0;7.085639954E0;6.005855083E0
5.468944614E0;2.681505919E0;7.085639954E0;6.005855083E0
5.479468614E0;2.068590164E0;6.825869083E0;6.028599739E0
5.498938614E0;1.715445518E0;7.041347027E0;4.929661274E0
5.510910614E0;1.953668594E0;7.216124058E0;5.043385983E0
5.530235614E0;2.564189911E0;6.454767704E0;6.452373505E0
5.548541614E0;1.698686123E0;5.960365295E0;6.141127586E0
5.559577614E0;3.223792553E0;7.360973358E0;7.065289021E0
5.578537614E0;5.105635166E0;8.586804390E0;5.279214859E0
5.588568614E0;6.265625954E0;8.923190117E0;4.290409565E0
5.608850614E0;5.363011837E0;8.255207062E0;4.538209438E0
5.628738614E0;3.626018524E0;6.083666325E0;4.508281708E0
5.649217614E0;2.881421804E0;6.220136166E0;5.911283970E0
5.668663614E0;4.601655483E0;8.487444878E0;5.985504150E0
5.688750614E0;4.762067318E0;8.889671326E0;7.113173485E0
5.708671614E0;4.516661644E0;9.141061783E0;6.538564682E0
5.728731614E0;4.683058739E0;9.876082420E0;5.262455463E0
5.748481614E0;4.593276024E0;9.338583946E0;5.287594318E0
5.758562614E0;4.860229492E0;9.770736694E0;6.254851818E0
5.778663614E0;4.692635536E0;9.155426979E0;6.889315605E0
5.798690614E0;4.140771866E0;8.541314125E0;6.350619793E0
5.809235614E0;3.671508312E0;8.388085365E0;5.616796970E0
5.828661614E0;2.612074137E0;8.051700592E0;4.021061897E0
5.839275614E0;2.191891670E0;7.429207802E0;3.107673883E0
5.858530614E0;1.777694821E0;8.340201378E0;1.825578809E0
5.868905614E0;1.974019289E0;9.058462143E0;1.902193308E0
5.888625614E0;1.669955730E0;9.214085579E0;1.017535686E0
5.908766614E0;1.000776291E0;1.032379818E1;-1.149216816E-1
5.928656614E0;1.127668977E0;1.037766743E1;9.768342972E-1
5.948791614E0;4.752490520E-1;9.932345390E0;2.713827610E0
5.968522614E0;1.600523829E0;9.746794701E0;6.420052052E0
5.978543614E0;1.690306425E0;9.646238327E0;5.768828869E0
5.998524614E0;2.217030764E0;8.968679428E0;4.456806660E0
6.009279614E0;2.117671490E0;8.645462036E0;5.035006046E0
6.028887614E0;2.084152699E0;8.403648376E0;4.861426353E0
6.048772614E0;1.956062794E0;7.878120899E0;3.860650301E0
6.059598614E0;1.826775908E0;7.727285862E0;3.309983969E0
6.078556614E0;1.100135684E0;7.714118004E0;3.403357744E0
6.088848614E0;1.157596469E0;7.939172745E0;3.572149038E0
6.108965614E0;1.641225219E0;7.972691536E0;3.824737310E0
6.129350614E0;2.456450939E0;8.479064941E0;4.129997730E0
6.150045614E0;2.324769735E0;8.370129585E0;4.049792290E0
6.168527614E0;2.184709072E0;8.422801971E0;3.854664803E0
6.188539614E0;1.881842494E0;8.602366447E0;3.015496969E0
6.208663614E0;1.887827992E0;8.504204750E0;2.252943754E0
6.228549614E0;2.355894566E0;8.547300339E0;3.288435936E0
6.238588614E0;2.542642117E0;8.614337921E0;3.323152065E0
6.248868614E0;2.495955229E0;8.694543839E0;3.150769472E0
6.268805614E0;2.500743628E0;8.821435928E0;4.230554581E0
6.279052614E0;2.512714624E0;8.759186745E0;4.560954094E0
6.298540614E0;2.613271236E0;9.064447403E0;5.019443989E0
6.308699614E0;2.667140722E0;9.384073257E0;5.464765549E0
6.328653614E0;2.390610456E0;9.481039047E0;5.307945251E0
6.348322614E0;1.997961283E0;9.672574997E0;4.951209068E0
6.358558614E0;2.138022184E0;9.637859344E0;5.055356979E0
6.368687614E0;2.194285870E0;9.421183586E0;4.944026470E0
6.388544614E0;2.317587137E0;8.947132111E0;4.696226597E0
6.408778614E0;2.560598612E0;8.838195801E0;3.902548790E0
6.419470614E0;2.906560898E0;9.091980934E0;3.901351690E0
6.438669614E0;3.254917145E0;8.325836182E0;4.803965569E0
6.458457614E0;2.953247786E0;9.728838921E0;4.593276024E0
6.468965614E0;1.854309201E0;1.032978344E1;3.764882088E0
6.488961614E0;4.788403511E-1;9.647436142E0;3.190273762E0
6.511217614E0;4.357447028E-1;9.545681953E0;2.066195965E0
6.528706614E0;-4.189852998E-2;8.948328972E0;2.741360962E-1
6.548494614E0;-3.292027414E-1;8.506598473E0;-7.769184709E-1
6.558496614E0;1.643619418E0;8.784325600E0;-7.493851185E-1
6.568683614E0;3.781641483E0;9.349357605E0;-7.673416734E-1
6.578950614E0;4.990713596E0;9.965864182E0;-1.130063176E0
6.598529614E0;6.933608055E0;1.051653099E1;-8.822633028E-1
6.608605614E0;7.138312340E0;1.078348446E1;4.489128292E-1
6.618648614E0;6.373364925E0;1.124915695E1;2.972401381E0
6.638720614E0;4.319139957E0;1.154962921E1;2.740163803E0
6.649243614E0;3.987542868E0;1.162025833E1;9.696516991E-1
6.659252614E0;3.784035683E0;8.646659851E0;1.508347094E-1
6.678645614E0;3.775655985E0;9.150638580E0;1.975216419E-1
6.688991614E0;3.690661907E0;8.832210541E0;-2.765302956E-1
6.710131614E0;2.929305792E0;8.099584579E0;4.932055473E-1
6.728623614E0;2.480392933E0;7.911639690E0;7.541735172E-1
6.748607614E0;1.137245774E0;6.760028362E0;2.414552450E0
6.769402614E0;3.191470861E0;8.283937454E0;1.681926727E0
6.788728614E0;3.610456228E0;7.650671482E0;1.397016644E0
6.808468614E0;3.930082083E0;6.230909824E0;1.271321058E0
6.818568614E0;4.291606426E0;5.489904404E0;1.363497853E0
6.828603614E0;3.853467703E0;4.577713490E0;1.608903527E0
6.848512614E0;3.329137564E0;3.604470730E0;1.825578809E0
6.868226614E0;4.034229755E0;4.692635536E0;1.553836942E0
6.878522614E0;3.813963413E0;4.990713596E0;1.863885999E0
6.898580614E0;3.009511471E0;4.592078686E0;1.796848416E0
6.909182614E0;1.886630893E0;4.011485100E0;1.823184609E0
6.929006614E0;-6.584054828E-1;3.939658880E0;9.077615738E0
6.949462614E0;2.080561161E0;5.548562527E0;8.092401505E0
6.969102614E0;-9.337386489E-2;5.379771233E0;5.477933407E0
6.988859614E0;1.266532660E0;6.598419666E0;8.360552788E0
7.008611614E0;5.602431893E-1;7.212532520E0;1.047343540E1
7.028784614E0;1.454477549E0;6.364984989E0;2.048239470E0
7.048650614E0;2.072301292E1;3.893091583E1;4.660313606E0
7.068850614E0;-7.374141216E-1;1.454238129E1;1.081221485E1
7.088524614E0;-3.517082214E0;4.191050053E0;1.639070511E1
7.108538614E0;-5.875370979E0;8.762778044E-1;8.936357498E0
7.118637614E0;-5.125985622E0;1.240196466E0;3.216609955E0
7.131552614E0;-2.705447912E0;3.910928488E0;-5.039794445E-1
7.144300614E0;-1.699883193E-1;8.572439194E0;-9.823410034E0
7.158910614E0;-9.337386489E-1;8.966285706E0;-5.935225964E0
7.169265614E0;-1.594538331E0;9.172186852E0;-1.369483352E0
7.188537614E0;-2.184709072E0;1.064821243E1;1.611297727E0
7.208618614E0;-3.556586742E0;1.077869606E1;4.375403404E0
7.218730614E0;-4.770446777E0;9.876082420E0;5.870582581E0
7.238443614E0;-5.968744755E0;8.376114845E0;7.769184589E0
7.248682614E0;-3.705027103E0;8.434772491E0;8.021772385E0
7.259645614E0;-2.139219284E0;8.536525726E0;7.369352818E0
7.278190614E0;-1.070208192E0;8.374917984E0;4.600458622E0
7.288735614E0;-7.074866295E-1;8.434772491E0;4.250905037E0
7.308769614E0;-3.699041605E-1;8.845377922E0;4.359841347E0
7.328534614E0;-9.696517140E-2;9.251194954E0;-2.139219284E0
7.338892614E0;-2.310404629E-1;9.542090416E0;-4.618414879E0
7.358492614E0;-2.218227863E0;8.151060104E0;9.780313969E-1
7.368601614E0;-2.580949545E0;7.228095055E0;1.642422318E0
7.379020614E0;-2.403778553E0;6.794744492E0;1.898601890E0
7.398436614E0;-1.867477298E0;6.546944618E0;2.752134800E0
7.408835614E0;-1.623268723E0;6.677428722E0;3.518279314E0
7.428522614E0;-1.503558636E0;6.920440197E0;3.236960649E0
7.448681614E0;-2.474407434E0;9.137471199E0;2.243366957E0
7.468563614E0;-3.268085241E0;9.507374763E0;1.927332401E0
7.488862614E0;-3.562572241E0;9.076418877E0;1.924938202E0
7.499091614E0;-3.193865061E0;8.317456245E0;2.726995707E0
7.518529614E0;-5.712565422E0;7.128735542E0;7.086837292E-1
7.528881614E0;-6.119579315E0;7.408857346E0;4.129997790E-1
7.548642614E0;-5.691017628E0;7.325059891E0;1.589749932E0
7.568623614E0;-4.564545631E0;8.152256966E0;2.322375536E0
7.579532614E0;-4.325125217E0;8.864531517E0;2.452859640E0
7.598487614E0;-4.562151432E0;1.075595093E1;3.452438831E0
7.618423614E0;-5.266046524E0;1.221282291E1;3.830722809E0
7.629109614E0;-4.944026470E0;1.171482849E1;3.895366192E0
7.648479614E0;-1.613691926E0;1.131858826E1;2.439691544E0
7.658730614E0;-9.923965931E-1;1.079665279E1;1.981201887E0
7.668944614E0;-6.105214357E-1;9.980229378E0;1.985990286E0
7.688480614E0;-5.734112859E-1;8.528146744E0;1.733402014E0
7.698558614E0;-1.495178938E0;7.779958248E0;1.640028119E0
7.709033614E0;-2.208651066E0;7.103596210E0;2.045845270E0
7.728610614E0;-2.231395960E0;7.720103264E0;2.887407303E0
7.749537614E0;-2.558204412E0;9.506177902E0;3.294421434E0
7.769112614E0;-4.118026733E0;1.316571522E1;5.633556366E0
7.788588614E0;-3.408146143E0;1.700002861E1;2.053027868E0
7.799136614E0;-2.518700123E0;1.669476891E1;-1.165976286E0
7.818958614E0;-1.877054095E0;1.376665974E1;-1.707065821E0
7.829017614E0;-2.806004286E0;1.185129833E1;-1.089361787E0
7.848618614E0;-5.195417881E0;8.412027359E0;-8.379706182E-3
7.868532614E0;-4.212597847E0;7.888894558E0;1.813607812E0
7.878621614E0;-3.125630379E0;8.064867973E0;2.249352455E0
7.888683614E0;-1.453280449E0;8.570044518E0;8.702923059E-1
7.908441614E0;-2.092532396E0;7.775169849E0;3.314772367E0
7.919526614E0;-1.298854470E0;7.873332500E0;4.547786236E0
7.938409614E0;-8.056488633E-1;7.439981937E0;3.235763550E0
7.948578614E0;-1.323993564E0;6.837840080E0;2.566584110E0
7.959242614E0;-1.853112102E0;6.579266071E0;1.872265697E0
7.978572614E0;-2.777273893E0;6.221333027E0;1.923741102E0
7.988781614E0;-3.043030262E0;5.863399982E0;2.615665436E0
7.998848614E0;-2.907757998E0;5.485116005E0;2.914940596E0
8.018807614E0;-2.311601639E0;4.645948410E0;3.643975019E0
8.038415614E0;-1.071405292E0;5.245696068E0;5.203797340E0
8.048987614E0;-2.920926213E-1;5.622782707E0;5.770026207E0
8.068850614E0;1.254561663E0;5.549759388E0;6.180631638E0
8.088658614E0;2.298433542E0;6.701370716E0;5.003881454E0
8.108525614E0;2.744952202E0;8.586804390E0;4.650736809E0
8.119169614E0;1.999158382E0;9.771934509E0;4.729745388E0
8.139881614E0;3.208230138E-1;1.243428612E1;3.879803896E0
8.158603614E0;-1.926135302E0;1.430176353E1;6.363788128E0
8.168716614E0;-1.053448796E0;1.460223579E1;8.538920403E0
8.188607614E0;3.855861902E0;1.293587208E1;1.681447792E1
8.208524614E0;2.825157940E-1;1.615248108E1;6.888118267E0
8.218573614E0;-4.058171749E0;1.652358246E1;-2.591723442E0
8.228614614E0;-7.369352818E0;1.552520084E1;1.228225470E0
8.238676614E0;-8.904036522E0;1.330218506E1;1.933317900E0
8.258497614E0;-2.042253971E0;1.191594219E1;5.937620401E-1
8.268608614E0;-3.114856482E0;1.066018295E1;2.463633537E0
8.288826614E0;-3.689464808E0;8.316259384E0;2.104503393E0
8.299368614E0;-3.517082214E0;7.960720539E0;4.644751251E-1
8.319085614E0;-4.365826607E0;8.834604263E0;3.375824392E-1
8.338513614E0;-6.500257492E0;1.247857952E1;5.527014732E0
8.350648614E0;-6.885724068E0;1.312381649E1;7.015010834E0
8.368656614E0;-4.712985992E0;8.848969460E0;2.456450939E0
8.379092614E0;-3.142389774E0;7.425616741E0;2.231395960E0
8.398593614E0;-1.988384485E0;5.183446884E0;3.716998100E0
8.418201614E0;-1.053448796E0;5.693411827E0;4.633977413E0
8.428611614E0;-1.902193308E0;6.975506783E0;3.865438700E0
8.448486614E0;-3.956418276E0;6.568492413E0;2.865859509E0
8.458650614E0;-3.396175146E0;6.051344872E0;3.743334293E0
8.479212614E0;-1.839944005E0;5.780799866E0;3.134010077E0
8.489247614E0;-9.732429981E-1;5.975927353E0;2.414552450E0
8.508833614E0;-5.566518903E-1;6.734889507E0;1.137245774E0
8.528755614E0;-3.208230138E-1;8.076839447E0;1.045069098E0
8.538872614E0;-3.830722570E-1;8.860940933E0;9.504981041E-1
8.558595614E0;-1.628057122E0;1.031781197E1;5.722141862E-1
8.578522614E0;-3.934870481E0;9.175778389E0;1.197100878E0
8.588708614E0;-5.091269970E0;8.597578049E0;1.647210717E0
8.608486614E0;-5.086481571E0;8.115146637E0;2.120065689E0
8.618573614E0;-4.438849926E0;7.468712330E0;2.291250944E0
8.629013614E0;-4.853046894E0;6.325480938E0;2.651578426E0
8.648908614E0;-6.575675011E0;6.275202751E0;3.100491285E0
8.669321614E0;-6.215347767E0;8.359354973E0;2.086546898E0
8.688760614E0;-6.041768074E0;1.119408989E1;1.158793569E0
8.708922614E0;-6.489483833E0;1.323275280E1;2.743755102E0
8.728630614E0;-4.710591793E0;1.037287903E1;3.761290789E0
8.739024614E0;-3.094505787E0;9.115922928E0;2.452859640E0
8.758837614E0;-2.801215947E-1;8.236053467E0;1.323993564E0
8.779156614E0;2.274491638E-2;7.167042732E0;7.841010690E-1
8.799244614E0;-1.719036818E0;6.214150429E0;1.078587890E0
8.818497614E0;-4.805162907E0;6.090848923E0;1.048660398E0
8.838581614E0;-5.900510311E0;9.749189377E0;4.352658749E0
8.849017614E0;-6.859387875E0;1.207994461E1;5.517437935E0
8.868608614E0;-6.696582317E0;1.889743423E1;3.708618402E0
8.888521614E0;-2.331952572E0;2.344282532E1;-3.003525972E0
8.909135614E0;-3.544615507E0;1.522353172E1;-2.291250944E0
8.929371614E0;-5.662286878E-1;1.133295345E1;-3.180696964E0
8.949199614E0;-8.595184088E-1;7.334636688E0;3.567360640E-1
8.968573614E0;-9.181763530E-1;5.826289654E0;1.438915253E0
8.988603614E0;-1.406593442E0;6.921637058E0;1.954865694E0
9.009550614E0;-2.032677174E0;7.801506042E0;4.684255600E0
9.028714614E0;-3.440467834E0;7.094019413E0;3.477577925E0
9.048775614E0;-4.492719650E0;5.503072739E0;1.681926727E0
9.059734614E0;-3.971980572E0;5.415684223E0;1.728613615E0
9.078615614E0;-3.020285368E0;5.360617638E0;2.109291792E0
9.088795614E0;-2.845508814E0;5.177461147E0;2.097320795E0
9.109152614E0;-2.774879694E0;4.928464413E0;3.169923067E0
9.128478614E0;-1.928529501E0;5.687426090E0;4.663905144E0
9.138906614E0;-7.481880188E-1;6.062118530E0;5.614402771E0
9.158718614E0;8.990227580E-1;5.950788498E0;6.634333134E0
9.168872614E0;1.626860023E0;6.093243122E0;6.332663536E0
9.189325614E0;2.736572504E0;7.163451672E0;4.151545525E0
9.208867614E0;1.634042621E0;1.306276417E1;4.042609692E0
9.219829614E0;2.060210466E0;1.573948193E1;3.582922935E0
9.230315614E0;1.223437071E0;1.699883270E1;3.927687883E0
9.248585614E0;-2.742558002E0;1.303642845E1;5.231330872E0
9.268545614E0;3.494337320E0;1.167053604E1;1.534324169E1
9.279783614E0;5.230133533E0;1.218888092E1;1.553477764E1
9.298562614E0;-3.740940094E0;1.420120716E1;3.136404157E-1
9.309697614E0;-6.420052052E0;1.200093555E1;5.793967843E-1
9.328989614E0;-8.599972725E0;9.752780914E0;-4.776432514E0
9.349199614E0;-4.734533787E0;1.310466290E1;2.505532026E0
9.370023614E0;-2.633621931E0;1.140597725E1;2.855085611E0
9.389490614E0;-2.481590033E0;8.495824814E0;3.458424330E0
9.408601614E0;-3.705027103E0;9.203310966E0;5.985504389E-1
9.419261614E0;-5.590460777E0;1.029386997E1;2.827552319E0
9.430987614E0;-8.459911346E0;1.103607273E1;4.958391666E0
9.448595614E0;-7.688978672E0;8.706514359E0;1.479616642E0
9.458883614E0;-4.683058739E0;8.447940826E0;1.138442874E0
9.478710614E0;-3.083731890E0;8.507795334E0;3.851073503E0
9.488862614E0;-3.163937569E0;7.815871239E0;2.840720415E0
9.509855614E0;-2.835932016E0;6.523002625E0;2.378639460E0
9.528668614E0;-3.138798475E0;7.127538681E0;4.294000626E0
9.538728614E0;-4.056974888E0;6.748057365E0;5.078101635E0
9.559443614E0;-3.922899485E0;5.339069843E0;4.447229862E0
9.578599614E0;-2.619256735E0;5.702988625E0;2.568978310E0
9.598580614E0;-2.487575531E0;6.132747650E0;1.085770488E0
9.609415614E0;-1.535880446E0;7.529764175E0;1.472434103E-1
9.628848614E0;-1.856703401E0;9.388861656E0;-9.385270476E-1
9.648426614E0;-3.629609823E0;9.264363289E0;-4.441244006E-1
9.661788614E0;-4.086902142E0;8.684967041E0;2.011129409E-1
9.676788614E0;-3.434482336E0;9.099164009E0;3.469198227E0
9.690579614E0;-3.434482336E0;9.099164009E0;3.469198227E0
9.715616614E0;-5.045780182E0;8.033743858E0;3.945644379E0
9.732080614E0;-6.004657745E0;8.231265068E0;1.981201887E0
9.747198614E0;-4.893748283E0;8.335412979E0;1.539471745E0
9.762417614E0;-4.893748283E0;8.532935143E0;1.539471745E0
9.779404614E0;-4.114435673E0;1.086009884E1;1.569399238E0
9.791095614E0;-4.723760128E0;1.060870743E1;2.165555477E0
9.809139614E0;-4.079719543E0;7.175422668E0;2.159569979E0
9.821945614E0;-3.096899986E0;6.266822815E0;1.699883223E0
9.845294614E0;-4.153940082E-1;6.072892666E0;2.543839216E0
9.862563614E0;-1.588552833E0;4.920084476E0;3.198653460E0
9.885690614E0;-4.796782970E0;4.595670223E0;2.786850691E0
9.911486614E0;-6.026205540E0;1.089481449E1;2.515108824E0
9.925270114E0;-8.807070732E0;1.925776100E1;2.924517393E0
9.935273864E0;-4.238934040E0;2.363795280E1;-9.301473498E-1
9.952872614E0;-2.041056871E0;2.507806587E1;-2.881421804E0
9.967630614E0;-2.239775658E0;2.009573174E1;-3.971980572E0
9.979236614E0;-2.078166962E0;1.627697945E1;-6.172252178E0
9.993339614E0;4.800374508E-1;1.312621117E1;-3.110068083E0
1.001027861E1;-4.165911078E-1;9.332598686E0;1.568202138E0
1.002861461E1;-2.122459888E0;6.921637058E0;1.977610588E0
1.004100061E1;-1.742978811E0;6.653486729E0;2.376245260E0
1.005862661E1;-2.803610086E0;7.310694695E0;2.661155224E0
1.008520461E1;-1.413776159E0;7.649474621E0;3.074155092E0
1.009967661E1;-2.624045134E0;5.987898350E0;3.354276657E0
1.011093861E1;-3.538630009E0;5.225345135E0;2.138022184E0
1.012972161E1;-5.114014626E0;4.128800869E0;1.769315004E0
1.013976961E1;-5.184643745E0;3.614047527E0;2.298433542E0
1.016062561E1;-4.954800606E0;4.161122322E0;2.388216257E0
1.017829661E1;-3.697844505E0;4.564545631E0;2.011129379E0
1.018833261E1;-2.922123194E0;4.598064423E0;2.288856745E0
1.020045861E1;-1.188721180E0;5.351040840E0;4.317942619E0
1.021957261E1;-2.705447972E-1;5.588066578E0;4.961983204E0
1.023944061E1;2.729389966E-1;6.424840450E0;5.147533417E0
1.025136661E1;8.295909166E-1;7.147889137E0;4.605247021E0
1.026994661E1;7.541735470E-2;1.027711105E1;3.268085241E0
1.028890061E1;1.963245422E-1;1.499727917E1;2.886210203E0
1.029940161E1;-9.121908545E-1;1.656667900E1;3.823540211E0
1.030978861E1;-3.077746391E0;1.665287018E1;5.828683853E0
1.032859661E1;-2.015917778E0;1.504995155E1;1.120007515E1
1.033862961E1;-1.206677675E0;1.584003830E1;7.781155586E0
1.035905361E1;3.196259141E-1;1.655590439E1;1.343745708E1
1.037866161E1;7.026981711E-1;1.516966152E1;8.420407295E0
1.039847761E1;-4.103661537E0;7.665036678E0;-2.166752517E-1
1.040851161E1;-2.577358246E0;8.458714485E0;-4.058171749E0
1.041863061E1;-1.801636815E0;1.024598598E1;-1.130063176E0
1.042906961E1;-2.364274263E0;1.005684471E1;3.016694069E0
1.044856261E1;-2.548627615E0;6.872556210E0;2.177526474E0
1.045863861E1;-2.774879694E0;5.415684223E0;5.099649429E-1
1.048117761E1;-4.010287762E0;5.284003258E0;1.024718285E0
1.049859861E1;-4.960785866E0;6.637924194E0;1.604115129E0
1.050962761E1;-5.266046524E0;8.240841866E0;1.689109325E0
1.052867361E1;-5.419275761E0;1.072243214E1;4.398148537E0
1.055122361E1;-5.360617638E0;1.005923843E1;3.892971992E0
1.056855061E1;-5.218162537E0;8.802282333E0;2.451662540E0
1.058818661E1;-3.618835926E0;8.082824707E0;2.835932016E0
1.059921361E1;-2.543839216E0;7.419631004E0;5.231330991E-1
1.061932961E1;-2.336740971E0;7.899668694E0;3.423708439E0
1.063953361E1;-3.436876535E0;6.783970356E0;4.687847137E0
1.065052061E1;-3.801992416E0;6.010643482E0;3.405751944E0
1.066856761E1;-2.737769604E0;6.171054840E0;1.071405292E0
1.067901261E1;-2.492363930E0;6.643909931E0;4.932055473E-1
1.069194561E1;-2.264914751E0;6.997054577E0;3.603273630E-1
1.070892961E1;-2.418143749E0;7.568071365E0;1.097741485E0
1.071960861E1;-1.938106298E0;8.690952301E0;1.693897724E0
1.073868261E1;-2.388216257E0;9.323021889E0;2.219424963E0
1.074901461E1;-2.501940727E0;8.957905769E0;2.443282843E0
1.076188661E1;-3.519476414E0;7.958326340E0;2.060210466E0
1.077871061E1;-4.340687752E0;7.411251545E0;1.515529633E0
1.079472961E1;-4.174290657E0;7.554903507E0;1.416170359E0
1.080895861E1;-3.280056238E0;6.637924194E0;1.795651317E0
1.082860561E1;-3.859453201E0;5.896918774E0;2.516305923E0
1.084887461E1;-4.716577530E0;7.420828342E0;3.392583847E0
1.085898961E1;-4.644751072E0;9.503783226E0;2.935291290E0
1.087883061E1;-5.226542473E0;1.361103630E1;3.058592558E0
1.089847661E1;-5.349843502E0;1.476623917E1;3.642777920E0
1.090858861E1;-4.211400986E0;1.384207726E1;3.834314108E0
1.091969161E1;-2.934094191E0;1.208712769E1;2.230198860E0
1.092984061E1;-1.962048292E0;1.064821243E1;9.696516991E-1
1.094863661E1;-1.544260144E0;8.022970200E0;3.076549172E-1
1.096869361E1;-1.374271750E0;6.193799973E0;2.980781198E-1
1.098067061E1;-3.773261786E0;5.300762653E0;2.529474020E0
1.099859661E1;-6.745663166E0;5.013458252E0;2.395398855E0
1.101860361E1;-5.750872612E0;7.878120899E0;3.003525972E0
1.102896361E1;-5.682637691E0;9.953893661E0;4.132391930E0
1.104872261E1;-6.825869083E0;1.593700409E1;3.535038710E0
1.106845161E1;-1.640028119E0;2.166752625E1;-3.411737382E-1
1.107856061E1;-9.564836025E-1;2.120664215E1;-1.930923700E0
1.109858061E1;-1.222239971E0;1.520796967E1;-6.145915985E0
1.111862561E1;5.793967843E-1;1.240196514E1;-5.098452568E0
1.112874861E1;9.816226959E-1;1.102170753E1;-2.661155224E0
1.114889361E1;-7.481880188E-1;7.657854080E0;7.625532150E-1
1.115931661E1;-9.636662006E-1;7.095216751E0;3.477577925E0
1.117918961E1;-1.848323703E0;7.809885979E0;4.582501888E0
1.119859361E1;-2.327163935E0;7.669825077E0;4.575319290E0
1.120905061E1;-2.542642117E0;7.210138321E0;4.034229755E0
1.123232061E1;-4.156333923E0;6.053739071E0;1.952471495E0
1.124868761E1;-4.021061897E0;5.505466938E0;1.975216389E0
1.126162061E1;-3.681085110E0;5.432443619E0;2.245761156E0
1.127907361E1;-3.240551949E0;5.377377033E0;2.094926596E0
1.129863361E1;-2.940079689E0;5.755661011E0;2.194285870E0
1.130999161E1;-2.630030632E0;5.906495571E0;2.590526342E0
1.133013361E1;-1.454477549E0;6.484695435E0;3.627215624E0
1.134871061E1;-5.985504389E-2;6.672640324E0;5.529408932E0
1.135977361E1;1.265335560E0;6.819883347E0;5.950788498E0
1.137900661E1;2.157175779E0;8.322244644E0;4.656722069E0
1.139948361E1;3.457227230E0;1.220085144E1;4.588487625E0
1.141158361E1;3.040636063E0;1.470159531E1;4.261679173E0
1.142907461E1;-1.914164305E0;1.490510273E1;4.000710964E0
1.144889861E1;-2.226607561E0;1.151970100E1;6.505045891E0
1.145924361E1;1.771709323E-1;1.289756489E1;1.987307167E1
1.147118961E1;1.736993313E0;1.643140602E1;1.850119400E1
1.148855461E1;-3.758896589E0;1.353921032E1;-4.747702122E0
1.149896461E1;-6.358999729E0;1.071046162E1;-1.810016513E0
1.151863961E1;-6.074089527E0;1.013345909E1;-1.437718153E0
1.152864261E1;-3.234566450E0;1.248097324E1;-1.532289028E0
1.154867161E1;-3.348291159E0;1.124795914E1;3.398569345E0
1.156066361E1;-4.357447147E0;7.007828236E0;3.955221176E0
1.157857361E1;-4.953603268E0;5.726930618E0;5.829881430E-1
1.159855261E1;-5.892130375E0;8.784325600E0;1.019929886E0
1.160898061E1;-6.556521416E0;1.132217979E1;3.268085241E0
1.162829961E1;-4.978742599E0;1.294425106E1;3.658340216E0
1.163864261E1;-2.419340849E0;1.269525433E1;2.406172752E0
1.166080061E1;-3.049015760E0;9.078812599E0;1.798045516E0
1.167855561E1;-2.729389906E0;5.878962040E0;2.308010340E0
1.168916061E1;-2.339135170E0;5.861005783E0;3.610456228E0
1.170918261E1;-2.729389906E0;7.469909191E0;3.725377798E0
1.172858361E1;-3.281253338E0;8.633491516E0;3.629609823E0
1.173858661E1;-4.102464676E0;7.049726963E0;3.065775394E0
1.174870061E1;-3.388992548E0;5.572504520E0;3.181894064E0
1.175927961E1;-1.629254222E0;5.086481571E0;2.316390038E0
1.177903761E1;-1.355118155E0;5.275623322E0;1.143231273E0
1.180098861E1;-1.841141105E0;7.321468830E0;5.231330991E-1
1.181152661E1;-2.624045134E0;8.214506149E0;3.303998411E-1
1.182900861E1;-3.675099611E0;9.337387085E0;-1.209071875E-1
1.185019661E1;-5.450400352E0;8.305485725E0;8.212111592E-1
1.186861061E1;-4.669890404E0;7.740454197E0;2.161964178E0
1.187866661E1;-3.770867586E0;7.629123688E0;3.066972494E0
1.188938761E1;-3.511096716E0;6.598419666E0;3.014299870E0
1.189954961E1;-3.647566319E0;5.554547787E0;2.900575399E0
1.191303461E1;-4.687847137E0;5.506663799E0;2.499546528E0
1.192836161E1;-5.718550682E0;6.381744862E0;2.820369720E0
1.193864361E1;-6.021417141E0;8.525752068E0;2.467224836E0
1.194963261E1;-7.198167324E0;1.267610073E1;2.075772762E0
1.196856161E1;-7.653065681E0;1.464533138E1;3.043030262E0
1.197889761E1;-5.837063789E0;1.430774975E1;4.171896458E0
1.198899961E1;-3.485957623E0;1.261863995E1;3.379415751E0
1.199919661E1;-2.189497471E0;1.151970100E1;2.225410461E0
1.201286261E1;-1.455674648E0;1.108635139E1;1.048660398E0
1.202850261E1;-5.111620426E-1;8.695740700E0;1.197100803E-2
1.203857761E1;-1.568202078E-1;7.445967197E0;-1.879448295E-1
1.205973361E1;-1.254561663E0;6.062118530E0;8.906430602E-1
1.207987761E1;-4.138377666E0;5.013458252E0;1.221042871E0
1.209906561E1;-5.640739441E0;5.469553947E0;2.328361034E0
1.210953361E1;-5.671864033E0;7.040150166E0;2.515108824E0
1.212136061E1;-5.792770863E0;1.251928043E1;2.850297213E0
1.213893361E1;-5.270834923E0;1.689707756E1;2.926911592E0
1.214941861E1;-8.331822157E-1;2.373851013E1;-2.466027737E-1
1.216888161E1;-2.816778183E0;1.705629349E1;-3.877409697E0
1.217904261E1;-3.233369350E0;1.361941624E1;-7.775169849E0
1.219020861E1;-2.923320293E0;1.210867500E1;-8.429984093E0
1.220944661E1;-8.283938169E-1;9.994594574E0;-3.524264812E0
1.223195861E1;3.854664862E-1;8.304288864E0;-2.896983922E-1
1.224870661E1;-8.858546019E-1;7.122750282E0;3.123236179E0
1.225973861E1;-2.146401882E0;7.807491779E0;5.142745018E0
1.227852761E1;-1.760935307E0;8.135497093E0;4.200626850E0
1.229857961E1;-2.782062292E0;5.770026207E0;2.308010340E0
1.230861361E1;-3.265691042E0;5.370194435E0;2.178723574E0
1.232906261E1;-3.749319792E0;4.832695961E0;1.764526606E0
1.234919761E1;-3.232172251E0;5.228936672E0;1.810016513E0
1.236857261E1;-3.598485231E0;5.765237808E0;1.675941229E0
1.237925461E1;-3.552995205E0;5.877765179E0;2.244564056E0
1.238932861E1;-3.171120167E0;6.060921669E0;1.968033791E0
1.240849461E1;-1.691503525E0;6.760028362E0;3.615244627E0
1.241858361E1;-8.080430627E-1;6.956353188E0;4.497508049E0
1.243870061E1;3.088520169E-1;6.926425457E0;6.029797077E0
1.245899061E1;1.215057373E0;7.820659637E0;5.874173641E0
1.246937661E1;9.780313969E-1;8.768763542E0;5.779603004E0
1.248881261E1;1.289277673E0;1.317768574E1;4.865017891E0
1.250951561E1;1.436521053E0;1.783201408E1;4.368220806E0
1.252864961E1;-2.730587006E0;1.484285355E1;4.921281815E0
1.254872061E1;3.232172430E-1;1.581849098E1;1.378102493E1
1.255919861E1;-1.356315255E0;1.539711094E1;5.020640850E0
1.257859961E1;-6.305130005E0;1.034774017E1;2.935291290E0
1.259850761E1;-4.170699596E0;9.603142738E0;-3.491943121E0
1.260880261E1;-2.135627985E0;1.197459984E1;-2.442085743E0
1.262933961E1;-3.078943491E0;1.151611042E1;2.433706045E0
1.264860461E1;-4.163516521E0;7.487865925E0;2.202665567E0
1.265993861E1;-4.497508049E0;6.588842869E0;2.726995707E0
1.267859761E1;-5.570110321E0;7.503427982E0;1.466448545E0
1.269887761E1;-6.488286495E0;1.007360363E1;2.371456861E0
1.271854361E1;-4.610035419E0;1.120845509E1;1.765723705E0
1.272856561E1;-3.336320162E0;1.034175396E1;1.869871497E0
1.273907561E1;-3.343502760E0;7.795520782E0;2.292448044E0
1.274937961E1;-3.278859138E0;6.653486729E0;3.220201254E0
1.276851361E1;-1.611297727E0;6.263231754E0;4.484339714E0
1.277995261E1;-1.995567083E0;6.623558998E0;4.144362926E0
1.279856261E1;-3.013102770E0;8.045714378E0;1.719036818E0
1.280885161E1;-2.895787001E0;9.085995674E0;9.373299479E-1
1.281926161E1;-3.342305660E0;8.565256119E0;2.026691675E0
1.283859261E1;-2.736572504E0;5.974730492E0;3.009511471E0
1.284953661E1;-2.014720678E0;5.722142220E0;2.697068214E0
1.286045061E1;-1.697489023E0;5.535394192E0;2.138022184E0
1.287857661E1;-9.636662006E-1;6.575675011E0;9.612720013E-1
1.288911661E1;-1.185129881E0;7.589619160E0;4.501099288E-1
1.290932261E1;-2.020706177E0;8.869319916E0;2.705447972E-1
1.291944361E1;-2.328361034E0;9.458293915E0;3.184288144E-1
1.293842961E1;-3.307589531E0;9.842563629E0;2.027888775E0
1.294864561E1;-4.119224072E0;8.501810074E0;2.689885616E0
1.295871461E1;-4.137180328E0;7.884106159E0;3.095702887E0
1.297934161E1;-4.066551685E0;6.700173378E0;2.601300240E0
1.299891361E1;-3.700238705E0;5.596446514E0;2.182314873E0
1.301855561E1;-4.198232651E0;6.147112846E0;2.625242233E0
1.302892861E1;-4.705803394E0;6.848613739E0;2.422932148E0
1.303946061E1;-4.918887615E0;8.599972725E0;1.659181833E0
1.305913661E1;-7.739256859E0;1.227028370E1;7.493851185E-1
1.306922161E1;-8.737639427E0;1.383609200E1;1.180341482E0
1.308845061E1;-6.534973621E0;1.333450603E1;3.872621298E0
1.309872561E1;-3.369838953E0;1.162863731E1;2.960430384E0
1.310990761E1;2.274491638E-1;1.080383492E1;1.977610588E0
1.312936561E1;8.248024583E-1;8.511386871E0;2.992752194E-2
1.314889961E1;-1.187524080E0;6.716932774E0;1.320402265E0
1.315894861E1;-2.541445017E0;6.779181957E0;1.762132406E0
1.317945161E1;-4.513070107E0;6.842628479E0;2.874239206E0
1.319860161E1;-4.328716755E0;8.469488144E0;3.156754971E0
1.320862961E1;-4.327519417E0;1.002212811E1;3.883395195E0
1.321892661E1;-4.406527996E0;1.246301651E1;3.952826977E0
1.323890361E1;-1.930923700E0;1.820431328E1;2.041056871E0
1.325872661E1;-2.370259613E-1;1.915840149E1;-4.668693244E-1
1.326917161E1;-1.975216389E0;1.577539539E1;-1.800439715E0
1.328855461E1;-3.482366323E0;1.211825180E1;-5.377377033E0
1.330881661E1;-4.273650169E0;8.221688271E0;-1.193509579E0
1.331889061E1;-3.591302633E0;7.325059891E0;-3.950432688E-2
1.333866661E1;-3.288435936E0;7.062894821E0;2.674323320E0
1.335909361E1;-3.213018656E0;7.447164536E0;3.229778051E0
1.337856561E1;-1.709460020E0;9.004592896E0;2.825158119E0
1.338941361E1;-2.296039343E0;8.778340340E0;3.168725967E0
1.340974061E1;-3.703830004E0;7.352593422E0;1.968033791E0
1.342863161E1;-3.757699490E0;7.349001884E0;1.569399238E0
1.343927661E1;-3.169923067E0;7.406463146E0;2.458845139E0
1.345887961E1;-2.145204782E0;6.882133007E0;2.682703018E0
1.346922361E1;-1.980004787E0;6.390124321E0;2.367865562E0
1.348854261E1;-1.630451322E0;5.846640587E0;3.973177671E0
1.349854561E1;-1.094150186E0;5.811924458E0;4.386177540E0
1.351850161E1;-6.105214357E-2;5.849034786E0;5.693411827E0
1.352870061E1;1.613691926E0;6.147112846E0;5.862202644E0
1.354870661E1;2.694674015E0;7.572859764E0;4.765658379E0
1.355939261E1;2.658761024E0;8.694543839E0;4.272452831E0
1.357871061E1;2.530671120E0;1.281855583E1;3.369838953E0
1.358909261E1;-6.476315856E-1;1.433528233E1;3.197456360E0
1.360915161E1;-2.846705914E0;1.426704788E1;7.025784969E0
1.362871261E1;8.966285586E-1;1.285566616E1;1.314057636E1
1.364857561E1;2.293645144E0;1.646013641E1;1.140358257E1
1.365962361E1;-2.226607561E0;1.482729149E1;-8.092401624E-1
1.367865761E1;-6.947973251E0;9.075222015E0;-1.077390742E-2
1.368883061E1;-6.257246017E0;9.405621529E0;-3.626018524E0
1.370922461E1;-2.935291290E0;1.149336529E1;5.135562420E0
1.372935261E1;-4.786009312E0;8.832210541E0;1.978807688E0
1.374883361E1;-6.376956463E0;6.698976517E0;-1.137245819E-1
1.376038361E1;-7.453149796E0;7.011419773E0;6.320692301E-1
1.377870661E1;-9.367314339E0;8.991424561E0;2.146401882E0
1.379884361E1;-5.544970989E0;1.110670185E1;7.206547260E-1
1.380944761E1;-3.479972124E0;1.118331623E1;-1.616086215E-1
1.382860861E1;-4.181473255E0;8.652645111E0;4.206612587E0
1.384822261E1;-3.457227230E0;6.968324184E0;6.010643482E0
1.385828261E1;-2.870647907E0;6.708553314E0;6.154295444E0
1.386954861E1;-2.135627985E0;7.360973358E0;6.823474884E0
1.388954961E1;-1.598129630E0;9.634267807E0;-1.234210968E0
1.390883761E1;-2.894589901E0;7.055712223E0;1.965639591E0
1.392911461E1;-1.466448545E0;4.751293182E0;2.199074268E0
1.394871961E1;-1.746570110E0;5.905298710E0;4.584896266E-1
1.396062661E1;-1.631648421E0;6.734889507E0;1.891419291E-1
1.397867961E1;-2.194285870E0;8.795100212E0;-1.304839998E-1
1.398899161E1;-3.063380957E0;9.433155060E0;-6.057330370E-1
1.400042461E1;-3.748122692E0;9.744400978E0;-9.528923035E-1
1.401887661E1;-5.613205910E0;8.414422035E0;-6.655880809E-1
1.402911961E1;-6.295553207E0;7.763198853E0;2.801215947E-1
1.404867761E1;-5.225345135E0;7.979874134E0;2.249352455E0
1.405892861E1;-4.320336819E0;7.893682957E0;2.585737944E0
1.407861061E1;-4.285621166E0;7.690176010E0;2.619256735E0
1.409916161E1;-5.082890034E0;8.325836182E0;4.914099216E0
1.411854861E1;-4.376600742E0;1.139759731E1;3.427299738E0
1.412927061E1;-4.271255970E0;1.230619717E1;3.448847532E0
1.413940361E1;-4.018667698E0;1.302206326E1;3.295618534E0
1.414959861E1;-3.958812475E0;1.326627159E1;2.782062292E0
1.416032961E1;-3.634398222E0;1.321479607E1;2.260126352E0
1.417854061E1;-2.683900118E0;1.034774017E1;7.362170219E-1
1.418858161E1;-1.837549806E0;9.085995674E0;6.105214357E-1
1.419861061E1;-1.644816518E0;7.920019150E0;9.421183467E-1
1.420901161E1;-1.595735431E0;6.781576157E0;9.145850539E-1
1.422867361E1;-1.278503656E0;5.385756493E0;2.079364061E0
1.423958261E1;-2.123656988E0;5.260061264E0;2.691082716E0
1.425915261E1;-4.766855717E0;5.949591160E0;2.959233284E0
1.427830261E1;-6.271611214E0;8.842984200E0;1.748964310E0
1.428848961E1;-6.737283707E0;1.075475407E1;7.613561153E-1
1.429903461E1;-6.495469093E0;1.332373238E1;1.889025092E0
1.431822161E1;-1.528697729E0;2.223614883E1;9.576806426E-2
1.432871061E1;-9.301473498E-1;2.138141823E1;-2.545036316E0
1.434878961E1;-3.089717388E0;1.422634697E1;-7.982268333E0
1.435890461E1;-2.148796082E0;1.335485744E1;-8.419210434E0
1.437845661E1;-2.327163935E0;1.036330223E1;-2.321178436E0
1.438872061E1;-3.409343243E0;8.103176117E0;3.866635859E-1
1.439900661E1;-2.319981337E0;7.144298077E0;1.588552833E0
1.441846961E1;-1.169567585E0;6.918045998E0;3.314772367E0
1.443866761E1;-1.930923700E0;8.160636902E0;3.815160513E0
1.444869361E1;-1.653196216E0;8.481459618E0;3.955221176E0
1.446885861E1;-1.613691926E0;7.524975777E0;2.013523579E0
1.447886461E1;-2.978386879E0;6.372167587E0;9.852139950E-1
1.450013261E1;-4.315548420E0;4.448426723E0;1.428141356E0
1.451085861E1;-3.970783472E0;4.071340084E0;1.863885999E0
1.452861361E1;-3.161543369E0;3.758896589E0;2.044648170E0
1.453866261E1;-2.432508945E0;3.755305290E0;2.164358377E0
1.455895861E1;-1.356315255E0;4.377797604E0;2.840720415E0
1.458036861E1;-2.896983922E-1;4.872200489E0;3.523067713E0
1.459361711E1;-1.675941236E-2;5.584475517E0;4.933252811E0
1.460914461E1;4.824316502E-1;6.297947407E0;5.404910564E0
1.462858461E1;1.446097851E0;8.037335396E0;4.311957359E0
1.463883961E1;1.218648672E0;9.508571625E0;4.083311081E0
1.465831861E1;5.674257874E-1;1.412818432E1;4.022258759E0
1.466834861E1;-6.380547285E-1;1.657984734E1;3.186682463E0
1.468908261E1;-2.513911724E0;1.573349667E1;6.993463039E0
1.470972261E1;2.094926596E0;1.310585976E1;1.450048256E1
1.471995361E1;5.185841084E0;1.425148582E1;1.943732643E1
1.473967061E1;-2.436100245E0;1.489552593E1;3.507505357E-1
1.475907861E1;-8.780735016E0;1.150174522E1;3.052607059E0
1.477852261E1;-4.681861401E0;1.161666679E1;-3.748122692E0
1.478854961E1;-2.353500366E0;1.220204926E1;1.589749932E0
1.480914861E1;-2.473210335E0;7.724891663E0;4.092887878E0
1.482855361E1;-3.679888010E0;5.698200226E0;2.707842112E0
1.484946761E1;-5.938817501E0;6.125565052E0;-9.217676520E-2
1.486858761E1;-6.625953197E0;1.048780060E1;1.199495077E0
1.488916961E1;-3.381809950E0;1.318367195E1;3.265691042E0
1.490891561E1;-1.820790410E0;8.854954720E0;4.045003891E0
1.492851661E1;-1.798045516E0;5.820304394E0;3.258508444E0
1.493856061E1;-9.876081944E-1;5.752069473E0;3.202244759E0
1.495851661E1;-2.117671490E0;6.878541470E0;1.545457244E0
1.496862061E1;-2.679111719E0;8.220491409E0;1.877054095E0
1.498875761E1;-3.196259260E0;9.532513618E0;1.413776159E0
1.500933661E1;-3.816357613E0;5.639542103E0;3.262099743E0
1.502850761E1;-2.145204782E0;4.714183331E0;1.994369984E0
1.504859361E1;-1.074996591E0;6.447585106E0;1.595735431E0
1.506008461E1;-9.121908545E-1;6.958747387E0;1.714248419E0
1.507856661E1;-8.655039072E-1;8.360552788E0;1.503558636E0
1.508880561E1;-1.071405292E0;9.174580574E0;1.316810995E-1
1.509885261E1;-2.461239338E0;9.156624794E0;-3.603273630E-1
1.510901661E1;-4.120420933E0;8.857349396E0;-5.267243981E-1
1.512346561E1;-5.895721912E0;7.708132267E0;-2.418143749E-1
1.513872761E1;-6.348225594E0;6.965929985E0;1.310825467E0
1.515910561E1;-4.865017891E0;5.175066948E0;1.848323703E0
1.517853861E1;-4.996698856E0;5.866991043E0;1.467645645E0
1.518890061E1;-5.617994308E0;8.034940720E0;2.664746523E0
1.520070861E1;-5.584475517E0;1.027591324E1;3.582922935E0
1.521954661E1;-6.189011574E0;1.331176186E1;3.647566319E0
1.523855361E1;-5.728127480E0;1.336682796E1;3.592499733E0
1.524890861E1;-4.660313606E0;1.288798809E1;3.549403906E0
1.525898361E1;-3.357867956E0;1.128626728E1;1.782483220E0
1.528100361E1;-1.289277673E0;8.785523415E0;-7.900865376E-2
1.529390361E1;-5.123591423E-1;6.282385349E0;7.900865674E-1
1.530897561E1;-1.420958757E0;5.527014732E0;2.179920673E0
1.532855661E1;-3.849876404E0;5.718550682E0;3.244143248E0
1.534878461E1;-5.712565422E0;7.820659637E0;3.199850559E0
1.536853161E1;-5.913678169E0;1.229901409E1;2.397793055E0
1.538853861E1;-5.141548157E0;1.954746056E1;2.425326347E0
1.540880061E1;-1.320402265E0;2.328480911E1;-1.754949808E0
1.542872261E1;-2.397793055E0;1.674025917E1;-5.473145008E0
1.544851261E1;-1.175553083E0;1.308431244E1;-6.161478043E0
1.545886161E1;-1.760935307E0;1.110670185E1;-3.386598349E0
1.546922461E1;-2.070984364E0;9.750386238E0;-1.772906303E0
1.548845761E1;-3.351882398E-1;6.505045891E0;2.515108824E0
1.550867661E1;-1.164779186E0;8.220491409E0;1.904587507E0
1.552888961E1;-1.306037068E0;8.784325600E0;2.923320293E0
1.554900561E1;-2.948459387E0;6.368576527E0;1.255758762E0
1.555921161E1;-3.940855980E0;5.430049419E0;8.212111592E-1
1.557870161E1;-4.229357243E0;5.058948040E0;2.432508945E0
1.558905261E1;-3.970783472E0;5.014655590E0;2.375048161E0
1.560875861E1;-3.744531393E0;5.040991783E0;1.867477298E0
1.562835661E1;-2.735375404E0;5.035006046E0;2.148796082E0
1.563851661E1;-2.111685991E0;5.139153957E0;2.651578426E0
1.565898361E1;-4.106055796E-1;5.468356609E0;4.897339344E0
1.567848661E1;7.314286232E-1;5.720944881E0;6.044162273E0
1.568864761E1;1.355118155E0;6.775590897E0;6.139930248E0
1.570885461E1;1.185129881E0;8.893261909E0;4.537012100E0
1.572864361E1;1.515529633E0;1.351047993E1;3.123236179E0
1.573906361E1;6.751648784E-1;1.640147781E1;1.531091928E0
1.574917761E1;-6.727706790E-1;1.728493881E1;1.461660147E0
1.576917061E1;-3.476380825E0;1.440112305E1;-9.696517140E-2
1.578868161E1;7.781155407E-2;1.531091976E1;2.038423347E1
1.579870461E1;7.948749661E-1;1.615367889E1;1.581968784E1
1.580906561E1;-1.368286252E0;1.510382175E1;4.953603268E0
1.582858061E1;-6.141127586E0;1.045787334E1;2.342726469E0
1.583882061E1;-6.807912350E0;9.222464561E0;1.906981707E0
1.585851661E1;-3.344699860E0;1.385404778E1;-1.381454349E0
1.586900261E1;-3.044227362E0;1.510741234E1;2.996343374E0
1.588897861E1;-4.423287868E0;7.019799232E0;3.597288132E0
1.590916761E1;-4.515464306E0;6.015431881E0;-3.435679376E-1
1.592883361E1;-6.358999729E0;7.696161270E0;1.298854470E0
1.594904461E1;-5.590460777E0;1.114979744E1;2.397793055E0
1.595906061E1;-4.329913616E0;1.159152794E1;1.499967337E0
1.597947761E1;-3.320757866E0;9.360131264E0;2.820369720E0
1.599830661E1;-2.870647907E0;6.433219910E0;3.615244627E0
1.600932261E1;-1.697489023E0;6.229712963E0;5.001487255E0
1.602896461E1;-1.994369984E0;6.573280811E0;8.183381081E0
1.604876661E1;-1.778891921E0;9.211690903E0;-2.874239206E0
1.606866761E1;-2.924517393E0;8.123526573E0;1.511938334E0
1.607900361E1;-1.995567083E0;6.093243122E0;4.009090900E0
1.609856461E1;-1.091755986E0;5.276820660E0;3.159149170E0
1.610932061E1;-1.098938584E0;5.679046631E0;1.912967205E0
1.612867961E1;-8.726865053E-1;7.484274387E0;6.572083831E-1
1.613913761E1;-1.200692177E0;7.918822289E0;3.866635859E-1
1.615903061E1;-1.881842494E0;9.454702377E0;-5.267243981E-1
1.618019361E1;-2.387019157E0;1.016099167E1;1.628057212E-1
1.619883261E1;-4.941632271E0;8.987833023E0;1.541865945E0
1.621906961E1;-5.254075527E0;7.618350029E0;1.786074519E0
1.623839361E1;-4.490325451E0;5.975927353E0;1.605312228E0
1.624863561E1;-4.862623692E0;5.784391403E0;1.910573006E0
1.626081961E1;-5.974730492E0;7.171831131E0;3.179499865E0
1.627846661E1;-5.219359875E0;1.068173122E1;1.929726601E0
1.628990261E1;-5.723339081E0;1.190277386E1;1.492784739E0
1.630855161E1;-5.097255230E0;1.287960815E1;1.613691926E0
1.632885061E1;-3.137601376E0;1.327465153E1;1.997961283E0
1.633885061E1;-2.398990154E0;1.171961689E1;1.821987510E0
1.635874361E1;-5.039794445E-1;9.755174637E0;9.660604000E-1
1.637860761E1;-1.316810958E-2;8.052897453E0;1.151610970E0
1.638861061E1;-3.806780577E-1;7.151480675E0;1.511938334E0
1.639906761E1;-9.409212470E-1;6.482301235E0;1.868674397E0
1.640988161E1;-2.009932280E0;6.044162273E0;2.785653591E0
1.642827961E1;-4.675876141E0;6.072892666E0;3.361459255E0
1.643833061E1;-5.383362293E0;7.003039837E0;4.054580688E0
1.644859161E1;-6.338648796E0;7.918822289E0;4.479551315E0
1.645894661E1;-6.631938934E0;9.360131264E0;4.825513363E0
1.647855161E1;-3.816357613E0;2.059851456E1;1.473631144E0
1.650021161E1;-2.767697096E0;1.766322327E1;-2.115277290E0
1.651846061E1;-2.349909067E0;1.287601662E1;-4.843470097E0
1.652867661E1;-2.329558372E0;1.223676491E1;-4.781220913E0
1.654854061E1;-2.906560898E0;8.684967041E0;-2.124854088E0
1.655857261E1;-2.313995838E0;7.515398979E0;9.576806426E-2
1.657863861E1;-1.728613615E0;5.722142220E0;2.015917778E0
1.659883961E1;-8.116343617E-1;7.414842606E0;3.453635931E0
1.660994461E1;-5.195417404E-1;7.778761387E0;2.851494312E0
1.662866961E1;-1.116895080E0;8.519766808E0;3.436876535E0
1.664869161E1;-4.244919777E0;7.104793549E0;2.078166962E0
1.665917861E1;-3.956418276E0;7.764396191E0;1.477222443E0
1.667851561E1;-4.146757126E0;7.135918140E0;1.007958889E0
1.668876361E1;-3.491943121E0;6.961141586E0;1.471236944E0
1.670912561E1;-2.357091665E0;6.598419666E0;2.108094692E0
1.672866961E1;-1.860294700E0;7.331045628E0;2.647987127E0
1.674934261E1;-1.234210968E0;7.661445618E0;4.430470467E0
1.676852061E1;2.035071515E-2;7.210138321E0;6.299144745E0
1.677898961E1;7.206547260E-1;6.987477779E0;6.646304131E0
1.679865161E1;2.303221941E0;7.176619530E0;4.849455357E0
1.680894061E1;2.390610456E0;8.348581314E0;4.734533787E0
1.682876861E1;2.689885616E0;1.189319706E1;4.001908302E0
1.684866861E1;6.404489279E-1;1.601960373E1;3.145981073E0
1.685954661E1;-1.018732786E0;1.411980438E1;7.250839710E0
1.687846961E1;1.284489155E0;1.434725380E1;1.746091270E1
1.688897361E1;1.583764434E0;1.687912178E1;1.643499756E1
1.690854861E1;-2.986766577E0;1.327824306E1;-1.775300503E0
1.692823461E1;-8.735244751E0;8.215703011E0;1.010353088E0
1.693991361E1;-6.412869453E0;8.374917984E0;-6.691793919E0
1.695827761E1;-2.795230389E0;1.204642582E1;5.626373768E0
1.696867261E1;-2.668337822E0;1.099178028E1;3.885789394E0
1.698957861E1;-3.421314240E0;7.562086105E0;6.177040339E-1
1.700991461E1;-4.384980202E0;7.151480675E0;2.132036686E0
1.702821561E1;-5.901707172E0;8.577227592E0;1.872265697E0
1.703842861E1;-7.133523941E0;9.095572472E0;1.941697598E0
1.705935861E1;-2.607285738E0;1.164539719E1;2.652775526E0
1.706997461E1;-2.590526342E0;1.083855152E1;3.676296711E0
1.708863761E1;-3.013102770E0;7.278373241E0;3.265691042E0
1.709931061E1;-2.882618904E0;5.869385242E0;3.409343243E0
1.712168061E1;-2.196680069E0;5.821501255E0;5.746084213E0
1.713182961E1;-2.501940727E0;6.214150429E0;3.967192173E0
1.714478661E1;-3.081337690E0;7.935581684E0;1.867477298E-1
1.716040961E1;-3.269282341E0;7.645883083E0;2.193088770E0
1.718088661E1;-2.510320425E0;6.087257862E0;3.445256233E0
1.719851961E1;-9.636662006E-1;5.932831764E0;2.422932148E0
1.721817361E1;-1.119289279E0;7.269993305E0;5.758054852E-1
1.722926961E1;-1.132457376E0;7.969100475E0;6.057330370E-1
1.724851761E1;-1.572990537E0;8.831012726E0;-1.675941236E-2
1.726011661E1;-2.092532396E0;8.801085472E0;-1.069011092E0
1.727887161E1;-3.478775024E0;8.813055992E0;5.865794420E-1
1.729841261E1;-4.542997837E0;9.556455612E0;1.908178806E0
1.730899161E1;-4.465186119E0;1.001015759E1;1.918952703E0
1.731914161E1;-4.473566055E0;9.446322441E0;1.838746905E0
1.733884561E1;-5.203797340E0;8.449137688E0;2.008735180E0
1.734890561E1;-5.698200226E0;7.983465672E0;2.601300240E0
1.736820261E1;-5.744886875E0;8.074444771E0;2.863465309E0
1.737850761E1;-5.103240967E0;8.505401611E0;2.457648039E0
1.738870161E1;-3.836708307E0;9.522936821E0;2.430114746E0
1.740943061E1;-3.216609955E0;1.095586681E1;1.759738207E0
1.742862161E1;-3.294421434E0;1.092713642E1;2.151190281E0
1.743885561E1;-2.408566952E0;9.847352028E0;1.533486247E0
1.745961661E1;1.209071875E-1;6.533776283E0;1.161187768E0
1.747855261E1;-9.864110947E-1;5.892130375E0;2.140416384E0
1.749846461E1;-4.204218388E0;5.424064159E0;4.162319660E0
1.750903561E1;-5.802347660E0;6.566098213E0;4.511873245E0
1.752879361E1;-9.414001465E0;1.196981144E1;4.478354454E0
1.754848261E1;-8.323442459E0;2.126769447E1;2.795230389E0
1.755864461E1;-5.355829239E0;2.430952644E1;9.349357486E-1
1.756901161E1;-3.665522814E0;2.427361488E1;-2.299630642E0
1.758867061E1;-5.123591423E0;1.454118443E1;-6.092046261E0
1.760883861E1;-2.883816004E0;1.175912189E1;-6.653486729E0
1.761891061E1;-1.722628117E0;9.950302124E0;-4.618414879E0
1.763850661E1;-1.119289279E0;7.047332764E0;4.513070285E-1
1.764853761E1;8.236053586E-1;5.305551052E0;2.213439465E0
1.765940761E1;1.371877551E0;6.228515625E0;3.070563793E0
1.767825661E1;-2.202665508E-1;8.427590370E0;3.598485231E0
1.768923061E1;-8.164227605E-1;8.020575523E0;3.847482204E0
1.770878061E1;-2.752134800E0;6.713341713E0;2.971204281E0
1.772865861E1;-4.355052948E0;6.040570736E0;1.636436820E0
1.773889261E1;-4.432864666E0;6.260837555E0;1.476025343E0
1.774890661E1;-4.759673119E0;5.987898350E0;1.861491799E0
1.775890761E1;-4.627991676E0;5.827486992E0;2.182314873E0
1.777856061E1;-4.180276394E0;5.528211594E0;2.540247917E0
1.778864861E1;-3.716998100E0;5.621585369E0;3.052607059E0
1.780897861E1;-2.729389906E0;5.985504150E0;3.846285105E0
1.782884061E1;-8.044517636E-1;6.325480938E0;5.270834923E0
1.784856261E1;1.720233917E0;6.593631268E0;5.561730385E0
1.785889861E1;2.278082848E0;7.283161640E0;5.029020786E0
1.787972661E1;6.631938815E-1;1.037048435E1;4.583699226E0
1.789857561E1;1.194706678E0;1.586996555E1;2.990357876E0
1.790885061E1;-4.920084476E-1;1.726578522E1;2.549824715E0
1.792865061E1;-5.195417404E-1;1.499009705E1;9.227252960E0
1.794851361E1;-4.608838260E-1;1.472673512E1;8.710105896E0
1.795894561E1;-8.475474119E-1;1.656667900E1;1.690066910E1
1.797823261E1;-4.417302012E-1;1.525106525E1;8.644265175E0
1.798919961E1;-3.197456360E0;1.194467258E1;-1.010353088E0
1.800927361E1;-5.262455463E0;7.544129372E0;-2.704250813E0
1.802879461E1;-2.401384354E0;1.292749214E1;4.331110954E0
1.804849461E1;-3.734954596E0;7.292738438E0;2.477998734E0
1.806020861E1;-4.012681961E0;5.082890034E0;2.985569477E0
1.807961861E1;-4.016273499E0;5.182249546E0;4.129997790E-1
1.809858061E1;-5.521028996E0;7.844601631E0;1.544260144E0
1.810878261E1;-5.889736176E0;9.994594574E0;6.955155730E-1
1.811884361E1;-5.615600109E0;1.179862595E1;2.568978310E0
1.812967561E1;-4.644751072E0;1.315972996E1;4.632780075E0
1.814902761E1;-4.163516521E0;9.363722801E0;3.106476784E0
1.815926561E1;-2.931699991E0;7.194576263E0;1.608903527E0
1.817871961E1;3.711012751E-2;6.722918510E0;2.450465441E0
1.819824261E1;-1.236605167E0;6.406883717E0;3.762487888E0
1.820909861E1;-1.661576033E0;7.773972988E0;2.697068214E0
1.822848861E1;-3.305195332E0;8.319850922E0;1.671152830E0
1.823927561E1;-2.822763920E0;6.471527100E0;2.382230759E0
1.825874761E1;-1.690306425E0;5.981913090E0;2.085349798E0
1.827850661E1;-1.162384868E0;6.694188118E0;6.536170840E-1
1.828866961E1;-1.234210968E0;6.927622795E0;9.816226959E-1
1.830993461E1;-1.823184609E0;7.988254070E0;5.961562395E-1
1.832853061E1;-2.603694439E0;9.047688484E0;-6.512228847E-1
1.834868961E1;-5.486313343E0;8.601169586E0;3.160346150E-1
1.835881261E1;-6.162675381E0;8.492233276E0;1.023521185E0
1.837852461E1;-5.464765549E0;7.607575893E0;1.836352706E0
1.838920061E1;-4.669890404E0;6.400898457E0;1.887827992E0
1.840895261E1;-4.794388771E0;5.495890141E0;2.606088638E0
1.842856861E1;-5.898116112E0;1.091755962E1;2.048239470E0
1.844856261E1;-5.843049049E0;1.180939960E1;3.294421434E0
1.845906061E1;-5.032611847E0;1.241273880E1;2.864662409E0
1.846940161E1;-4.704606533E0;1.297417927E1;2.340332270E0
1.848898361E1;-3.590105534E0;1.125873375E1;1.007958889E0
1.850903861E1;-1.989581585E0;9.774328232E0;4.070143029E-2
1.852872361E1;-4.537012279E-1;8.591592789E0;8.655039072E-1
1.853954261E1;-5.638344884E-1;7.386112213E0;1.345541358E0
1.855897861E1;-2.173935175E0;4.837484360E0;2.853888512E0
1.857866261E1;-4.480748653E0;3.715801001E0;2.278082848E0
1.858870861E1;-4.964377403E0;4.450820923E0;2.732981205E0
1.860890761E1;-6.557718277E0;7.127538681E0;3.477577925E0
1.862878561E1;-5.511452198E0;1.889982796E1;3.348291159E0
1.863886661E1;-3.829525709E0;2.288497734E1;1.935712099E0
1.865894961E1;-4.158728123E0;2.016755867E1;-3.284844637E0
1.867862561E1;-5.499481201E0;1.178545761E1;-6.336254597E0
1.869893661E1;-3.479972124E0;9.386467934E0;-2.594117641E0
1.871859761E1;-6.739677787E-1;7.092822552E0;1.136048675E0
1.872860461E1;-2.477998734E-1;6.384139061E0;2.663549423E0
1.874870861E1;5.291185975E-1;7.416039944E0;3.081337690E0
1.875874361E1;8.248024583E-1;9.034520149E0;4.135983467E0
1.876922161E1;-4.070143029E-2;9.197325706E0;3.189076662E0
1.878878361E1;-2.840720415E0;7.891288757E0;2.321178436E0
1.880872361E1;-4.809951305E0;6.505045891E0;2.774879694E0
1.882901261E1;-4.493916512E0;6.709750175E0;2.167949677E0
1.884907161E1;-3.500322819E0;6.380547523E0;2.097320795E0
1.886875861E1;-2.123656988E0;5.798756599E0;2.975992680E0
1.888892161E1;-1.176750183E0;6.457161903E0;4.179079056E0
1.890917761E1;3.471592367E-1;6.440402508E0;6.089652061E0
1.892861461E1;1.655590534E0;6.171054840E0;6.932411194E0
1.894855161E1;2.055422068E0;6.143521786E0;4.539406300E0
1.895923461E1;1.385045648E0;7.462726593E0;3.745728493E0
1.897873661E1;1.357512355E0;1.186326981E1;3.451241732E0
1.899856461E1;-4.848258495E-1;1.759020042E1;4.699818134E0
1.900993961E1;-3.447650373E-1;1.716163826E1;7.138312340E0
1.902876661E1;1.073799491E0;1.650323296E1;1.908059120E1
1.904858261E1;-2.697068214E0;1.464293766E1;-2.394201700E-3
1.905894761E1;-6.615179062E0;1.194706631E1;-1.406593442E0
1.907857561E1;-6.229712963E0;9.235632896E0;-1.144428372E0
1.908918461E1;-3.651157618E0;1.075595093E1;-1.247379065E0
1.910911761E1;-2.971204281E0;1.232415295E1;7.589619160E-1
1.913164061E1;-3.173514366E0;7.971494675E0;3.842693806E0
1.915866161E1;-5.759252071E0;7.246051311E0;1.382651448E0
1.917861161E1;-6.919242859E0;9.278728485E0;1.569399238E0
1.919117061E1;-4.331110954E0;1.203206062E1;2.646790028E0
1.920881761E1;-1.589749932E0;1.070926380E1;4.371812344E0
1.922820261E1;-2.012326479E0;7.016208172E0;2.773682594E0
1.923847661E1;-2.026691675E0;5.931634903E0;2.546233416E0
1.924864361E1;-2.056619167E0;5.607220173E0;3.092111588E0
1.926895261E1;-2.841917515E0;5.675455093E0;5.099649429E0
1.928877761E1;-3.150769472E0;7.988254070E0;2.486378431E0
1.930070661E1;-3.678690910E0;7.927201748E0;3.064578056E0
1.931851861E1;-3.142389774E0;5.992686749E0;3.517082214E0
1.933937461E1;-1.052251697E0;5.834669590E0;2.188300371E0
1.935929261E1;-1.657984734E0;5.795165062E0;1.563413739E0
1.937947661E1;-1.169567585E0;7.213729858E0;7.338228226E-1
1.939855261E1;-1.503558636E0;8.682572365E0;2.573766708E-1
1.940865661E1;-3.201047659E0;9.460687637E0;-5.985504016E-3
1.942930861E1;-5.540182590E0;8.996212959E0;9.528923035E-1
1.944863861E1;-5.679046631E0;9.160215378E0;2.619256735E0
1.945904061E1;-4.924872875E0;9.302670479E0;3.120841980E0
1.947889061E1;-4.863820553E0;7.577648163E0;3.251325846E0
1.949938661E1;-5.396530628E0;7.970297337E0;2.669534922E0
1.951819361E1;-4.288015366E0;9.670180321E0;1.640028119E0
1.952878161E1;-3.615244627E0;1.004128170E1;2.060210466E0
1.954841261E1;-4.344278812E0;1.068173122E1;2.308010340E0
1.956024961E1;-4.435258865E0;1.072123528E1;3.053804159E0
1.957888961E1;-1.786074519E0;9.449913979E0;2.284068346E0
1.959861061E1;-1.675941236E-2;8.362946510E0;1.069011092E0
1.960954261E1;-7.026981711E-1;6.521805286E0;2.466027737E-1
1.962920461E1;-3.317166567E0;5.984307289E0;2.697068214E0
1.963995561E1;-4.663905144E0;6.224924564E0;3.725377798E0
1.965888461E1;-6.019022942E0;9.165003777E0;4.194641590E0
1.967855661E1;-7.832630634E0;1.434605694E1;3.068169594E0
1.968857261E1;-7.554903507E0;1.786433601E1;3.116053581E0
1.969916361E1;-5.352237701E0;2.084511757E1;1.619677424E0
1.970947061E1;-3.262099743E0;2.203264046E1;-1.663970202E-1
1.972878161E1;-3.028665066E0;1.603875732E1;-3.786429882E0
1.974853361E1;-3.762487888E0;1.220923138E1;-3.101688385E0
1.975857561E1;-3.441664934E0;1.164659405E1;-2.237381458E0
1.976871461E1;-3.556586742E0;1.000417137E1;-2.069787264E0
1.977887861E1;-4.094084740E0;7.900865555E0;-6.009446383E-1
1.979858961E1;-6.380547285E-1;7.244854450E0;2.197877169E0
1.980959261E1;-6.189011335E-1;8.081627846E0;2.371456861E0
1.982922361E1;-1.424550056E0;8.965087891E0;3.323152065E0
1.984850661E1;-2.130839586E0;8.310274124E0;2.834734917E0
1.985942961E1;-3.409343243E0;7.283161640E0;2.139219284E0
1.987862161E1;-4.328716755E0;5.743690014E0;1.338358760E0
1.989855961E1;-3.962403774E0;4.967968464E0;1.911770105E0
1.990889261E1;-3.763684988E0;4.955997467E0;2.209848166E0
1.992864961E1;-3.111265182E0;4.796782970E0;2.529474020E0
1.994859061E1;-2.303221941E0;4.940435410E0;3.611653328E0
1.995896261E1;-1.619677424E0;5.058948040E0;3.568557739E0
1.997944161E1;-5.398924947E-1;5.772420406E0;5.017049789E0
1.999850061E1;1.708262920E0;6.926425457E0;5.542576790E0
2.000998761E1;2.418143749E0;7.546523571E0;5.040991783E0
2.002990461E1;1.023521185E0;1.012986755E1;3.211821556E0
2.004883161E1;1.449689150E0;1.489432907E1;4.209006786E0
2.006850861E1;-1.902193308E0;1.628416252E1;3.070563793E0
2.007855961E1;-2.026691675E0;1.350808620E1;1.608903527E0
2.009922561E1;5.954379559E0;1.471117210E1;2.267308998E1
2.011905361E1;-1.344344258E0;1.552400398E1;5.722141862E-1
2.012952061E1;-5.178658485E0;1.182735634E1;-3.161543369E0
2.013961261E1;-7.067683220E0;9.549273491E0;2.466027737E0
2.015848661E1;-5.941211700E0;1.127070427E1;-4.035427094E0
2.017060661E1;-3.068169594E0;1.403840160E1;3.989937067E0
2.018885161E1;-3.828328609E0;9.156624794E0;3.503914118E0
2.019904361E1;-4.116829872E0;7.062894821E0;4.107253075E0
2.021862261E1;-5.528211594E0;5.898116112E0;1.344344258E0
2.022911861E1;-5.884947777E0;6.907271862E0;9.744400978E-1
2.024851361E1;-5.804741859E0;1.008437729E1;3.161543369E0
2.026843161E1;-4.120420933E0;1.182496262E1;3.009511471E0
2.027850961E1;-4.053383350E0;1.052969933E1;2.662352324E0
2.028901661E1;-3.555389643E0;9.379284859E0;2.621650934E0
2.030882461E1;-2.023100376E0;7.230489254E0;2.516305923E0
2.032858961E1;-1.288080573E0;6.702567577E0;3.807977915E0
2.033905661E1;-1.347935557E0;6.684611320E0;2.062604666E0
2.035885861E1;-1.941697598E0;9.074024200E0;4.080916882E0
2.036912261E1;-3.001131773E0;8.705317497E0;4.544194698E0
2.037915561E1;-3.558980942E0;7.863755703E0;2.926911592E0
2.039871861E1;-1.717839718E0;5.397727966E0;1.911770105E0
2.040889361E1;-1.950077295E0;5.521028996E0;1.568202138E0
2.042865961E1;-1.977610588E0;6.305130005E0;1.092953086E0
2.044849161E1;-2.026691675E0;7.499836922E0;8.116343617E-1
2.045910661E1;-2.371456861E0;8.366538048E0;1.508347094E-1
2.047855261E1;-3.870227098E0;9.078812599E0;-4.285621047E-1
2.048855561E1;-4.928464413E0;8.297105789E0;1.520318091E-1
2.050859261E1;-5.497087002E0;8.738836288E0;1.124077678E0
2.052857061E1;-4.368220806E0;8.803479195E0;2.132036686E0
2.054868861E1;-4.048594952E0;7.416039944E0;3.080140591E0
2.056857361E1;-4.938041210E0;7.766790390E0;4.754884720E0
2.058891361E1;-3.089717388E0;1.004367638E1;2.905363798E0
2.060926461E1;-3.174711466E0;1.121563816E1;2.140416384E0
2.062865661E1;-3.172317266E0;1.084812832E1;1.717839718E0
2.064868661E1;-1.080982089E0;9.071630478E0;1.572990537E0
2.066882361E1;-4.106055796E-1;7.275979042E0;7.445967197E-1
2.068932561E1;-2.053027868E0;6.290764809E0;2.442085743E0
2.071028661E1;-5.272032261E0;6.485892296E0;3.742137194E0
2.072952561E1;-7.896077156E0;9.728838921E0;3.025073767E0
2.074868561E1;-9.108740807E0;1.467765331E1;3.119644880E0
2.076853061E1;-6.309918404E0;1.960013199E1;1.158793569E0
2.078872361E1;-3.099294186E0;1.672828674E1;-4.839878559E0
2.080880661E1;-3.009511471E0;1.208952141E1;-4.897339344E0
2.082878261E1;-1.131260276E0;1.018732834E1;-2.333149672E0
2.084848661E1;-9.804255962E-1;7.121552944E0;7.146692276E-1
2.085919661E1;-2.980781198E-1;7.238868713E0;2.196680069E0
2.087919561E1;-4.333505034E-1;8.814253807E0;2.887407303E0
2.089849961E1;-1.234210968E0;9.317035675E0;3.269282341E0
2.090872861E1;-1.150413871E0;8.541314125E0;3.147178173E0
2.092874161E1;-3.561375141E0;6.507440090E0;1.638831019E0
2.094867161E1;-4.067748547E0;5.298368454E0;1.476025343E0
2.096870261E1;-3.864241600E0;4.953603268E0;2.297236443E0
2.097899061E1;-3.873818398E0;4.270058632E0;2.142810583E0
2.099899361E1;-3.236960649E0;4.473566055E0;2.977189779E0
2.100926661E1;-2.688688517E0;4.841075897E0;3.186682463E0
2.102862161E1;-9.983820915E-1;5.415684223E0;4.503493309E0
2.104860961E1;5.099649429E-1;5.710171223E0;6.257246017E0
2.105887461E1;1.045069098E0;6.120776653E0;6.017826080E0
2.107872761E1;1.790862918E0;8.215703011E0;5.050568581E0
2.108909361E1;1.241393566E0;9.801861763E0;4.411316395E0
2.110922261E1;1.626860023E0;1.465969658E1;2.712630510E0
2.112902861E1;-2.206256866E0;1.584123516E1;4.490325451E0
2.114880361E1;-2.001552582E0;1.287841129E1;2.829946518E0
2.115897761E1;6.584054828E-1;1.183813000E1;1.124077702E1
2.118155761E1;2.286462635E-1;1.547851372E1;7.984662533E0
2.119861161E1;-6.907271862E0;1.075116253E1;-5.339069963E-1
2.121860261E1;-5.677849293E0;1.273236465E1;-6.212953568E0
2.123855661E1;-2.561795712E0;1.509903336E1;4.699818134E0
2.124859361E1;-2.865859509E0;1.282214737E1;2.843114614E0
2.125882861E1;-4.121618271E0;9.388861656E0;3.767276287E0
2.127947361E1;-4.915296078E0;5.592854977E0;2.424129248E0
2.129851761E1;-6.337451935E0;5.303156853E0;-5.626374111E-2
2.130889461E1;-5.834669590E0;7.225700855E0;-4.955997467E-1
2.132871461E1;-7.139509678E0;1.227028370E1;3.339911461E0
2.134971961E1;-6.438008308E0;1.091396809E1;4.548983097E0
2.136061561E1;-2.632424831E0;8.003816605E0;2.603694439E0
2.138366011E1;-1.448492050E0;6.367379189E0;5.670666695E0
2.139957361E1;-1.758541107E0;6.253654957E0;6.113594055E0
2.141867861E1;-3.052607059E0;8.051700592E0;8.367735147E-1
2.143861561E1;-4.158728123E0;7.649474621E0;2.724601507E0
2.146046861E1;-2.504334927E0;6.084863663E0;3.147178173E0
2.147851561E1;-1.625662923E0;6.064512730E0;2.649184227E0
2.148889761E1;-1.617283225E0;6.631938934E0;2.355894566E0
2.150876361E1;-1.007958889E0;7.637503624E0;1.593341231E0
2.152850561E1;6.344634295E-2;8.966285706E0;1.598129630E0
2.154849061E1;-1.154005170E0;9.879673004E0;9.014169574E-1
2.155861661E1;-2.081758261E0;9.524134636E0;1.180341482E0
2.156888261E1;-3.727771997E0;8.410830498E0;1.496376038E0
2.157910561E1;-4.595670223E0;8.628703117E0;1.702277422E0
2.159853061E1;-4.230554581E0;8.261193275E0;2.493561029E0
2.160870761E1;-4.114435673E0;7.231686115E0;2.773682594E0
2.162868961E1;-5.133168221E0;5.846640587E0;2.935291290E0
2.164895861E1;-4.726154327E0;9.440337181E0;2.400187254E0
2.166860561E1;-4.253299236E0;1.238879681E1;2.730587006E0
2.167925161E1;-4.220977783E0;1.313578796E1;2.693476915E0
2.169852361E1;-4.659116745E0;1.236126328E1;2.756923199E0
2.170890761E1;-3.931279182E0;1.089481449E1;2.523488522E0
2.172862561E1;-1.181538582E0;8.200140953E0;7.469909191E-1
2.173896361E1;-3.112462163E-2;7.674613476E0;4.680664241E-1
2.175996961E1;-6.344634295E-1;6.185420036E0;2.254140854E0
2.177866361E1;-3.433285236E0;4.879383087E0;3.440467834E0
2.179852061E1;-6.378153324E0;6.890512466E0;4.094084740E0
2.180884061E1;-7.372944355E0;9.488221169E0;3.821146011E0
2.182870061E1;-8.497021675E0;1.678096008E1;3.659537315E0
2.183880561E1;-6.394912720E0;2.096722221E1;3.027467966E0
2.185822861E1;-1.616086125E0;2.246240044E1;-2.177526474E0
2.186866161E1;-2.560598612E0;1.776018906E1;-4.394556999E0
2.188893661E1;-1.035492182E0;1.339076996E1;-6.002263546E0
2.190859261E1;-5.662286878E-1;1.021366405E1;-3.044227362E0
2.192852661E1;-2.285265446E0;6.868964672E0;-8.319851160E-1
2.193854761E1;-1.780089021E0;5.899312973E0;1.227028370E0
2.194863261E1;-4.333505034E-1;6.976703644E0;3.119644880E0
2.195894761E1;-8.212111592E-1;9.011775017E0;3.535038710E0
2.197849161E1;-8.834604025E-1;8.337807655E0;4.113238335E0
2.199852661E1;-2.643198729E0;6.318298340E0;2.744952202E0
2.201869861E1;-4.314351559E0;5.525817394E0;1.367089152E0
2.202894861E1;-4.254496574E0;5.408501625E0;2.047042370E0
2.203902261E1;-4.150348663E0;5.409698963E0;2.159569979E0
2.205825561E1;-3.999513865E0;5.480327606E0;2.313995838E0
2.206877261E1;-3.919308186E0;5.337872505E0;2.023100376E0
2.208847761E1;-3.105279684E0;5.683835030E0;2.707842112E0
2.209855861E1;-2.529474020E0;5.957971096E0;2.692279816E0
2.212170261E1;1.556231081E-1;6.803123951E0;5.500678539E0
2.214409061E1;1.952471495E0;7.299921036E0;5.785588264E0
2.215851561E1;2.329558372E0;8.092401505E0;5.002684593E0
2.217037261E1;1.929726601E0;9.643844604E0;4.453215122E0
2.218829761E1;2.292448044E0;1.450886250E1;3.952826977E0
2.219953761E1;5.937620401E-1;1.671751404E1;3.478775024E0
2.221845761E1;-2.147598982E0;1.511100388E1;5.619191170E0
2.223847561E1;-2.245761156E0;1.470518684E1;1.302924538E1
2.224856061E1;7.182605099E-3;1.791222000E1;1.904347992E1
2.225918361E1;1.139639974E0;1.740943718E1;1.452083302E1
2.227837161E1;-4.211400986E0;1.260068321E1;-2.946065187E0
2.228870761E1;-5.592854977E0;1.034774017E1;4.776432514E-1
2.230906161E1;-5.183446407E-1;9.861717224E0;-1.557428241E0
2.231930861E1;-1.267729759E0;1.109951878E1;2.551021814E0
2.233858161E1;-2.785653591E0;9.844957352E0;3.543418646E-1
2.235853261E1;-4.279635429E0;5.762843609E0;2.765302896E0
2.236860161E1;-5.048174381E0;6.366182327E0;2.201468468E0
2.238853961E1;-6.715735912E0;8.328230858E0;1.291671872E0
2.239862761E1;-6.350619793E0;1.013226128E1;1.507149935E0
2.240917461E1;-6.050147533E0;1.098699188E1;2.425326347E0
2.242865461E1;-3.621230125E0;1.175792408E1;4.661510944E0
2.244858361E1;-4.793191910E0;7.523778915E0;3.217807055E0
2.245976661E1;-3.677493811E0;6.357802391E0;2.159569979E0
2.247951961E1;-2.256535053E0;6.174646378E0;3.986345768E0
2.249852661E1;-3.228580952E0;7.870938301E0;5.735310078E0
2.250978661E1;-3.520673513E0;8.908824921E0;8.259996027E-2
2.252826961E1;-3.646369219E0;7.077260017E0;2.463633537E0
2.253910561E1;-1.446097851E0;5.299565315E0;2.898181200E0
2.255898261E1;-1.207874775E0;5.517437935E0;2.458845139E0
2.257858061E1;-5.793967843E-1;6.743268967E0;1.608903527E0
2.259844861E1;-8.942343593E-1;7.988254070E0;1.432929754E0
2.260916461E1;-1.357512355E0;8.526948929E0;3.770867586E-1
2.261978961E1;-1.624465823E0;9.513360023E0;-5.722141862E-1
2.263844361E1;-3.259705544E0;9.627084732E0;-1.292868853E-1
2.264851361E1;-3.841496706E0;9.284713745E0;7.649474144E-1
2.265881861E1;-3.590105534E0;9.118317604E0;1.255758762E0
2.267859161E1;-3.538630009E0;8.532935143E0;1.382651448E0
2.269902961E1;-4.223371983E0;7.472303391E0;1.260547161E0
2.270913861E1;-4.990713596E0;6.829460144E0;2.090138197E0
2.272859461E1;-5.414487362E0;8.163030624E0;3.427299738E0
2.273895761E1;-5.042188644E0;9.872490883E0;2.883816004E0
2.276054761E1;-3.855861902E0;1.267131233E1;1.769315004E0
2.277900461E1;-2.949656487E0;1.277785492E1;2.114080191E0
2.279868661E1;-2.197877169E0;9.613917351E0;7.972691655E-1
2.281847061E1;-1.170764685E0;8.125920296E0;9.097966552E-2
2.282853961E1;-1.169567585E0;7.334636688E0;-2.035071515E-2
2.284854561E1;-2.059013367E0;6.692990780E0;2.529474020E0
2.285988361E1;-3.495534420E0;6.369773388E0;3.858256102E0
2.287849661E1;-5.282805920E0;7.138312340E0;4.422090530E0
2.288877561E1;-6.274005413E0;8.018181801E0;4.477157116E0
2.291088061E1;-7.694964409E0;1.181179428E1;3.787626982E0
2.292878661E1;-5.615600109E0;1.927332306E1;1.516726732E0
2.294847761E1;-2.503137827E0;1.736993408E1;-5.027823448E0
2.295871661E1;-2.923320293E0;1.435922432E1;-6.115988255E0
2.297844561E1;-1.824381709E0;1.222000504E1;-4.395754337E0
2.298864361E1;-1.945288897E0;1.021965027E1;-4.107253075E0
2.299873961E1;-1.783680320E0;8.643068314E0;-2.294842243E0
2.300886861E1;-1.987187386E0;7.226897717E0;-2.645592988E-1
2.302935461E1;-8.619126081E-1;7.539340973E0;3.454833031E0
2.304865161E1;9.935937077E-2;8.597578049E0;5.098452568E0
2.305873061E1;9.097966552E-2;9.482235909E0;4.206612587E0
2.307908061E1;-2.193088770E0;7.428010941E0;3.263296843E0
2.309859261E1;-4.040215492E0;6.358999729E0;5.315127969E-1
2.310891161E1;-3.752911091E0;6.086060524E0;4.776432514E-1
2.312912661E1;-3.244143248E0;5.001487255E0;2.193088770E0
2.314903561E1;-3.082534790E0;4.723760128E0;2.707842112E0
2.315943961E1;-2.917334795E0;4.651933670E0;3.306392431E0
2.317864161E1;-1.981201887E0;4.529829502E0;3.873818398E0
2.319847661E1;-7.781155407E-2;4.687847137E0;5.479130745E0
2.320861861E1;7.769184709E-1;4.453215122E0;5.993884087E0
2.321872661E1;1.531091928E0;4.984727859E0;6.321889400E0
2.323936661E1;2.804807186E0;7.237671852E0;5.349843502E0
2.325891461E1;1.930923700E0;1.109473038E1;5.263652325E0
2.327846761E1;5.937620401E-1;1.797686386E1;2.811989784E0
2.328863261E1;-1.980004787E0;1.904826927E1;1.534683347E0
2.329865161E1;-3.045424461E0;1.770033264E1;-2.154781483E-2
2.330967261E1;8.068459630E-1;1.487876606E1;2.203623199E1
2.332869461E1;-2.968810201E-1;1.552520084E1;4.401739597E0
2.334873161E1;-5.990292549E0;9.643844604E0;5.448006153E0
2.335899961E1;-6.235698223E0;7.466318130E0;2.822763920E0
2.336925061E1;-5.914875507E0;7.829039574E0;-4.104858875E0
2.338840361E1;-2.518700123E0;1.668519211E1;5.949591398E-1
2.339851661E1;-3.518279314E0;1.650442886E1;3.038241863E0
2.340857561E1;-3.818751812E0;1.159871006E1;4.294000626E0
2.341872361E1;-4.280832767E0;8.337807655E0;3.400963545E0
2.343856261E1;-5.155913353E0;6.247669220E0;1.744175911E0
2.345860561E1;-6.380547523E0;6.841431141E0;6.823474765E-1
2.346866961E1;-7.125144482E0;7.795520782E0;1.657984734E0
2.348873461E1;-5.135562420E0;1.063384724E1;2.545036316E0
2.349890261E1;-4.194641590E0;1.047582912E1;2.671929121E0
2.352007561E1;1.628057212E-1;8.069656372E0;3.963600874E0
2.353844861E1;5.183446407E-1;5.986701488E0;3.879803896E0
2.354878561E1;9.097966552E-2;6.003460884E0;4.659116745E0
2.355887361E1;-1.078587890E0;6.546944618E0;2.045845270E0
2.357864861E1;-2.128445387E0;9.461885452E0;1.206677675E0
2.358884361E1;-2.942473888E0;8.815450668E0;2.430114746E0
2.359910161E1;-3.720589399E0;7.105990410E0;3.167528868E0
2.361844461E1;-1.766920805E0;5.088875771E0;4.100070477E0
2.362885661E1;-7.050924301E-1;5.291185856E0;2.501940727E0
2.364850761E1;-9.373299479E-1;6.232107162E0;1.113303781E0
2.365861761E1;-5.530605912E-1;6.926425457E0;9.157821536E-1
2.366898061E1;-6.799532771E-1;7.502231121E0;3.902548850E-1
2.368865561E1;-1.648407817E0;9.125499725E0;-2.094926536E-1
2.369901261E1;-2.309207439E0;9.914389610E0;-9.756371975E-1
2.371952261E1;-5.638344765E0;8.347384453E0;1.242590666E0
2.373850361E1;-4.821922302E0;8.172607422E0;2.309207439E0
2.374865961E1;-4.454412460E0;8.148665428E0;2.537853718E0
2.375889161E1;-4.505887508E0;7.498639584E0;2.972401381E0
2.376912561E1;-5.018246651E0;7.352593422E0;3.531447411E0
2.378910461E1;-5.837063789E0;9.260771751E0;3.851073503E0
2.381424861E1;-5.218162537E0;1.103128433E1;1.610100627E0
2.382848961E1;-4.060565948E0;1.150294209E1;1.849520802E0
2.383874261E1;-3.737348795E0;1.224753857E1;2.189497471E0
2.386057061E1;-2.616862535E0;1.080622959E1;3.626018524E0
2.387364461E1;-1.687912196E-1;8.085219383E0;1.527500629E0
2.388868261E1;6.631938815E-1;7.450755596E0;1.376665950E0
2.390917661E1;-1.417367458E0;5.947196960E0;1.804031014E0
2.392860261E1;-3.702632904E0;6.742072105E0;3.460818529E0
2.394904161E1;-6.396110058E0;1.053927612E1;3.232172251E0
2.395943561E1;-7.303512096E0;1.295023727E1;2.001552582E0
2.397861961E1;-6.890512466E0;1.941338539E1;1.681926727E0
2.398941761E1;-4.339490414E0;2.208651161E1;2.537853718E-1
2.400929361E1;-1.106121182E0;1.926494408E1;-3.829525709E0
2.402891161E1;-1.855506301E0;1.255639076E1;-5.825092793E0
2.404932761E1;-1.634042621E0;1.159990692E1;-2.284068346E0
2.406870561E1;-2.219424963E0;8.428787231E0;-5.494692922E-1
2.408872461E1;-6.117185354E-1;6.868964672E0;1.043871999E0
2.409912461E1;-2.358288616E-1;7.247248650E0;1.989581585E0
2.411846261E1;-5.901707411E-1;8.265981674E0;3.060986757E0
2.412873161E1;-7.948749661E-1;7.451952934E0;2.820369720E0
2.413893561E1;-1.217451572E0;6.569689274E0;2.322375536E0
2.415928261E1;-3.942053080E0;4.526238441E0;2.129642487E0
2.416944361E1;-4.384980202E0;4.174290657E0;2.136825085E0
2.418264661E1;-4.371812344E0;3.981557369E0;2.384624958E0
2.419856761E1;-4.039018154E0;3.511096716E0;2.335543871E0
2.420996161E1;-3.652354717E0;3.463212729E0;2.155978680E0
2.422822461E1;-2.410961151E0;4.456806660E0;2.792836189E0
2.423854061E1;-1.411381960E0;4.829104900E0;3.252522945E0
2.424872161E1;-5.494692922E-1;5.110423565E0;4.222174644E0
2.426857961E1;9.528923035E-1;5.977124691E0;5.134365559E0
2.427886861E1;1.444900751E0;6.376956463E0;5.409698963E0
2.429211261E1;1.859097600E0;7.119158745E0;5.530605793E0
2.430862861E1;6.344634295E-1;1.119408989E1;4.359841347E0
2.431894661E1;6.296750307E-1;1.401685429E1;2.989160776E0
2.433838761E1;-2.972401381E0;1.895010567E1;1.601720929E0
2.434857761E1;-3.201047659E0;1.854309273E1;3.238157749E0
2.435931961E1;-2.975992680E0;1.639669037E1;6.034585476E0
2.437866061E1;7.326257229E-1;1.406593513E1;1.567004967E1
2.438924961E1;2.188300371E0;1.595735455E1;2.147000313E1
2.441006661E1;-1.912967205E0;1.548210526E1;6.356605291E-1
2.442862061E1;-6.900089264E0;1.019091988E1;3.950432688E-2
2.444975261E1;-2.233790159E0;1.097142887E1;-3.169923067E0
2.446851061E1;-3.148375273E0;1.189080238E1;3.190273762E0
2.448852761E1;-3.574543238E0;7.309497833E0;2.632424831E0
2.449857861E1;-4.127603531E0;5.845443249E0;2.819172382E0
2.450863561E1;-5.080495834E0;5.951985359E0;1.995567083E0
2.451885961E1;-6.353013992E0;6.496666431E0;1.282094955E0
2.454002561E1;-7.588422298E0;9.012971878E0;2.420537949E0
2.455858361E1;-4.296394825E0;1.140477943E1;3.367444754E0
2.456858661E1;-3.653551817E0;1.139161205E1;5.740098476E0
2.457893261E1;-2.858676910E0;9.591172218E0;5.680243492E0
2.459852361E1;-1.582567334E0;6.994660378E0;3.524264812E0
2.461870161E1;-1.074996591E0;6.835445881E0;4.401739597E0
2.463842061E1;-2.060210466E0;7.735665798E0;6.916848660E0
2.464920461E1;-1.990778685E0;9.001001358E0;-2.141613483E0
2.465961961E1;-1.863885999E0;9.196128845E0;-1.119289279E0
2.467855361E1;-2.801215887E0;5.833472252E0;2.420537949E0
2.468883461E1;-1.668758631E0;5.303156853E0;2.869450808E0
2.470878461E1;-6.607996821E-1;6.312312603E0;2.027888775E0
2.472877961E1;8.619125932E-2;7.431602001E0;1.290474772E0
2.473886261E1;-2.573766708E-1;8.468291283E0;4.022258818E-1
2.475935261E1;-1.841141105E0;9.700108528E0;-6.883329749E-1
2.477869961E1;-4.030638695E0;9.440337181E0;2.753331885E-2
2.479818461E1;-4.757278919E0;8.923190117E0;9.349357486E-1
2.480853861E1;-4.340687752E0;8.823830605E0;1.474828243E0
2.482230361E1;-3.942053080E0;8.463502884E0;2.288856745E0
2.483869761E1;-4.402936935E0;7.366958618E0;3.556586742E0
2.485913161E1;-4.584896088E0;8.285135269E0;4.191050053E0
2.487857161E1;-4.659116745E0;1.098699188E1;2.360682964E0
2.488907061E1;-4.705803394E0;1.157835960E1;1.668758631E0
2.490011761E1;-4.487931252E0;1.165138245E1;1.213860273E0
2.491872861E1;-3.957615376E0;1.122282028E1;1.582567334E0
2.492951961E1;-2.974795580E0;9.740809441E0;1.164779186E0
2.495174261E1;-7.829039693E-1;8.299500465E0;1.282094955E0
2.496917861E1;-1.508347094E-1;7.181407928E0;1.420958757E0
2.497983761E1;-4.058171809E-1;6.777985096E0;2.318784237E0
2.499937961E1;-3.138798475E0;6.220136166E0;4.461595058E0
2.500944561E1;-4.332307816E0;6.739677906E0;4.671087742E0
2.502857961E1;-6.828263283E0;9.878476143E0;3.689464808E0
2.504857161E1;-7.625532627E0;1.530852604E1;3.306392431E0
2.505965761E1;-6.769605160E0;1.797925758E1;3.132812977E0
2.507858661E1;-1.472434044E0;2.107376289E1;-1.752555609E0
2.509864161E1;-2.609679937E0;1.372356415E1;-5.371391296E0
2.510891661E1;-2.516305923E0;1.327704525E1;-5.376179695E0
2.512887561E1;-4.157531261E0;9.980229378E0;-1.760935307E0
2.513906561E1;-5.272032261E0;7.679401875E0;-8.140286058E-2
2.515850961E1;-1.796848416E0;7.117961884E0;1.768117905E0
2.516939161E1;-1.507149935E0;7.133523941E0;2.430114746E0
2.518930661E1;-1.855506301E-1;8.373720169E0;3.780444384E0
2.520982761E1;-7.745242715E-1;8.286332130E0;2.750937700E0
2.522869361E1;-3.157952070E0;6.291962147E0;8.523358107E-1
2.524859361E1;-4.055777550E0;4.801571369E0;8.726865053E-1
2.525887061E1;-3.886986494E0;4.835090160E0;1.333570361E0
2.527851161E1;-3.828328609E0;4.876988888E0;1.704671621E0
2.529844161E1;-2.646790028E0;4.563348293E0;2.430114746E0
2.530886961E1;-2.215833664E0;4.508281708E0;2.887407303E0
2.531894861E1;-1.701080322E0;4.637568474E0;3.179499865E0
2.533848961E1;-7.637503147E-1;5.046977043E0;4.678270340E0
2.534892961E1;-2.334346622E-1;5.297171116E0;5.233725071E0
2.536896561E1;1.203086376E0;6.748057365E0;5.357026100E0
2.537931661E1;1.898601890E0;8.178592682E0;5.257667065E0
2.539873761E1;1.211466074E0;1.194826317E1;3.842693806E0
2.540895161E1;2.037465572E0;1.451963615E1;3.360262156E0
2.542945061E1;-1.796848416E0;1.804988670E1;2.788047791E0
2.544863061E1;-1.401805043E0;1.441429138E1;1.745373011E0
2.545957961E1;3.986345828E-1;1.345900440E1;1.472912884E1
2.547885561E1;3.763684988E0;1.669357109E1;1.624106789E1
2.548893161E1;-5.284003258E0;1.226190376E1;-1.988384485E0
2.549957061E1;-7.869740963E0;9.659406662E0;2.911349297E0
2.551959361E1;-5.637147903E0;1.190277386E1;-3.819948912E0
2.553841861E1;-4.611232281E0;1.453519821E1;3.299209833E0
2.554853461E1;-3.556586742E0;1.072482681E1;3.168725967E0
2.555916961E1;-3.269282341E0;7.274781704E0;4.333505154E0
2.556921061E1;-4.050989151E0;5.663484097E0;3.801992416E0
2.558868761E1;-4.410119534E0;6.253654957E0;8.894459605E-1
2.560936661E1;-6.027402878E0;8.696937561E0;9.516952038E-1
2.562862161E1;-5.803544998E0;1.193270111E1;1.466448545E0
2.563886961E1;-4.548983097E0;1.223437023E1;3.050212860E0
2.565883761E1;-1.715445518E0;1.005445004E1;4.787206173E0
2.567857161E1;-1.671152830E0;6.373364925E0;1.930923700E0
2.568884061E1;-1.501164436E0;4.756081581E0;4.120420933E0
2.570830661E1;-2.601300240E0;6.533776283E0;2.926911592E0
2.571880261E1;-2.455253839E0;9.026140213E0;1.770512104E0
2.572884961E1;-2.807201385E0;1.007719517E1;1.851915002E0
2.574889661E1;-3.343502760E0;7.547720909E0;2.693476915E0
2.575995461E1;-2.142810583E0;6.655880928E0;3.676296711E0
2.577864261E1;-3.483563364E-1;5.524620533E0;3.312378168E0
2.578879161E1;-2.346317619E-1;5.814318657E0;2.659958124E0
2.580876461E1;8.224082589E-1;6.768408298E0;1.906981707E0
2.582872261E1;-9.026140571E-1;8.236053467E0;-4.106055796E-1
2.583904261E1;-1.201889277E0;9.489418030E0;-7.445967197E-1
2.585864861E1;-2.468421936E0;9.749189377E0;-4.094084799E-1
2.586966061E1;-4.461595058E0;8.476671219E0;4.165911078E-1
2.588919561E1;-4.472368717E0;8.115146637E0;1.207874775E0
2.590873361E1;-4.261679173E0;6.985083580E0;2.115277290E0
2.592927361E1;-5.112817764E0;8.202534676E0;3.749319792E0
2.594865161E1;-4.924872875E0;1.177588081E1;3.541024208E0
2.595893461E1;-4.950012207E0;1.244266605E1;2.922123194E0
2.597863361E1;-5.153519154E0;1.206917095E1;2.086546898E0
2.598866761E1;-4.587290287E0;1.200811863E1;1.644816518E0
2.600860661E1;-2.588132143E0;1.007240677E1;1.485602140E0
2.601866761E1;-1.098938584E0;9.248801231E0;7.146692276E-1
2.602911561E1;-4.908113554E-2;8.201337814E0;8.726865053E-1
2.604863661E1;4.991910458E-1;7.003039837E0;4.201824069E-1
2.605915661E1;-6.596025825E-1;6.712144375E0;1.143231273E0
2.607851361E1;-4.897339344E0;5.735310078E0;3.337517262E0
2.608938961E1;-5.547365189E0;7.365761757E0;4.097676277E0
2.611061061E1;-7.228095055E0;1.225711536E1;2.682703018E0
2.612951961E1;-6.057330132E0;1.845450592E1;3.142389774E0
2.614894461E1;-1.071405292E0;2.130121231E1;-2.549824715E-1
2.616860961E1;-1.637633920E0;1.619916916E1;-5.798756599E0
2.618863761E1;-3.157952070E0;1.294664574E1;-6.667851925E0
2.619895961E1;-2.662352324E0;1.247977638E1;-3.903745890E0
2.621856261E1;-2.549824715E0;9.113529205E0;-4.189852998E-2
2.622931861E1;-1.764526606E0;8.145073891E0;8.379706182E-3
2.624900561E1;-1.241393566E0;7.084442616E0;2.212242365E0
2.625930361E1;-1.154005170E0;7.056909561E0;2.175132275E0
2.627855461E1;-1.242590666E0;8.766369820E0;3.643975019E0
2.628892561E1;-1.827973008E0;7.303512096E0;3.283647537E0
2.630892161E1;-3.080140591E0;5.027823448E0;9.241618514E-1
2.632852061E1;-3.529053211E0;4.867412090E0;1.423352957E0
2.633853061E1;-3.452438831E0;4.808753967E0;1.917755604E0
2.634956061E1;-3.353079557E0;4.468777657E0;2.108094692E0
2.636885461E1;-2.977189779E0;4.155137062E0;1.982398987E0
2.638858361E1;-1.902193308E0;4.546588898E0;2.291250944E0
2.639870961E1;-1.204283476E0;4.744110584E0;2.428917646E0
2.640952361E1;-5.458779931E-1;5.149928093E0;3.366247654E0
2.642934461E1;4.728548229E-1;5.986701488E0;5.055356979E0
2.644849861E1;1.466448545E0;7.449558735E0;6.148310184E0
2.645855961E1;1.991975784E0;8.811859131E0;5.449203014E0
2.646864161E1;2.843114614E0;1.135450172E1;3.440467834E0
2.648889161E1;1.681926727E0;1.621353340E1;2.379836559E0
2.650860661E1;-2.528276920E0;1.577778912E1;3.719392300E0
2.652872961E1;-8.044517636E-1;1.447055531E1;1.857900429E1
2.654849861E1;1.910573006E0;1.828212357E1;1.442147350E1
2.655860061E1;-9.947907925E-1;1.656308746E1;-4.908113554E-2
2.657847861E1;-7.314286232E0;8.457517624E0;3.436876535E0
2.658919761E1;-5.743690014E0;8.898050308E0;-4.004302502E0
2.660976861E1;-4.509479046E0;1.271440792E1;3.404554844E0
2.662910361E1;-3.725377798E0;7.721300602E0;5.498284340E0
2.664854261E1;-4.373009205E0;5.822698593E0;2.217030764E0
2.665857661E1;-4.824316502E0;6.470330238E0;5.195417404E-1
2.667838161E1;-6.181828976E0;1.228824043E1;2.937685490E0
2.668900761E1;-6.113594055E0;1.400129128E1;3.424905539E0
2.670896361E1;-2.288856745E0;1.270961952E1;3.071760893E0
2.671900161E1;-1.207874775E0;1.065778923E1;1.531091928E0
2.672973761E1;-9.684545994E-1;8.784325600E0;5.231330991E-1
2.674843161E1;-2.059013367E0;5.084087372E0;2.375048161E0
2.675980961E1;-1.771709204E0;4.225766182E0;3.556586742E0
2.677817861E1;-4.632780254E-1;6.154295444E0;2.961627483E0
2.678919461E1;-2.724601507E0;7.633912086E0;3.518279314E0
2.680965161E1;-3.853467703E0;1.041836834E1;2.015917778E0
2.682873161E1;-4.191050053E0;6.963535786E0;2.419340849E0
2.683889461E1;-3.011905670E0;5.784391403E0;2.292448044E0
2.685945261E1;-1.083376288E0;5.298368454E0;2.357091665E0
2.687904061E1;-9.911994934E-1;6.789956093E0;9.469067454E-1
2.688931961E1;-1.417367458E0;7.411251545E0;2.885012925E-1
2.690884461E1;-2.363077164E0;8.353369713E0;-1.388636976E-1
2.692947061E1;-4.343081951E0;8.304288864E0;5.506663769E-2
2.694850561E1;-4.582501888E0;8.937555313E0;-9.097966552E-2
2.695857961E1;-4.477157116E0;8.937555313E0;8.236053586E-1
2.697855561E1;-3.296815634E0;6.695384979E0;1.865083098E0
2.698904961E1;-4.116829872E0;6.521805286E0;2.057816267E0
2.700995061E1;-3.921702385E0;9.384073257E0;3.616441727E0
2.702874161E1;-2.896984100E0;1.255758762E1;3.421314240E0
2.704848361E1;-3.651157618E0;1.233971596E1;2.723404408E0
2.705854361E1;-3.924096584E0;1.195424938E1;2.466027737E-1
2.708091861E1;-3.221398354E0;9.050082207E0;9.971849918E-1
2.709862261E1;-6.212953329E-1;8.109161377E0;9.277531505E-1
2.710889561E1;5.267243832E-2;8.005013466E0;1.619677424E0
2.712929561E1;-7.912836671E-1;6.709750175E0;2.558204412E0
2.714875361E1;-2.009932280E0;5.439626217E0;2.773682594E0
2.715927861E1;-2.845508814E0;5.858611584E0;3.568557739E0
2.717858161E1;-6.684611320E0;9.661801338E0;4.064157486E0
2.718891261E1;-8.195352554E0;1.257075596E1;3.562572241E0
2.720955561E1;-7.347805023E0;1.919431496E1;2.661155224E0
2.722855761E1;-1.911770105E0;2.368942833E1;-2.487575531E0
2.723925661E1;-3.131615877E0;1.493502998E1;-6.268020153E0
2.725908661E1;-2.126051188E0;1.197220516E1;-5.178658485E0
2.727869461E1;-2.755726099E0;9.431957245E0;-1.262941360E0
2.728918661E1;-2.896984100E0;7.976283073E0;-1.580173075E-1
2.730898161E1;-7.936778665E-1;7.733271599E0;1.801636815E0
2.731903461E1;-1.675941199E-1;7.959523678E0;3.077746391E0
2.733933761E1;2.765302956E-1;9.402029991E0;3.634398222E0
2.735846861E1;-7.972691655E-1;8.713697433E0;2.700659513E0
2.737006461E1;-2.091335297E0;7.297526836E0;2.401384354E0
2.738851461E1;-4.216189384E0;5.450400352E0;1.502361536E0
2.740855361E1;-3.955221176E0;4.642356873E0;1.577778935E0
2.742854061E1;-3.761290789E0;4.164713860E0;2.134430885E0
2.744849861E1;-3.049015760E0;4.120420933E0;3.058592558E0
2.745892561E1;-2.361880064E0;4.645948410E0;3.877409697E0
2.747897061E1;-1.199495077E0;5.413290024E0;4.363432407E0
2.749848561E1;-1.268926859E-1;5.773617268E0;5.719748020E0
2.750919861E1;1.045069098E0;6.276399612E0;6.327875137E0
2.752964861E1;2.145204782E0;8.109161377E0;5.225345135E0
2.754866261E1;1.877054095E0;1.201051235E1;4.114435673E0
2.756902461E1;-7.841010690E-1;1.677018547E1;1.814804912E0
2.758842961E1;-3.444059134E0;1.498291397E1;3.830722719E-2
2.759901061E1;-1.219845772E0;1.230499935E1;1.042555141E1
2.760906161E1;3.189076662E0;1.280179691E1;2.087743950E1
2.762844361E1;1.492784739E0;1.619437981E1;1.012986755E1
2.763854961E1;-2.383427858E0;1.404079628E1;-2.130839586E0
2.764877761E1;-6.600813866E0;9.410409927E0;2.428917646E0
2.766858061E1;-1.929726601E0;1.158913326E1;-2.240972757E0
2.767858161E1;-1.826775908E0;1.357871532E1;6.426037312E0
2.768888761E1;-2.183511972E0;1.312621117E1;3.043030262E0
2.770975861E1;-3.858256102E0;8.110358238E0;3.539827108E0
2.772909961E1;-4.335899353E0;6.660669327E0;2.047042370E0
2.773964861E1;-4.557363033E0;7.651868820E0;1.379060149E0
2.775917861E1;-6.518214226E0;1.002571964E1;2.091335297E0
2.777869361E1;-4.868608952E0;1.289277649E1;4.125209332E0
2.778881561E1;-3.908534288E0;1.232415295E1;3.954024076E0
2.780894461E1;-3.313575268E0;8.919598579E0;1.842338204E0
2.781896061E1;-2.735375404E0;7.554903507E0;6.703764796E-1
2.783842561E1;-1.820790410E0;5.827486992E0;2.319981337E0
2.785886861E1;-2.088941097E0;7.916428089E0;3.604470730E0
2.787824561E1;-1.713051319E0;1.020648193E1;2.619256735E0
2.788855961E1;-2.753331900E0;8.414422035E0;2.704250813E0
2.790886861E1;-2.664746523E0;5.664681435E0;2.458845139E0
2.792874761E1;-1.610100627E0;5.170278549E0;2.260126352E0
2.794918161E1;-7.398083210E-1;6.300341606E0;1.604115129E0
2.795925361E1;-8.427590132E-1;6.812700748E0;1.083376288E0
2.797849261E1;-1.310825467E0;7.851784706E0;-9.026140571E-1
2.798868361E1;-2.069787264E0;8.522160530E0;-1.596932530E0
2.800957661E1;-4.617218018E0;8.419210434E0;-1.507149935E0
2.802851461E1;-5.646724701E0;8.376114845E0;3.351882398E-1
2.804859661E1;-4.088099480E0;7.936778545E0;2.518700123E0
2.805960461E1;-4.207809448E0;7.539340973E0;2.949656487E0
2.807922161E1;-4.932055473E0;9.276334763E0;4.440047264E0
2.809850561E1;-3.835511208E0;1.086488724E1;3.245340347E0
2.810932961E1;-3.462015629E0;1.086129570E1;3.090914488E0
2.812242661E1;-3.239354849E0;1.105163479E1;2.519897223E0
2.813860161E1;-3.469198227E0;1.162983513E1;1.784877419E0
2.815873061E1;-2.090138197E0;9.379284859E0;1.187524080E0
2.816899461E1;-1.088164687E0;8.644265175E0;1.159990668E0
2.817946761E1;-3.184288144E-1;8.299500465E0;1.181538582E0
2.819165361E1;-8.595184088E-1;7.256825447E0;2.217030764E0
2.820443061E1;-3.326743364E0;6.327875137E0;4.260481834E0
2.821856461E1;-3.326743364E0;6.327875137E0;4.260481834E0
2.823850561E1;-6.836642742E0;1.091995430E1;3.687070608E0
2.824872161E1;-8.046912193E0;1.241633034E1;3.366247654E0
2.825913261E1;-8.722076416E0;1.443224812E1;3.647566319E0
2.827853861E1;-3.818751812E0;2.120305061E1;4.177882075E-1
2.828861861E1;-2.160767078E0;2.190335464E1;-3.143586874E0
2.830833361E1;-3.636792421E0;1.474229717E1;-6.211756229E0
2.831922761E1;-3.812766314E0;1.247498798E1;-5.182249546E0
2.833845761E1;-3.145981073E0;1.005205631E1;-2.327163935E0
2.834880661E1;-3.384204149E0;8.753201485E0;4.070143029E-2
2.836056361E1;-3.701435804E0;7.175422668E0;1.247379065E0
2.837347611E1;-6.057330370E-1;6.959944248E0;1.240196466E0
2.838856861E1;4.788403213E-2;7.431602001E0;2.460042238E0
2.839890561E1;-1.424549967E-1;7.976283073E0;3.518279314E0
2.840996061E1;-2.944868207E-1;9.056067467E0;2.777273893E0
2.842862961E1;-2.013523579E0;7.183802128E0;1.104924083E0
2.843869161E1;-3.256114244E0;6.518214226E0;5.135562420E-1
2.844894061E1;-3.720589399E0;6.358999729E0;5.051765442E-1
2.845989961E1;-3.570951939E0;5.998672485E0;1.041477680E0
2.847873061E1;-3.550601006E0;4.909310818E0;1.742978811E0
2.848891461E1;-3.299209833E0;4.483142853E0;1.705868721E0
2.850862561E1;-2.428917646E0;4.460397720E0;2.489969730E0
2.851866461E1;-1.868674397E0;4.657919407E0;3.110068083E0
2.853840261E1;-5.758054852E-1;5.522226334E0;4.783615112E0
2.854869261E1;3.208230138E-1;5.729324818E0;5.446808815E0
2.856850361E1;1.644816518E0;6.416460514E0;6.135141850E0
2.857891161E1;2.566584110E0;6.987477779E0;5.923254967E0
2.858990661E1;2.383427858E0;7.948749542E0;5.518634796E0
2.860880861E1;2.853888512E0;1.185967827E1;4.997896194E0
2.862864061E1;-1.857900500E0;1.712213326E1;5.185841084E0
2.863872561E1;-1.380257249E0;1.511818695E1;2.996343374E0
2.864880761E1;5.722141862E-1;1.296460247E1;8.480262756E0
2.866844161E1;4.674678802E0;1.497932339E1;1.820910072E1
2.868912261E1;-5.619191170E0;1.350928307E1;-5.386953831E0
2.870864361E1;-8.578424454E0;8.134300232E0;1.735796183E-1
2.872852761E1;-3.306392431E0;1.233253288E1;-1.963245422E-1
2.873926561E1;-8.164227605E-1;1.398094082E1;2.211045265E0
2.875947461E1;-3.034650564E0;1.006642151E1;5.683835030E0
2.877854161E1;-4.023456097E0;8.384494781E0;2.537853718E0
2.878874761E1;-4.511873245E0;8.140285492E0;1.640028208E-1
2.880909261E1;-6.277596951E0;9.630676270E0;3.066972494E0
2.882057361E1;-6.684611320E0;1.052371311E1;2.953247786E0
2.883553261E1;-4.772840977E0;1.030703831E1;1.675941229E0
2.884870061E1;-2.430114746E0;8.931569099E0;3.159149170E0
2.885940661E1;-2.485181332E0;7.753622055E0;4.150348663E0
2.887860361E1;-2.090138197E0;5.740098476E0;4.708197594E0
2.889841761E1;-1.576581836E0;6.096834660E0;5.295974255E0
2.890914661E1;-2.146401882E0;7.507019520E0;1.134851575E0
2.892860261E1;-2.120065689E0;1.058716011E1;1.501164436E0
2.893885861E1;-3.116053581E0;9.440337181E0;2.694674015E0
2.895968061E1;-3.139995575E0;5.580883980E0;1.857900500E0
2.897855461E1;-1.976413488E0;4.617218018E0;2.275688648E0
2.899895461E1;-1.121683478E0;6.083666325E0;1.499967337E0
2.901866361E1;-1.074996591E0;8.640673637E0;5.746084079E-2
2.902898661E1;-2.096123695E0;9.642647743E0;-5.530605912E-1
2.904853861E1;-4.660313606E0;9.397241592E0;-8.978256583E-1
2.906854061E1;-4.789600372E0;9.071630478E0;8.463503122E-1
2.907870661E1;-3.925293684E0;9.270348549E0;1.735796213E0
2.908933361E1;-3.518279314E0;8.707711220E0;2.117671490E0
2.910930661E1;-3.973177671E0;7.765593052E0;3.525461912E0
2.912021861E1;-4.389768600E0;8.540117264E0;4.249708176E0
2.913871161E1;-3.287238836E0;1.064102936E1;4.168305397E0
2.914935961E1;-3.110068083E0;1.115697956E1;3.374627352E0
2.915970961E1;-3.336320162E0;1.100255394E1;2.685097218E0
2.917862461E1;-3.263296843E0;1.110550499E1;1.476025343E0
2.919850061E1;-2.422932148E0;9.022548676E0;1.173158884E0
2.920940461E1;5.901707411E-1;7.466318130E0;7.541735172E-1
2.922857061E1;5.015852451E-1;7.132327080E0;1.672349930E0
2.924863061E1;-2.495955229E0;5.379771233E0;2.695871115E0
2.925884661E1;-4.052186489E0;5.515043736E0;3.749319792E0
2.927881061E1;-6.688202381E0;1.071884060E1;4.141968727E0
2.929857461E1;-9.362525940E0;1.755428696E1;3.508702517E0
2.930892661E1;-8.361749649E0;2.051711082E1;2.767697096E0
2.931918961E1;-5.196614742E0;2.296039391E1;3.172317147E-1
2.933852961E1;-2.449268341E0;1.924818420E1;-4.228160381E0
2.935910761E1;-1.381454349E0;1.322916126E1;-7.125144482E0
2.937871561E1;-1.575384736E0;1.062187576E1;-3.416525841E0
2.939855261E1;-2.357091665E0;7.539340973E0;1.819593310E0
2.940858861E1;-1.429338455E0;6.445190907E0;1.966836691E0
2.942876261E1;-6.775590777E-1;7.931990147E0;3.582922935E0
2.944926961E1;-9.169792533E-1;8.796297073E0;3.585317135E0
2.946913161E1;-2.647987127E0;7.052121162E0;1.780089021E0
2.948842861E1;-3.396175146E0;5.934029102E0;7.733271718E-1
2.950900561E1;-3.232172251E0;4.989516258E0;2.096123695E0
2.951937761E1;-3.349488258E0;4.578910828E0;2.474407434E0
2.952939761E1;-3.128024578E0;4.458003521E0;2.341529369E0
2.954855261E1;-2.925714493E0;4.159925461E0;2.700659513E0
2.955863561E1;-2.820369720E0;4.322731018E0;3.131615877E0
2.956874561E1;-2.420537949E0;4.641160011E0;3.493140221E0
2.958919661E1;-1.395819545E0;5.371391296E0;5.206191540E0
2.960929161E1;9.971849918E-1;5.846640587E0;5.373785496E0
2.962859361E1;1.511938334E0;8.232462883E0;4.909310818E0
2.963937161E1;6.093243361E-1;1.035492229E1;5.234921932E0
2.965869761E1;2.300827742E0;1.708621979E1;4.447229862E0
2.967884961E1;-1.235408068E0;1.744175911E1;1.824381709E0
2.969853961E1;-7.984662652E-1;1.176271248E1;9.742006302E0
2.970912261E1;2.786850691E0;1.352604294E1;1.932958794E1
2.972861861E1;-2.130839527E-1;1.720952225E1;7.607575893E0
2.973913061E1;-3.056198359E0;1.494340992E1;-6.392518282E-1
2.975901561E1;-8.353369713E0;8.327033043E0;-1.702277422E0
2.977870061E1;-1.723825186E-1;1.088643551E1;1.272518158E0
2.978885161E1;-4.357447028E-1;1.238161373E1;3.305195332E0
2.980915561E1;-3.608062029E0;8.651448250E0;4.981136799E0
2.982847161E1;-4.958391666E0;8.265981674E0;1.722628117E0
2.983894361E1;-5.768828869E0;9.425971985E0;9.409212470E-1
2.985861661E1;-7.827842236E0;1.277546024E1;2.133233786E0
2.986950561E1;-6.937199593E0;1.255279922E1;3.689464808E0
2.988844461E1;-1.881842494E0;1.034534550E1;2.820369720E0
2.989861961E1;-1.771709204E0;8.945934296E0;2.564189911E0
2.990924861E1;-1.965639591E0;7.528567314E0;2.351106167E0
2.992866561E1;-1.920149803E0;5.239710331E0;2.689885616E0
2.994870761E1;-1.821987510E0;7.279570103E0;3.174711466E0
2.996930961E1;-2.126051188E0;9.458293915E0;3.405751944E0
2.998891561E1;-3.288435936E0;6.684611320E0;2.260126352E0
2.999892661E1;-2.652775526E0;4.565742493E0;1.630451322E0
3.001842861E1;-1.772906303E0;5.485116005E0;1.489193439E0
3.002849661E1;-1.272518158E0;5.961562157E0;1.368286252E0
3.003855761E1;-1.022324085E0;6.545747280E0;1.133654475E0
3.005853061E1;-1.312022567E0;8.194155693E0;-5.482721925E-1
3.007028261E1;-2.351106167E0;8.823830605E0;-1.377863050E0
3.008873861E1;-4.452018261E0;8.173804283E0;-1.089361787E0
3.010899961E1;-4.687847137E0;8.944737434E0;5.626373887E-1
3.012176861E1;-4.467580318E0;9.476250648E0;1.586158633E0
3.014905361E1;-4.386177540E0;7.716512203E0;3.709815502E0
3.016006761E1;-4.542997837E0;8.447940826E0;3.915716887E0
3.017021861E1;-3.476380825E0;1.090080070E1;3.298012733E0
3.018862661E1;-3.525461912E0;1.155322075E1;2.856282711E0
3.019925461E1;-3.424905539E0;1.219606304E1;1.732204914E0
3.021920061E1;-3.532644510E0;1.125035381E1;2.669534981E-1
3.023842961E1;-1.187524080E0;9.554061890E0;4.548983276E-1
3.024917961E1;-4.381389022E-1;8.328230858E0;6.584054977E-2
3.026848661E1;3.112462163E-2;7.362170219E0;6.452373862E-1
3.027860961E1;-1.309628367E0;6.842628479E0;2.227804661E0
3.028879161E1;-3.047818661E0;6.600813866E0;3.248931646E0
3.030931561E1;-5.883750439E0;7.196970463E0;4.183867455E0
3.032892261E1;-7.797914982E0;9.895236015E0;2.786850691E0
3.034864861E1;-8.485051155E0;1.496495819E1;3.481169224E0
3.035889761E1;-6.189011574E0;1.889982796E1;1.918952703E0
3.037887561E1;-9.756371975E-1;2.248275185E1;-2.705447912E0
3.039850161E1;-1.995567083E0;1.176750088E1;-6.080075264E0
3.040894761E1;-1.132457376E0;1.011310768E1;-5.408501625E0
3.041915861E1;-7.972691655E-1;9.312247276E0;-3.778050184E0
3.043871761E1;-3.447650373E-1;6.976703644E0;-5.985504389E-2
3.044899261E1;-1.149216816E-1;6.524199486E0;9.959878922E-1
3.046906261E1;-5.458779931E-1;7.240066051E0;3.515885115E0
3.047934061E1;4.584896266E-1;8.570044518E0;4.999093056E0
3.049861961E1;-7.793126702E-1;7.845798969E0;4.571728230E0
3.050899661E1;-2.511517525E0;6.851007938E0;2.997540474E0
3.052848061E1;-3.948038578E0;5.989095688E0;8.403648138E-1
3.054906561E1;-3.825934410E0;5.682637691E0;1.731007814E0
3.055929361E1;-3.828328609E0;5.297171116E0;2.337938070E0
3.057923061E1;-3.542221308E0;5.031414986E0;3.011905670E0
3.059853861E1;-1.711854219E0;4.975151062E0;4.197035789E0
3.060905261E1;-7.817068696E-1;5.100846767E0;5.005078793E0
3.062953261E1;8.870517015E-1;5.000290394E0;6.038176537E0
3.064890661E1;2.511517525E0;5.273229122E0;6.244078159E0
3.066874561E1;2.249352455E0;7.665036678E0;4.699818134E0
3.068846661E1;3.406949043E0;1.221282291E1;4.361038208E0
3.070821861E1;-1.097741485E0;1.808939171E1;4.141969085E-1
3.071874161E1;-3.196259260E0;1.747408104E1;1.966836691E0
3.073847761E1;-3.627215624E-1;1.258990955E1;1.407192039E1
3.074919761E1;4.531026840E0;1.521634865E1;2.146042633E1
3.076861561E1;-1.252167463E0;1.677138329E1;4.345476151E0
3.078881961E1;-8.995016098E0;7.900865555E0;-4.614823818E0
3.079898461E1;-4.960785866E0;1.069849014E1;-3.561375141E0
3.080915161E1;-9.564836025E-1;1.388517284E1;3.007117271E0
3.082870261E1;-3.183091164E0;1.167771912E1;4.241328239E0
3.084917861E1;-4.586093426E0;8.752004623E0;2.831143618E0
3.086897161E1;-5.222950935E0;8.185775757E0;1.227028370E0
3.088854661E1;-7.035361767E0;1.065898609E1;2.938882589E0
3.089857861E1;-6.809109688E0;1.176391029E1;2.485181332E0
3.090881561E1;-4.783615112E0;1.197579670E1;2.256535053E0
3.091884061E1;-2.849100113E0;1.062786102E1;2.658761024E0
3.093857661E1;-2.477998734E-1;7.910442352E0;3.110068083E0
3.094860861E1;-5.913678408E-1;6.661866188E0;3.402160645E0
3.095979161E1;-1.170764685E0;5.453991413E0;4.231751442E0
3.097854661E1;-3.280056238E0;6.698976517E0;7.422025204E-1
3.098856761E1;-3.287238836E0;8.597578049E0;2.126051188E0
3.099864761E1;-3.526659012E0;9.279925346E0;3.536235809E0
3.100872261E1;-4.873397350E0;7.066486359E0;3.052607059E0
3.102832561E1;-3.266888142E0;4.649539471E0;3.572149038E0
3.103869861E1;-2.633621931E0;4.309563160E0;2.924517393E0
3.105924361E1;-1.559822440E0;5.367800236E0;1.362300754E0
3.107949361E1;-1.741781712E0;6.604405403E0;5.626373887E-1
3.109855861E1;-2.390610456E0;8.723274231E0;-1.504755735E0
3.110920761E1;-3.979163170E0;8.792705536E0;-1.974019289E0
3.112859161E1;-5.670666695E0;8.459911346E0;-1.503558636E0
3.113926761E1;-5.161899090E0;8.840589523E0;-1.915361360E-2
3.115959361E1;-4.013879299E0;8.092401505E0;1.770512104E0
3.117860061E1;-4.240131378E0;8.113949776E0;4.041412354E0
3.118866961E1;-4.179079056E0;8.593987465E0;4.758475780E0
3.120876361E1;-3.681085110E0;1.036210537E1;3.505111217E0
3.122852861E1;-3.580528736E0;1.104564953E1;2.488772631E0
3.123904161E1;-3.181894064E0;1.210388660E1;1.912967205E0
3.125951561E1;-2.967612982E0;1.228464890E1;1.227028370E0
3.127853261E1;-1.119289279E0;9.490615845E0;3.028665185E-1
3.128970161E1;-4.297592044E-1;8.493430138E0;6.069301367E-1
3.130912461E1;-2.310404629E-1;6.596025467E0;9.121908545E-1
3.131916561E1;-1.233013868E0;5.857414246E0;1.906981707E0
3.132918661E1;-2.816778183E0;5.453991413E0;2.657563925E0
3.134890361E1;-6.585251808E0;5.986701488E0;2.758120298E0
3.136928761E1;-7.905653954E0;1.167053604E1;2.005143881E0
3.138857461E1;-7.538144112E0;1.786313820E1;3.301604033E0
3.139913861E1;-4.973954201E0;2.151788712E1;1.177947283E0
3.140936961E1;-1.437718153E0;2.403898239E1;-1.553836942E0
3.142853161E1;-1.742978811E0;1.783799934E1;-6.167463779E0
3.143909361E1;-2.215833664E0;1.426465416E1;-6.925228596E0
3.145984461E1;-4.896142483E-1;1.014542961E1;-3.453635931E0
3.147850061E1;-1.412579060E0;6.660669327E0;1.224634171E0
3.148853461E1;-1.570596337E0;5.392939091E0;2.013523579E0
3.149880561E1;-2.370259613E-1;5.702988625E0;1.701080322E0
3.150886561E1;6.775590777E-1;7.297526836E0;3.089717388E0
3.152941261E1;-5.386953801E-2;9.068038940E0;4.924872875E0
3.154889861E1;-1.237802267E0;8.227674484E0;3.639186621E0
3.156854861E1;-4.165910721E0;6.022614479E0;9.169792533E-1
3.157857761E1;-3.924096584E0;5.716156483E0;1.424550056E0
3.158928261E1;-3.418920040E0;5.489904404E0;2.152387381E0
3.160955661E1;-2.877830505E0;4.752490520E0;2.310404539E0
3.162869761E1;-1.918952703E0;4.509479046E0;3.186682463E0
3.163887661E1;-1.454477549E0;4.553771496E0;3.927687883E0
3.165946361E1;-9.576806426E-2;5.249287128E0;5.019443989E0
3.167853261E1;1.021126986E0;5.281609058E0;6.123170853E0
3.169887261E1;2.135627985E0;6.214150429E0;6.303933144E0
3.171851561E1;2.012326479E0;9.235632896E0;4.872200489E0
3.172885861E1;2.460042238E0;1.114381218E1;4.375403404E0
3.173904361E1;1.661576033E0;1.369004536E1;2.584540844E0
3.175871961E1;-2.115277290E0;1.568321800E1;-3.558980942E0
3.176905161E1;-2.861070931E-1;1.258990955E1;5.603629112E0
3.178897861E1;7.104793549E0;1.415332317E1;2.323572731E1
3.180863461E1;-2.358288765E0;1.431972027E1;-4.739322186E0
3.182886561E1;-9.193734169E0;1.044949341E1;-1.969230890E0
3.184862561E1;-5.425261021E0;1.461181259E1;2.316390038E0
3.185893261E1;-2.054224968E0;1.597650814E1;2.784456491E0
3.187887661E1;-3.092111588E0;1.110071659E1;6.161478043E0
3.189854061E1;-4.410119534E0;7.264008045E0;1.705868721E0
3.190917661E1;-4.820724964E0;6.392518520E0;2.849099934E-1
3.192886961E1;-6.874950409E0;7.592013359E0;3.019088268E0
3.194900561E1;-5.889736176E0;1.218050098E1;3.708618402E0
3.196873661E1;-3.700238705E0;1.032858658E1;2.321178436E0
3.198155461E1;-2.870647907E0;8.716091156E0;2.614468336E0
3.199943761E1;-1.353921056E0;5.889736176E0;3.649960518E0
3.201867461E1;-1.710657120E0;5.784391403E0;3.883395195E0
3.202902561E1;-2.606088638E0;7.170634270E0;2.342726469E0
3.204904361E1;-3.819948912E0;8.294712067E0;3.150769472E0
3.205923861E1;-4.845864296E0;6.422446251E0;2.750937700E0
3.207857861E1;-2.643198729E0;5.165490150E0;2.892195702E0
3.208863961E1;-1.954865694E0;4.938041210E0;2.908955097E0
3.210942861E1;-1.238999367E0;6.142324448E0;1.703474522E0
3.212859761E1;-1.340752959E0;7.223306656E0;1.078587890E0
3.213889961E1;-1.604115129E0;8.002618790E0;6.081272364E-1
3.215062461E1;-2.171540976E0;8.831012726E0;-1.675941199E-1
3.216362261E1;-3.720589399E0;8.250418663E0;2.621650994E-1
3.217866261E1;-3.475183725E0;8.565256119E0;1.198297977E0
3.218889661E1;-3.139995575E0;8.965087891E0;2.117671490E0
3.220862961E1;-3.355473757E0;8.422801971E0;2.191891670E0
3.222868361E1;-4.517858505E0;8.000225067E0;3.446453333E0
3.224851461E1;-4.344278812E0;9.101557732E0;4.135983467E0
3.225894961E1;-3.508702517E0;9.909601212E0;4.082113743E0
3.227853661E1;-2.834734917E0;1.105043793E1;2.821566820E0
3.229867861E1;-3.476380825E0;1.151850414E1;1.794454217E0
3.230870161E1;-3.841496706E0;1.073320580E1;1.863885999E0
3.232945561E1;-1.708262920E0;8.090007782E0;1.735796183E-1
3.234853061E1;-1.029506698E-1;6.742072105E0;9.588778019E-1
3.235950961E1;-1.695094824E0;5.426458359E0;1.832761407E0
3.237991961E1;-4.619612217E0;4.495113850E0;3.805583715E0
3.239855261E1;-6.669048786E0;7.946355343E0;4.981136799E0
3.241116361E1;-7.735665798E0;1.156159973E1;3.962403774E0
3.242878361E1;-9.941922188E0;1.848563194E1;3.976768970E0
3.244881361E1;-3.597288132E0;2.286701965E1;-2.094926536E-1
3.245933161E1;-1.465251446E0;2.245282364E1;-2.199074268E0
3.247906661E1;-2.529474020E0;1.598608494E1;-5.079298973E0
3.248917661E1;-1.667561531E0;1.430415821E1;-6.238092422E0
3.250955661E1;-5.805938840E-1;1.098938560E1;-3.483563423E0
3.252885961E1;-1.313219666E0;7.450755596E0;6.272808313E-1
3.254868861E1;-3.603273630E-1;6.993463039E0;2.406172752E0
3.256854161E1;3.088520169E-1;9.203310966E0;4.071340084E0
3.258859861E1;-1.774103403E0;7.381323814E0;3.931279182E0
3.259918061E1;-3.711012602E0;5.669469833E0;3.120841980E0
3.261850261E1;-4.556165695E0;5.155913353E0;1.465251446E0
3.262991561E1;-4.168305397E0;5.456385612E0;1.985990286E0
3.264901761E1;-4.133589268E0;4.934449673E0;2.627636433E0
3.266938461E1;-4.056974888E0;3.974374771E0;2.184709072E0
3.268863761E1;-2.437297344E0;4.271255970E0;3.762487888E0
3.269867561E1;-1.338358760E0;4.588487625E0;4.102464676E0
3.270894861E1;-3.639186621E-1;4.985925198E0;4.842272758E0
3.272872361E1;1.034295082E0;5.540182590E0;5.610811710E0
3.274886361E1;2.620453835E0;7.626729488E0;4.582501888E0
3.275898061E1;1.496376038E0;9.527725220E0;3.988739967E0
3.276929661E1;4.967968464E-1;1.116775417E1;2.936488390E0
3.278833261E1;-6.919242740E-1;1.745971680E1;2.488772631E0
3.279927861E1;-3.450044632E0;1.752914810E1;4.525041103E0
3.282001461E1;-5.446808934E-1;1.441429138E1;7.884106159E0
3.283843661E1;6.095637321E0;1.199135876E1;2.095285606E1
3.284857561E1;9.218873978E0;1.280658531E1;2.052070236E1
3.285925361E1;4.226963043E0;1.390193176E1;1.219606304E1
3.287941361E1;-6.135141850E0;9.985017776E0;-1.811213613E0
3.289854161E1;-7.241262913E0;1.160709000E1;-1.016697788E1
3.290877461E1;-3.647566319E0;1.404917526E1;5.003881454E-1
3.291919461E1;-2.936488390E0;1.390672016E1;5.619191170E0
3.293911961E1;-3.149572372E0;7.996633530E0;5.341464043E0
3.295914061E1;-5.679046631E0;6.587646008E0;1.148019671E0
3.297851261E1;-6.858190536E0;8.317456245E0;-6.955155730E-1
3.298957961E1;-6.762422562E0;1.066137981E1;-7.206547260E-1
3.300910561E1;-8.294712067E0;1.329141045E1;7.341819286E0
3.301947361E1;-6.106411457E0;1.128985786E1;5.722142220E0
3.303851061E1;-2.286462545E0;7.815871239E0;2.553416014E0
3.304897161E1;-1.516726732E0;7.143100739E0;3.473986626E0
3.306887161E1;-9.145850539E-1;6.327875137E0;2.785653591E0
3.307922761E1;-1.562216640E0;6.071695328E0;1.212663174E0
3.309885461E1;-2.738966703E0;7.654263020E0;4.408922195E0
3.310933661E1;-3.314772367E0;8.270770073E0;4.157531261E0
3.312990461E1;-3.355473757E0;6.330269337E0;2.294842243E0
3.314856561E1;-1.900996208E0;5.960365295E0;2.141613483E0
3.316054261E1;-1.116895080E0;6.335057735E0;1.381454349E0
3.317887461E1;-6.524199843E-1;7.110779285E0;1.218648672E0
3.319858961E1;-1.157596469E0;8.632294655E0;9.014169574E-1
3.320885861E1;-1.508347034E0;9.217676163E0;7.912836671E-1
3.322895361E1;-3.745728493E0;8.573636055E0;5.183446407E-1
3.323948461E1;-4.576516628E0;8.122329712E0;1.078587890E0
3.325916361E1;-4.116829872E0;8.784325600E0;2.481590033E0
3.326935361E1;-3.406949043E0;8.875306129E0;2.995146275E0
3.328848761E1;-3.531447411E0;6.792350292E0;3.307589531E0
3.330850761E1;-4.088099480E0;8.054094315E0;2.964021683E0
3.331883561E1;-3.695450306E0;9.876082420E0;2.694674015E0
3.333851761E1;-3.031059265E0;1.176869869E1;3.318363667E0
3.335854661E1;-4.009090900E0;1.136168385E1;2.882618904E0
3.336876761E1;-3.469198227E0;9.734824181E0;2.054224968E0
3.337893061E1;-1.837549806E0;8.397662163E0;9.265560508E-1
3.339897961E1;-1.436521020E-2;7.204153061E0;3.399766386E-1
3.341856061E1;-1.189918280E0;6.151901245E0;1.413776159E0
3.342892761E1;-2.722207308E0;5.537788391E0;2.292448044E0
3.344853861E1;-6.088454723E0;6.232107162E0;3.718195200E0
