"Time (s)";"Gyroscope x (rad/s)";"Gyroscope y (rad/s)";"Gyroscope z (rad/s)"
7.517875000E-2;-1.043235511E-1;6.010912359E-3;2.027706057E-1
9.603875000E-2;8.076861501E-2;1.385686696E-1;1.850555092E-1
1.149337500E-1;3.984064236E-2;1.324600130E-1;2.064357996E-1
1.249807500E-1;-4.079357162E-2;6.343224645E-2;2.204857022E-1
1.450107500E-1;-1.800708473E-1;-5.385388434E-2;1.997162849E-1
1.648677500E-1;-2.564289868E-1;-1.094426140E-1;1.648969650E-1
1.749987500E-1;-2.759766877E-1;-1.332663596E-1;1.722273380E-1
1.950197500E-1;-2.191662192E-1;-8.928406239E-2;1.618426293E-1
2.176947500E-1;-2.919927239E-3;3.227812052E-2;9.098227322E-2
2.352247500E-1;-7.011510432E-2;1.257404983E-1;1.551231146E-1
2.548287500E-1;-1.489167213E-1;1.721662581E-1;3.609847128E-1
2.648557500E-1;-1.421972066E-1;8.725599200E-2;3.444913626E-1
2.750067500E-1;-1.501384526E-1;-6.362772733E-2;3.060068488E-1
2.851527500E-1;-1.556362361E-1;-1.919094324E-1;2.663006186E-1
3.049557500E-1;-1.116539389E-1;-2.511633635E-1;1.838337779E-1
3.150427500E-1;-9.149538726E-2;-1.552575231E-1;1.826120466E-1
3.349377500E-1;-7.316942513E-2;-1.015013680E-1;3.414370418E-1
3.459017500E-1;-7.011510432E-2;-8.195368201E-2;4.135191441E-1
3.653637500E-1;-2.246640176E-1;2.167594135E-1;4.984293878E-1
3.761417500E-1;-3.779911995E-1;2.967827618E-1;5.369139314E-1
3.949907500E-1;-5.551421046E-1;-8.867319673E-2;4.080213308E-1
4.151417500E-1;-7.420668602E-1;-5.596503019E-1;3.762563467E-1
4.348507500E-1;-8.214793801E-1;-8.082724214E-1;6.743586063E-1
4.450527500E-1;-6.614326835E-1;-7.062579393E-1;7.598797083E-1
4.649067500E-1;6.549698114E-2;-4.350337982E-1;8.356270194E-1
4.750067500E-1;4.778310061E-1;-4.490837157E-1;7.598797083E-1
4.956507500E-1;5.535783172E-1;1.239079013E-1;4.843795002E-1
5.149427500E-1;5.407501459E-1;1.150869951E-2;3.133372366E-1
5.348937500E-1;-7.255856693E-2;-5.535416007E-1;4.110756814E-1
5.449327500E-1;-6.504371166E-1;-6.109629869E-1;5.430225730E-1
5.648997500E-1;-1.070101500E0;-6.653299928E-1;7.519384623E-1
5.749597500E-1;-8.123163581E-1;-6.714386344E-1;8.111923933E-1
5.850897500E-1;-4.164757133E-1;-6.769363880E-1;8.606724739E-1
6.049057500E-1;2.121046484E-1;-3.098064363E-1;8.759441376E-1
6.150077500E-1;3.361102939E-1;3.838676959E-2;8.857179880E-1
6.250477500E-1;4.143010378E-1;6.358129978E-1;8.001968265E-1
6.351517500E-1;4.069706500E-1;1.076246738E0;7.366668582E-1
6.551097500E-1;-4.519058764E-1;2.156256676E0;4.006909728E-1
6.757287500E-1;-2.100032419E-1;1.418942213E0;-5.501452088E-2
6.953337500E-1;4.588941932E-1;9.168109894E-1;6.043900549E-2
7.149577500E-1;6.042801142E-1;6.248174310E-1;7.140648365E-1
7.253807500E-1;2.634173036E-1;5.643417835E-1;1.050040603E0
7.449707500E-1;-9.509828091E-1;1.120839953E0;1.664571047E0
7.649137500E-1;-2.238686562E0;1.443376780E0;2.236951828E0
7.749947500E-1;-2.414005041E0;1.646794915E0;2.344464064E0
7.949837500E-1;-1.169061661E0;8.172399998E-1;-1.185445115E-1
8.151917500E-1;2.640281916E-1;-7.160317898E-1;7.372776866E-1
8.349037500E-1;4.759984016E-1;-2.004615515E-1;1.392406225E-1
8.450087500E-1;5.541891456E-1;-3.947166800E-1;-8.067086339E-2
8.649387500E-1;2.334849238E-1;-6.146281362E-1;-3.512841463E-1
8.750107500E-1;-6.950423867E-2;-5.908043981E-1;-5.290459394E-1
8.949117500E-1;-4.665666521E-1;-1.056283832E0;-7.532334924E-1
9.049407500E-1;-4.323582053E-1;-1.401422620E0;-6.432777643E-1
9.151707500E-1;-1.470841169E-1;-1.973192573E0;-4.380270243E-1
9.349457500E-1;1.305553436E0;-3.825335741E0;-4.783441424E-1
9.450037500E-1;2.274385929E0;-4.805163860E0;-5.931867957E-1
9.650677500E-1;2.150380135E0;-5.472228527E0;-5.394306779E-1
9.849287500E-1;8.009787202E-1;-3.437436342E0;-7.953832150E-1
9.951797500E-1;-8.111067861E-2;-1.486332893E0;-8.509719372E-1
1.014916750E0;-8.483574390E-1;9.913365245E-1;1.129734218E-1
1.025181750E0;-7.530624270E-1;1.172763467E0;4.581122994E-1
1.044942750E0;-5.184901953E-1;1.377403378E0;8.136358857E-1
1.064979750E0;-1.360885501E-1;8.209051490E-1;1.150222540E0
1.075065750E0;1.235170662E-2;3.047240078E-1;1.329816937E0
1.096012750E0;-4.764646292E-4;-1.106985569E0;1.640136480E0
1.114932750E0;-8.465248346E-1;-1.389205337E0;2.011542559E0
1.124969750E0;-1.416462064E0;-6.958732009E-1;2.366455317E0
1.134969750E0;-1.816578865E0;1.334129460E-2;2.585144997E0
1.144980750E0;-1.919815063E0;2.311513759E-2;2.373785734E0
1.155072750E0;-1.774429083E0;-1.082208902E-1;1.902808547E0
1.166690750E0;-1.469607353E0;-8.345396519E-1;1.451990008E0
1.184966750E0;-7.103018761E-1;-2.016563892E0;1.064090610E0
1.205236750E0;2.279871404E-1;-2.510753870E0;1.395179510E0
1.224959750E0;6.513167620E-1;-3.060532570E0;1.562556624E0
1.244923750E0;-3.651751578E-2;-2.121021748E0;1.712218523E0
1.265069750E0;-9.259372950E-1;-1.147913575E0;1.876541376E0
1.275076750E0;-1.202048421E0;-1.080107570E0;2.068963766E0
1.294903750E0;-1.275963068E0;-1.811924100E0;2.301092625E0
1.314898750E0;-7.909361124E-1;-3.330534935E0;2.456863403E0
1.324907750E0;-3.621087074E-1;-3.891309261E0;2.313920736E0
1.334942750E0;1.455203295E-1;-4.114275455E0;1.841111183E0
1.344978750E0;6.030583978E-1;-4.027532578E0;1.240630627E0
1.365466750E0;7.368378639E-1;-3.474699259E0;7.543819547E-1
1.375888750E0;4.234640002E-1;-3.308543921E0;8.747223616E-1
1.395069750E0;-3.224024475E-1;-3.193090200E0;1.183820128E0
1.414892750E0;3.189939633E-2;-3.077636719E0;1.135561824E0
1.424952750E0;4.845505357E-1;-3.084356308E0;1.074475288E0
1.444962750E0;1.048379183E0;-3.245624781E0;1.384794831E0
1.464894750E0;8.645087481E-1;-3.207140207E0;1.911360621E0
1.475462750E0;5.364741087E-1;-2.830847263E0;2.183195591E0
1.495384750E0;-3.621087074E-1;-1.783824325E0;2.553990841E0
1.505419750E0;-8.508008718E-1;-1.257258415E0;2.699987650E0
1.525186750E0;-1.154400945E0;-9.738169312E-1;2.842930079E0
1.545042750E0;-5.472008586E-1;-2.066654682E0;2.981596470E0
1.564898750E0;-2.765875459E-1;-2.850394964E0;3.196010351E0
1.574908750E0;-5.581964254E-1;-2.683628559E0;3.186847210E0
1.584971750E0;-9.027244449E-1;-2.244416475E0;2.852093220E0
1.595043750E0;-9.729739428E-1;-1.829639196E0;1.166105032E0
1.605062750E0;-8.599759638E-2;-1.408753037E0;3.121154904E-1
1.624943750E0;1.113130927E0;-1.184565544E0;-7.715594172E-1
1.635238750E0;1.468654394E0;-1.016577601E0;-1.014683843E0
1.654864750E0;1.763091445E0;-7.331359982E-1;-1.065385699E0
1.665231750E0;1.819291115E0;-6.066868901E-1;-1.042783618E0
1.688665750E0;2.059361219E0;-5.388808846E-1;-1.094096303E0
1.704910750E0;2.278661966E0;-8.192679882E-1;-1.277966738E0
1.714920750E0;2.306761742E0;-1.009858012E0;-1.317062140E0
1.724935750E0;2.362961292E0;-1.251149774E0;-1.305455685E0
1.744930750E0;2.595090151E0;-1.870567203E0;-1.366542220E0
1.754955750E0;2.683054686E0;-2.186995268E0;-1.400139809E0
1.765025750E0;2.780793190E0;-2.546184063E0;-1.400139809E0
1.784879750E0;3.084393024E0;-3.321982861E0;-1.439846039E0
1.795192750E0;3.398988724E0;-3.959115267E0;-1.555910468E0
1.815014750E0;3.372721434E0;-4.133822918E0;-1.611499190E0
1.835144750E0;2.868146896E0;-3.872372389E0;-1.337831616E0
1.854924750E0;2.090515375E0;-3.176596880E0;-7.868310809E-1
1.874903750E0;1.519356251E0;-2.461884499E0;-7.822740078E-2
1.885034750E0;1.347092271E0;-2.114302158E0;2.913460732E-1
1.904895750E0;1.175439119E0;-1.522984862E0;1.078751326E0
1.924922750E0;8.101416826E-1;-9.255585670E-1;1.983442783E0
1.935074750E0;5.065416694E-1;-6.140173078E-1;2.450143814E0
1.945106750E0;1.210857183E-1;-2.792631686E-1;2.940668583E0
1.964924750E0;-7.194648385E-1;3.584801555E-1;3.954705000E0
1.984893750E0;-1.294899940E0;6.920126081E-1;4.993175983E0
2.005017750E0;-1.373701572E0;4.348382950E-1;6.343188286E0
2.025456750E0;-1.211822271E0;5.060407519E-2;6.589366913E0
2.044881750E0;-6.431066990E-1;-2.902587354E-1;5.967505932E0
2.055034750E0;-3.052982390E-1;-2.786523104E-1;5.443994522E0
2.074945750E0;1.565158963E-1;9.676104411E-3;4.655367374E0
2.094897750E0;2.976257801E-1;2.051529735E-1;4.809305668E0
2.104906750E0;2.475348115E-1;3.316020966E-1;5.026162624E0
2.115238750E0;1.675114781E-1;4.348382950E-1;5.117792606E0
2.134901750E0;5.816659704E-2;4.299513996E-1;4.544800758E0
2.144924750E0;4.289497063E-2;4.055167735E-1;3.766558409E0
2.164882750E0;7.771427929E-2;4.476664662E-1;1.645634294E0
2.175216750E0;-1.880242303E-2;5.417397618E-1;6.939062476E-1
2.195038750E0;-8.453031182E-1;1.194143772E0;-7.043642402E-1
2.214914750E0;-1.396914363E0;1.766524553E0;-8.289808035E-1
2.225060750E0;-1.567956686E0;2.077455044E0;-8.442524076E-1
2.244916750E0;-1.702347040E0;2.684655190E0;-9.878057241E-1
2.265084750E0;-1.801918030E0;2.957101107E0;-1.167400241E0
2.284943750E0;-1.811081052E0;2.717031002E0;-1.227265000E0
2.295127750E0;-1.592391253E0;2.414041758E0;-1.260251760E0
2.314898750E0;-8.398053050E-1;1.494689465E0;-1.414189696E0
2.324934750E0;-3.786020577E-1;9.833953381E-1;-1.515593410E0
2.334963750E0;8.504466712E-2;4.751554132E-1;-1.624327421E0
2.345177750E0;4.845505357E-1;3.411071002E-2;-1.718400598E0
2.365025750E0;9.023823738E-1;-4.136535227E-1;-1.856456161E0
2.386165750E0;6.910229921E-1;-2.749871016E-1;-1.722065806E0
2.404928750E0;4.533964097E-1;6.893003732E-2;-1.615775228E0
2.424921750E0;8.052548170E-1;2.259223908E-1;-1.816139102E0
2.444957750E0;1.534627914E0;-4.591263086E-2;-2.930968046E0
2.455113750E0;1.935966372E0;-3.977710307E-1;-3.802672863E0
2.474930750E0;2.388006687E0;-1.043455601E0;-4.906506062E0
2.484973750E0;2.524840593E0;-1.351942539E0;-4.805102348E0
2.504932750E0;2.956111431E0;-1.844910860E0;-4.233332634E0
2.524910750E0;2.813779831E0;-8.901283741E-1;-4.193015575E0
2.535231750E0;2.259725094E0;-9.600358456E-2;-4.285256386E0
2.545470750E0;1.450328469E0;6.486411691E-1;-4.363446712E0
2.564928750E0;2.573086619E-1;1.388398886E0;-4.196069717E0
2.575042750E0;3.373320103E-1;1.145885468E0;-3.607806921E0
2.594924750E0;2.125334740E0;-1.945703626E0;-2.943185568E0
2.604954750E0;2.540723085E0;-2.552292585E0;-3.036647797E0
2.624957750E0;2.397169828E0;-1.971970797E0;-3.240066051E0
2.645078750E0;1.336096644E0;-9.157847166E-1;-2.004285574E0
2.664929750E0;8.803912401E-1;9.947329760E-2;-8.387545943E-1
2.674954750E0;1.201095462E0;2.363070995E-1;-5.766934156E-1
2.694918750E0;2.056306839E0;-5.767545104E-1;-2.901976407E-1
2.714929750E0;1.610375166E0;-9.231150746E-1;-1.716897935E-1
2.725005750E0;9.200974703E-1;-6.176824570E-1;-8.861210942E-2
2.735221750E0;1.461311877E-1;-2.096245289E-1;2.623055503E-2
2.754887750E0;-1.040779948E0;3.035022914E-1;2.302595377E-1
2.765137750E0;-1.343769193E0;3.774169683E-1;2.717984021E-1
2.784929750E0;-1.437231541E0;4.513316751E-1;2.791287899E-1
2.795444750E0;-1.547187328E0;5.869438052E-1;2.907352149E-1
2.818430750E0;-2.125676632E0;1.019436359E0;4.080213308E-1
2.834895750E0;-3.100006580E0;1.613197327E0;1.375020981E0
2.845144750E0;-3.774401903E0;1.897860527E0;1.960229874E0
2.864923750E0;-5.002851963E0;1.462313652E0;2.170978308E0
2.874941750E0;-4.803709984E0;5.337985158E-1;1.661516786E0
2.894915750E0;-2.582603693E0;-9.695408344E-1;6.043900549E-2
2.915153750E0;-3.590543568E-1;-4.753509164E-1;-1.040340185E0
2.935127750E0;-2.124467045E-1;2.778459489E-1;-9.743667245E-1
2.954883750E0;-1.040779948E0;6.211522222E-1;-5.565348864E-1
2.965275750E0;-1.536191702E0;7.329405546E-1;-3.091344535E-1
2.984865750E0;-2.220360756E0;1.175817847E0;5.494122207E-2
2.995003750E0;-2.003503561E0;1.279054046E0;2.867401578E-2
3.014889750E0;-1.065825462E0;1.247289062E0;-3.867143393E-1
3.024950750E0;-5.081054568E-1;1.139165878E0;-6.964229941E-1
3.044896750E0;3.831469119E-1;8.728287220E-1;-1.266360402E0
3.054994750E0;6.329907775E-1;8.001357317E-1;-1.505208611E0
3.075013750E0;9.066584110E-1;8.942090273E-1;-1.938923001E0
3.094912750E0;1.132678509E0;1.214302301E0;-2.012226820E0
3.114877750E0;1.524854064E0;1.396951079E0;-1.914488435E0
3.125000750E0;1.709946275E0;1.533784866E0;-1.929759979E0
3.144870750E0;2.018433332E0;1.731705189E0;-2.073313236E0
3.154909750E0;2.170538664E0;1.768357158E0;-2.292613983E0
3.175059750E0;2.643348455E0;1.597314835E0;-3.296265602E0
3.195107750E0;3.042854309E0;1.571658492E0;-3.267554998E0
3.215044750E0;2.968939543E0;1.894806266E0;-2.809406042E0
3.234857750E0;3.110049486E0;2.008427382E0;-2.533294916E0
3.244882750E0;3.088058233E0;1.395729303E0;-2.568114281E0
3.264872750E0;2.008659363E0;1.452881843E-1;-2.804518938E0
3.274952750E0;1.217588782E0;4.226210117E-1;-2.753817320E0
3.284954750E0;6.653666496E-1;9.632367492E-1;-2.437389135E0
3.304876750E0;4.802744985E-1;1.078079343E0;-1.405637622E0
3.314947750E0;7.380596399E-1;5.887764096E-1;-1.066607475E0
3.334847750E0;1.402070165E0;-4.026579559E-1;-9.810862541E-1
3.344909750E0;1.612207770E0;-6.806015968E-1;-9.468777776E-1
3.354960750E0;1.613429546E0;-7.832269669E-1;-7.837767601E-1
3.365010750E0;1.297001362E0;-5.798088312E-1;-2.358306348E-1
3.375026750E0;1.182158589E0;-3.647843003E-1;5.555208772E-2
3.394974750E0;1.118628621E0;2.192028761E-1;5.369139314E-1
3.406758750E0;1.096637487E0;4.928704798E-1;6.713042855E-1
3.424952750E0;1.065483332E0;7.329405546E-1;7.446081042E-1
3.434956750E0;1.067926884E0;5.735047460E-1;6.768020391E-1
3.454907750E0;1.163221836E0;-3.855537176E-1;2.876808941E-1
3.465539750E0;1.148561001E0;-8.907392621E-1;1.080864966E-1
3.484959750E0;6.873577833E-1;-1.444794059E0;1.618426293E-1
3.494976750E0;2.383718491E-1;-1.411807299E0;4.373428822E-1
3.516445750E0;-9.888564348E-1;-8.540873528E-1;1.372577548E0
3.534986750E0;-2.320542574E0;-1.414764114E-2;2.055524826E0
3.554894750E0;-3.420099974E0;5.173051357E-1;1.607149720E0
3.565144750E0;-3.048083067E0;-1.253593206E0;1.423279285E0
3.584924750E0;-1.819022298E0;-3.464925289E0;1.417170644E0
3.594930750E0;-1.749994516E0;-3.307932854E0;1.291943312E0
3.615118750E0;-2.767695904E0;-1.013523221E0;1.176489711E0
3.634950750E0;-2.738985300E0;1.856052876E-1;2.308704108E-1
3.654924750E0;-1.496485472E0;-6.298997998E-1;-7.184141874E-1
3.664943750E0;-1.003517151E0;-1.109429002E0;-9.022846222E-1
3.674959750E0;-8.110946417E-1;-1.279249549E0;-9.169453979E-1
3.685089750E0;-9.161634445E-1;-1.196782827E0;-7.917180061E-1
3.705041750E0;-1.642482281E0;-7.838378549E-1;-2.596543729E-1
3.725285750E0;-2.288777590E0;-3.971601427E-1;2.663006186E-1
3.744980750E0;-2.540454149E0;-3.064100258E-2;5.760092735E-1
3.764893750E0;-2.333370686E0;5.618982911E-1;6.682499647E-1
3.775050750E0;-2.228302002E0;6.486411691E-1;6.951280236E-1
3.794896750E0;-1.735333800E0;2.741807401E-1;7.232277989E-1
3.804939750E0;-1.240532875E0;2.616946585E-2;6.713042855E-1
3.825167750E0;-6.644991040E-2;-1.231504511E-2;3.530434668E-1
3.844927750E0;8.571783304E-1;2.595199943E-1;-1.930700690E-1
3.854927750E0;1.066094279E0;4.427795708E-1;-4.649050832E-1
3.864985750E0;1.122293830E0;6.303152442E-1;-6.719884276E-1
3.884997750E0;9.262061119E-1;1.012105942E0;-9.035063386E-1
3.895159750E0;8.186938167E-1;1.113509536E0;-9.603167772E-1
3.906455750E0;7.850962281E-1;1.045703530E0;-9.004520178E-1
3.924984750E0;8.987171650E-1;1.107400894E0;-5.119417310E-1
3.934995750E0;8.064765334E-1;1.471476555E0;-3.390668631E-1
3.945326750E0;5.987823606E-1;2.076844215E0;1.123625562E-1
3.965030750E0;1.728272200E0;1.322425485E0;-2.456044704E-1
3.984917750E0;3.606683016E0;-3.763907254E-1;-1.646318555E0
3.995031750E0;3.995804310E0;-5.126136541E-1;-2.179603815E0
4.014976750E0;3.390436649E0;5.182580650E-2;-2.237025261E0
4.025116750E0;2.789345264E0;3.108326495E-1;-1.905936241E0
4.045395750E0;1.838838816E0;1.856052876E-1;-1.128915668E0
4.064915750E0;1.668407440E0;-2.426112443E-1;-8.369220495E-1
4.074946750E0;1.873047233E0;-4.881790876E-1;-8.918998837E-1
4.094922750E0;2.485745192E0;-1.187619805E0;-8.485284448E-1
4.105007750E0;2.769186735E0;-1.380042315E0;-6.616036892E-1
4.115032750E0;2.924957275E0;-1.296964645E0;-3.744970262E-1
4.134861750E0;2.714208841E0;-6.250128746E-1;4.251255691E-1
4.145313750E0;1.995831132E0;-2.743762434E-1;1.710996866E0
4.164912750E0;6.067236066E-1;-1.106643453E-1;2.843540907E0
4.175001750E0;-2.356595844E-1;-1.781283319E-2;3.153860569E0
4.194948750E0;-1.605830312E0;-1.503705978E-1;3.367052555E0
4.205001750E0;-2.060313940E0;-4.362555444E-1;3.359722137E0
4.215110750E0;-2.346198797E0;-8.113267422E-1;3.294359684E0
4.234951750E0;-2.457376480E0;-1.377598882E0;3.150195360E0
4.244994750E0;-2.401176691E0;-1.464341760E0;3.151417017E0
4.265022750E0;-2.687672615E0;-8.840197325E-1;2.798336983E0
4.284940750E0;-4.339452267E0;7.243884802E-1;2.405550718E0
4.295147750E0;-5.244143486E0;1.327923298E0;2.834378004E0
4.315029750E0;-5.963131905E0;6.394782066E-1;3.676150322E0
4.325406750E0;-5.616771221E0;-2.151223123E-1;3.249155521E0
4.344976750E0;-1.347434282E0;-6.970949769E-1;3.286088705E-1
4.365126750E0;6.091670394E-1;1.831618249E-1;-7.452922463E-1
4.385545750E0;7.374487519E-1;7.659273148E-1;-1.020792484E0
4.405014750E0;2.340957820E-1;7.036190629E-1;-7.837767601E-1
4.424954750E0;-2.649811208E-1;4.458338916E-1;-4.746789336E-1
4.444936750E0;-6.394414902E-1;4.800423384E-1;-3.720535636E-1
4.464960750E0;-7.451211810E-1;6.920126081E-1;-3.555602133E-1
4.484973750E0;-4.525167644E-1;6.297043562E-1;-2.993606031E-1
4.504918750E0;-4.384789616E-2;4.525533915E-1;-2.187264115E-1
4.515010750E0;1.571267694E-1;3.981863856E-1;-1.832962334E-1
4.535420750E0;6.470406651E-1;4.140688777E-1;-2.413284332E-1
4.554871750E0;9.457538128E-1;5.295224786E-1;-4.313074946E-1
4.564885750E0;1.127180815E0;6.321477890E-1;-5.895215869E-1
4.575051750E0;1.352590084E0;7.421035767E-1;-7.898854017E-1
4.595012750E0;1.910310030E0;9.614042044E-1;-1.230319262E0
4.615149750E0;2.177869081E0;1.299823523E0;-1.667087913E0
4.634891750E0;1.873658061E0;1.993155599E0;-2.324989796E0
4.644942750E0;1.477206588E0;2.556984186E0;-2.579109669E0
4.664944750E0;1.723862812E-2;3.738397598E0;-1.473443627E0
4.684929750E0;-2.637593746E-1;3.620500565E0;5.020945668E-1
4.695057750E0;1.200484633E0;2.041414022E0;1.984945536E-1
4.705075750E0;3.426477671E0;-9.871583432E-3;-1.090431213E0
4.715354750E0;5.232806206E0;-1.910273433E0;-2.789247513E0
4.735299750E0;3.136316776E0;-1.149404049E-1;-3.654232502E0
4.755372750E0;8.205264211E-1;1.757361531E0;-2.495421171E0
4.775107750E0;3.855903745E-1;1.240569592E0;-1.947475076E0
4.794874750E0;1.066094279E0;-2.010724097E-1;-1.600503683E0
4.804991750E0;1.390463710E0;-6.616647840E-1;-1.381813884E0
4.824999750E0;1.626868486E0;-7.826160789E-1;-1.002466559E0
4.844881750E0;1.590216637E0;-4.985637963E-1;-2.889758945E-1
4.854886750E0;1.557840824E0;-3.299649656E-1;1.630643606E-1
4.865267750E0;1.471708775E0;-2.096245289E-1;4.959859252E-1
4.884919750E0;9.494189620E-1;-1.302120388E-1;6.028873324E-1
4.894949750E0;5.975605845E-1;-1.613661647E-1;5.558507442E-1
4.904966750E0;2.621955872E-1;-2.291722149E-1;5.344704390E-1
4.924971750E0;-3.743259907E-1;-4.496945739E-1;1.156331182E0
4.945087750E0;-3.706608117E-1;-6.983166933E-1;1.723214149E0
4.964939750E0;-6.015678644E-1;-1.042844772E0;2.162426233E0
4.975254750E0;-9.033352733E-1;-1.154633045E0;2.148376465E0
4.994945750E0;-1.757324934E0;-8.437026143E-1;1.874708772E0
5.014994750E0;-2.440882921E0;-1.021464467E0;2.696933270E0
5.025138750E0;-2.542286634E0;-1.565745354E0;3.585742235E0
5.036003750E0;-2.536788940E0;-2.102084875E0;4.177060127E0
5.055122750E0;-2.957064152E0;-1.736176848E0;3.511827707E0
5.074953750E0;-3.143988848E0;8.978741765E-1;1.137394428E0
5.094890750E0;-1.484879017E0;1.071970701E0;-6.725992560E-1
5.105239750E0;-4.262495339E-1;2.509678602E-1;-1.053168416E0
5.125120750E0;2.084394395E-1;-1.425246358E0;-7.758355141E-1
5.135364750E0;-2.515420914E-1;-1.343390465E0;-4.600181580E-1
5.155158750E0;-1.335827947E0;-6.665517092E-1;2.809613645E-1
5.175000750E0;-2.299773216E0;2.210354805E-1;8.887723088E-1
5.195113750E0;-2.729822159E0;8.196834326E-1;1.277893424E0
5.214966750E0;-2.347420692E0;9.400238991E-1;1.540565491E0
5.225203750E0;-1.895380497E0;8.557245135E-1;1.632806063E0
5.244922750E0;-5.997352600E-1;2.082073092E-1;1.398844719E0
5.264971750E0;7.350052595E-1;-5.969130397E-1;8.270748854E-1
5.284909750E0;1.708113670E0;-9.457170963E-1;1.636752337E-1
5.295011750E0;2.003161669E0;-7.930008173E-1;-2.248350680E-1
5.314891750E0;2.282327175E0;-7.462330163E-2;-1.136246085E0
5.325025750E0;2.296376944E0;6.345912814E-1;-1.331112027E0
5.344920750E0;2.080741644E0;1.234460831E0;-1.497267365E0
5.354995750E0;1.876712441E0;1.580210567E0;-1.432515740E0
5.365019750E0;1.654968381E0;2.115939617E0;-1.361655354E0
5.375069750E0;1.434445977E0;2.750017643E0;-1.386089921E0
5.398782750E0;1.052044392E0;3.590568304E0;-1.527810693E0
5.415339750E0;8.791694641E-1;3.046898127E0;-1.352492332E0
5.434942750E0;1.715443969E0;7.304971218E-1;-1.110589743E0
5.454923750E0;4.427074909E0;-7.642901540E-1;-1.428239703E0
5.464945750E0;5.160113335E0;-5.908043981E-1;-1.669531465E0
5.475252750E0;4.914545536E0;-8.195368201E-2;-1.972520590E0
5.494932750E0;2.472917080E0;9.253631234E-1;-2.152725935E0
5.504940750E0;1.078922391E0;1.386566281E0;-1.916320920E0
5.524927750E0;-8.416500688E-2;2.090283155E0;-9.432125688E-1
5.544942750E0;1.306775212E0;1.214913249E0;-7.336857915E-1
5.564913750E0;2.399002314E0;-1.583118439E-1;-7.336857915E-1
5.574996750E0;2.442984581E0;-5.675915480E-1;-6.707666516E-1
5.585151750E0;2.210855722E0;-7.099231482E-1;-5.388197899E-1
5.604903750E0;1.191932440E0;-3.238563240E-1;-1.164309122E-2
5.615012750E0;6.452081203E-1;2.983465604E-2;2.638571560E-1
5.625071750E0;2.127155066E-1;3.664214015E-1;5.057597756E-1
5.635096750E0;-7.133683562E-2;6.223739982E-1;7.091779113E-1
5.655191750E0;-2.093923837E-1;5.185268521E-1;9.993389249E-1
5.675083750E0;-1.348668188E-1;-3.281323910E-1;1.234521985E0
5.695128750E0;-3.614978194E-1;-1.372712016E0;1.538121939E0
5.714891750E0;-1.051164746E0;-1.465563536E0;1.773305058E0
5.724945750E0;-1.424403310E0;-1.119813800E0;1.275449872E0
5.745030750E0;-2.511132479E0;-4.735183120E-1;-2.401066869E-1
5.764975750E0;-3.285098791E0;-4.942877293E-1;6.975714564E-1
5.784902750E0;-4.019359112E0;-1.529093504E0;2.467858791E0
5.795037750E0;-4.422529697E0;-2.240751266E0;2.586366653E0
5.814879750E0;-4.696808338E0;-1.179067731E0;1.628530025E0
5.824918750E0;-4.335786819E0;1.355143338E-1;7.837034464E-1
5.834984750E0;-3.518449306E0;9.644585252E-1;-7.944913208E-2
5.854911750E0;-1.068268895E0;9.336464107E-2;-8.705196381E-1
5.875072750E0;4.246857464E-1;-1.656764269E0;-7.837767601E-1
5.895126750E0;2.200458944E-1;-2.428287029E0;-4.899505973E-1
5.914889750E0;-1.343769193E0;-2.014731169E0;4.403972030E-1
5.924905750E0;-1.783592105E0;-1.656153440E0;8.020294309E-1
5.934908750E0;-2.090857267E0;-1.268864870E0;1.143503070E0
5.945008750E0;-2.220360756E0;-9.047891498E-1;1.450768232E0
5.955046750E0;-2.180043459E0;-6.121847034E-1;1.698779583E0
5.974948750E0;-1.701736212E0;-3.379062116E-1;1.845387220E0
5.995150750E0;-8.459139466E-1;-3.788341880E-1;1.401898980E0
6.015282750E0;1.308595538E-1;-4.356446564E-1;4.678861499E-1
6.025470750E0;4.986004233E-1;-3.831102550E-1;-5.806884915E-2
6.046622750E0;8.248024583E-1;1.273043081E-2;-8.790717125E-1
6.065014750E0;8.089199662E-1;6.297043562E-1;-1.138078690E0
6.075111750E0;8.003678918E-1;9.717888832E-1;-1.091042042E0
6.094944750E0;7.490552068E-1;1.743311644E0;-9.554299116E-1
6.104994750E0;8.193047047E-1;2.510558605E0;-1.093485475E0
6.124982750E0;1.305553436E0;2.445195913E0;-1.839352012E0
6.135022750E0;1.618316412E0;1.889308453E0;-1.787428379E0
6.154862750E0;2.212688446E0;5.912198424E-1;-7.465139627E-1
6.164919750E0;2.558438063E0;4.183449447E-1;-5.247699022E-1
6.174986750E0;3.064234495E0;5.509027243E-1;-6.475538015E-1
6.195459750E0;4.289630413E0;1.183148146E0;-1.439846039E0
6.214883750E0;4.414246559E0;1.233850002E0;-1.766659021E0
6.224947750E0;3.959763050E0;1.272945404E0;-1.654870629E0
6.234961750E0;3.430753708E0;1.442765951E0;-1.387311697E0
6.255000750E0;2.796064854E0;1.478806973E0;-6.921469569E-1
6.265031750E0;2.777127981E0;1.101903081E0;-3.940447271E-1
6.284979750E0;2.920681238E0;-1.222707853E-1;9.403660148E-2
6.295000750E0;2.507125378E0;-7.587923408E-1;3.243328035E-1
6.305059750E0;2.110063076E0;-7.044253349E-1;2.461420447E-1
6.325007750E0;1.100913525E0;-3.061412275E-1;1.890017092E-2
6.345022750E0;1.259726435E-1;3.044552170E-2;-1.958433911E-2
6.364985750E0;-4.738970399E-1;1.410121322E-1;2.745228447E-2
6.375002750E0;-5.581964254E-1;6.770830601E-2;7.998669893E-2
6.385019750E0;-5.343726873E-1;-1.259359866E-1;1.728382111E-1
6.405034750E0;-5.038294196E-1;-7.361903191E-1;5.680680275E-1
6.425214750E0;-7.518407106E-1;-1.263367057E0;1.097688198E0
6.444926750E0;-1.257026315E0;-1.166239500E0;1.103185892E0
6.465015750E0;-1.966240883E0;-7.600140572E-1;6.132720709E-1
6.484994750E0;-2.454322100E0;-6.757146716E-1;9.810129404E-1
6.495133750E0;-2.519073725E0;-1.120424628E0;2.166702271E0
6.514906750E0;-2.506856441E0;-1.930431962E0;2.480687141E0
6.524944750E0;-2.652853251E0;-2.234031916E0;2.364011765E0
6.544929750E0;-2.965616226E0;-1.442961454E0;1.762920380E0
6.554938750E0;-2.991883516E0;-4.240382314E-1;1.286445498E0
6.575086750E0;-2.737152576E0;9.601824284E-1;2.516398430E-1
6.585098750E0;-2.451878548E0;1.029210210E0;-9.410990030E-2
6.604965750E0;-1.954634428E0;6.077132225E-1;-3.702209890E-1
6.614971750E0;-1.844067812E0;3.639779389E-1;-3.372342587E-1
6.634921750E0;-1.828185320E0;-8.928406239E-2;-3.424510360E-2
6.645237750E0;-1.853230715E0;-2.670458555E-1;1.685621440E-1
6.664971750E0;-1.741442442E0;-3.837211132E-1;4.471167326E-1
6.684909750E0;-1.095147014E0;-2.181766331E-1;6.047199368E-1
6.695123750E0;-8.330857754E-1;-1.069991589E-1;6.395392418E-1
6.714965750E0;-4.201408923E-1;1.593380868E-1;6.676390767E-1
6.725114750E0;-2.112249732E-1;2.521896064E-1;6.352632046E-1
6.744917750E0;3.550471067E-1;1.611706764E-1;4.471167326E-1
6.754950750E0;7.258422971E-1;6.404311210E-2;3.176132739E-1
6.774891750E0;1.395350575E0;8.969945461E-2;-2.752558701E-2
6.785726750E0;1.629312038E0;2.821219862E-1;-3.470081091E-1
6.804934750E0;1.931690335E0;8.661091924E-1;-1.443511248E0
6.815143750E0;1.953070641E0;1.186202526E0;-2.207092762E0
6.834940750E0;1.683678985E0;1.815393686E0;-3.133775473E0
6.845154750E0;1.505306363E0;2.271099329E0;-3.061082363E0
6.866385750E0;1.325101137E0;2.851421356E0;-2.565059900E0
6.885253750E0;2.020876646E0;1.891751885E0;-1.169843674E0
6.904966750E0;2.474138737E0;1.616251707E0;-4.197010696E-1
6.925132750E0;3.122266769E0;1.009051561E0;-7.715594172E-1
6.935155750E0;3.367834568E0;2.882306576E-1;-1.179617524E0
6.955177750E0;2.708710909E0;-2.365026027E-1;-1.397696376E0
6.975080750E0;1.215145350E0;4.922596514E-1;-9.383256435E-1
6.994954750E0;6.757513285E-1;3.609236181E-1;-4.734572172E-1
7.004955750E0;8.541240096E-1;-1.601444334E-1;-3.384559751E-1
7.015100750E0;1.120461226E0;-6.659408212E-1;-2.376632392E-1
7.035116750E0;1.549288630E0;-1.179067731E0;-7.977899164E-3
7.055016750E0;1.565171123E0;-1.260312796E0;3.609847128E-1
7.065036750E0;1.351979136E0;-1.127755046E0;5.619593859E-1
7.085057750E0;2.481456995E-1;-2.004615515E-1;1.028660417E0
7.104990750E0;-1.849577725E-1;4.877147824E-2;1.073864341E0
7.126205750E0;-2.533746660E-1;-2.988108397E-1;9.046548009E-1
7.144945750E0;-1.721296012E-1;-1.054451227E0;1.134950876E0
7.154945750E0;-1.782382578E-1;-1.379431486E0;1.448935628E0
7.175004750E0;-3.706608117E-1;-1.646990418E0;2.242449522E0
7.195389750E0;-9.405980706E-1;-1.232213020E0;2.713426828E0
7.215836750E0;-2.012055635E0;-5.132245421E-1;2.379283428E0
7.235041750E0;-3.165369272E0;-6.732712388E-1;2.647453308E0
7.245218750E0;-3.663224459E0;-9.573235512E-1;3.621172428E0
7.255704750E0;-4.061508656E0;-9.909211397E-1;4.721951962E0
7.275025750E0;-4.307687283E0;-5.751907080E-2;3.989524126E0
7.285293750E0;-3.483019114E0;-6.973637640E-2;2.616299152E0
7.304944750E0;-6.345545650E-1;-1.174791694E0;8.853881061E-2
7.325148750E0;6.128322482E-1;-1.851630330E0;-1.095318079E0
7.344982750E0;-3.847106993E-1;-1.712353110E0;-7.911071181E-1
7.355022750E0;-1.129966259E0;-1.412418246E0;-3.323473334E-1
7.374932750E0;-2.406063795E0;-3.525669873E-1;4.202386439E-1
7.397094750E0;-2.921633959E0;8.050226569E-1;7.140648365E-1
7.414969750E0;-2.458598137E0;1.279664874E0;6.383175254E-1
7.434970750E0;-1.371258020E0;8.795482516E-1;3.111747652E-2
7.445027750E0;-7.811622620E-1;5.154725313E-1;-3.360125124E-1
7.455104750E0;-2.503203452E-1;1.190209910E-1;-6.170105338E-1
7.475021750E0;8.675630689E-1;-6.402844787E-1;-1.004909992E0
7.494906750E0;1.177271724E0;-4.295360148E-1;-9.761993289E-1
7.504958750E0;1.133289456E0;-5.874080211E-2;-9.865840077E-1
7.525057750E0;7.466117144E-1;9.626259208E-1;-1.189391375E0
7.545152750E0;4.259074628E-1;1.729872584E0;-1.418465853E0
7.564941750E0;5.004330277E-1;1.668786049E0;-1.244980097E0
7.574954750E0;8.828346729E-1;1.251565099E0;-1.129526496E0
7.585008750E0;1.455826283E0;8.190726042E-1;-1.257197380E0
7.604898750E0;2.516899347E0;6.327586770E-1;-2.113630533E0
7.614923750E0;2.960387468E0;8.019683361E-1;-2.416008711E0
7.624929750E0;3.338513136E0;1.279054046E0;-2.591326952E0
7.644897750E0;3.771616459E0;2.616238117E0;-2.461212873E0
7.654941750E0;3.761231899E0;2.679768085E0;-2.287116289E0
7.665062750E0;3.019030571E0;1.407946587E0;-2.301776886E0
7.684921750E0;1.625646830E0;5.887764096E-1;-2.390352488E0
7.698289750E0;1.014781594E0;5.796133876E-1;-2.171662569E0
7.714893750E0;3.220603764E-1;7.616512179E-1;-1.434348345E0
7.724970750E0;3.764273822E-1;6.052697301E-1;-1.098983288E0
7.744927750E0;9.549167752E-1;-5.690820515E-2;-6.212865710E-1
7.755032750E0;1.231027842E0;-3.385170996E-1;-4.832310379E-1
7.774910750E0;1.472930551E0;-6.757146716E-1;-2.675956190E-1
7.785087750E0;1.447885036E0;-7.380229235E-1;-1.307618171E-1
7.804905750E0;1.169330478E0;-6.573887467E-1;1.832229197E-1
7.814936750E0;9.659123421E-1;-5.040615797E-1;3.267762661E-1
7.824950750E0;7.838745117E-1;-3.110281527E-1;4.587231576E-1
7.844956750E0;6.189408898E-1;-3.247359768E-2;7.122322321E-1
7.864911750E0;5.279219747E-1;-3.299649656E-1;1.208865643E0
7.875063750E0;4.650028348E-1;-5.425460339E-1;1.468483329E0
7.895014750E0;1.846157014E-1;-9.640430808E-1;1.995660067E0
7.915052750E0;-4.067018628E-1;-1.003749371E0;2.462971926E0
7.934875750E0;-1.222817779E0;-3.672277629E-1;2.732363462E0
7.945235750E0;-1.582006574E0;2.311513759E-2;2.835599661E0
7.965139750E0;-1.897213101E0;-4.631336033E-1;3.765947580E0
7.985083750E0;-1.726170778E0;-2.366589546E0;3.720132589E0
8.004962750E0;-2.299162149E0;-3.166212320E0;1.987107992E0
8.014982750E0;-2.588712454E0;-2.345820189E0;1.368912339E0
8.025153750E0;-2.688894272E0;-1.092935681E0;9.364197850E-1
8.045097750E0;-2.390792131E0;2.607417107E-1;9.220400453E-2
8.065110750E0;-1.766487837E0;-8.027746677E-1;-6.707666516E-1
8.085415750E0;-1.797641993E0;-1.380042315E0;-3.170756996E-1
8.104910750E0;-2.406063795E0;-1.094157457E0;4.501710534E-1
8.115050750E0;-2.685839891E0;-6.946514845E-1;8.655593991E-1
8.135348750E0;-2.787243605E0;1.822821610E-2;1.561334848E0
8.155090750E0;-2.341311932E0;4.800423384E-1;1.918691039E0
8.174933750E0;-1.650423527E0;8.080769777E-1;1.756811738E0
8.194952750E0;-7.408451438E-1;6.840713620E-1;1.013999581E0
8.215012750E0;3.923098743E-1;9.702983499E-2;-9.838595241E-2
8.225035750E0;9.653015137E-1;-3.415714204E-1;-6.170105338E-1
8.244963750E0;1.735602617E0;-8.320961595E-1;-1.317062140E0
8.255023750E0;1.931079388E0;-7.313033938E-1;-1.449009061E0
8.265062750E0;1.876101613E0;-5.162788630E-1;-1.388533354E0
8.284959750E0;1.551732063E0;-5.568647385E-2;-1.386089921E0
8.304933750E0;9.121562243E-1;5.032552481E-1;-1.743446112E0
8.324989750E0;3.196169138E-1;9.662911296E-1;-1.869284391E0
8.344911750E0;9.646905661E-1;7.494339347E-1;-1.213215113E0
8.365005750E0;2.356852531E0;3.517606258E-1;-1.199165225E0
8.384957750E0;3.227335691E0;2.301984578E-1;-2.270622730E0
8.395296750E0;2.981767893E0;5.488013476E-2;-2.703115463E0
8.414921750E0;1.559062481E0;1.544511616E-1;-2.693952322E0
8.424923750E0;7.582181692E-1;4.293405116E-1;-2.370193958E0
8.434928750E0;7.771427929E-2;7.231667638E-1;-2.010394335E0
8.444954750E0;-4.299147427E-1;1.026766658E0;-1.372040033E0
8.454999750E0;-2.710897624E-1;9.302500486E-1;-1.239482284E0
8.474927750E0;3.342776895E-1;3.316020966E-1;-1.175341487E0
8.494924750E0;9.359799623E-1;-3.165259361E-1;-1.201608658E0
8.504951750E0;1.178493500E0;-5.388808846E-1;-1.117920041E0
8.525042750E0;1.466821909E0;-6.085194945E-1;-6.035714746E-1
8.545116750E0;1.414287448E0;-1.186055988E-1;-6.295576692E-2
8.564918750E0;1.024555445E0;4.666033089E-1;8.487361670E-2
8.584946750E0;4.979895949E-1;8.838242888E-1;-3.363423795E-2
8.604907750E0;1.870591640E-1;7.243884802E-1;1.007561162E-1
8.614938750E0;1.717875302E-1;3.138870001E-1;3.725911677E-1
8.625010750E0;2.438696325E-1;-2.077919245E-1;8.063054681E-1
8.644897750E0;3.251146972E-1;-8.956261873E-1;1.990162253E0
8.664927750E0;-3.651630282E-1;-4.417533278E-1;2.068352938E0
8.675188750E0;-8.789007068E-1;-2.835392058E-1;2.184417486E0
8.685234750E0;-1.343158245E0;-2.755979598E-1;2.750689507E0
8.704898750E0;-1.768931389E0;-8.107159138E-1;4.461112499E0
8.715042750E0;-1.825741768E0;-1.210221767E0;4.784260273E0
8.735039750E0;-2.506856441E0;-1.210221767E0;4.194164276E0
8.745451750E0;-3.278990030E0;-3.525669873E-1;3.454406261E0
8.764979750E0;-4.214224815E0;9.571281075E-1;1.276060820E0
8.775034750E0;-3.877638102E0;5.906089544E-1;5.668463111E-1
8.785077750E0;-3.147654057E0;-3.440148830E-1;2.846265733E-1
8.804946750E0;-1.815968037E0;-1.902943015E0;5.631811023E-1
8.825026750E0;-1.818411469E0;-1.606062531E0;1.268119574E0
8.835078750E0;-2.013888359E0;-9.921428561E-1;1.963895082E0
8.854921750E0;-2.215473652E0;7.146146297E-1;2.324305534E0
8.875104750E0;-1.794587731E0;9.614042044E-1;2.188693523E0
8.895277750E0;-9.839695096E-1;6.193196177E-1;1.431220531E0
8.914906750E0;-1.990076751E-1;2.961719036E-1;3.921388388E-1
8.924931750E0;1.198639870E-1;2.259223908E-1;-7.211875170E-2
8.935131750E0;3.556579649E-1;2.118724883E-1;-4.661268294E-1
8.954891750E0;5.407501459E-1;2.668503523E-1;-1.090431213E0
8.965146750E0;5.438044667E-1;3.902451396E-1;-1.303012252E0
8.984918750E0;3.697078824E-1;8.948198557E-1;-1.718400598E0
8.994952750E0;2.157698274E-1;1.268669367E0;-1.915710092E0
9.015487750E0;-5.974251777E-3;2.120826483E0;-2.131345510E0
9.034859750E0;1.309218645E0;1.620527744E0;-2.160056114E0
9.045031750E0;2.186421156E0;1.070138097E0;-2.420284748E0
9.055134750E0;2.805227757E0;6.602476239E-1;-2.824677706E0
9.074958750E0;3.204122782E0;6.419216394E-1;-3.400723457E0
9.095015750E0;3.447247028E0;1.524621844E0;-3.290767670E0
9.114930750E0;3.587746143E0;2.484902143E0;-2.705558777E0
9.125105750E0;3.571863651E0;2.479404449E0;-2.379356861E0
9.144951750E0;3.193127155E0;1.633966804E0;-1.592562437E0
9.164882750E0;2.710543633E0;9.485760331E-1;-6.157888174E-1
9.175116750E0;2.541333914E0;8.001357317E-1;-1.625268161E-1
9.194889750E0;2.311037779E0;6.156544685E-1;4.672752619E-1
9.204896750E0;2.213299274E0;5.631200671E-1;6.163263917E-1
9.215163750E0;2.113728285E0;4.904270470E-1;6.328197718E-1
9.234967750E0;1.725217819E0;-3.762931563E-3;4.727730453E-1
9.254918750E0;1.392296314E0;-1.864116490E-1;4.733839333E-1
9.274927750E0;1.063039899E0;-1.644205004E-1;5.106467009E-1
9.295028750E0;7.967026830E-1;-1.271577179E-1;7.788165212E-1
9.315010750E0;5.083742738E-1;-2.139005810E-1;1.272395611E0
9.334930750E0;-4.568049312E-2;-3.898297846E-1;1.739096642E0
9.354859750E0;-9.625892043E-1;-6.592212915E-1;1.959619045E0
9.364953750E0;-1.432344556E0;-8.345396519E-1;2.013375044E0
9.375036750E0;-1.738388062E0;-1.012912273E0;2.045140028E0
9.395042750E0;-1.916149855E0;-1.299408197E0;1.929686666E0
9.405068750E0;-1.906986952E0;-1.343390465E0;1.764752984E0
9.415392750E0;-1.972960353E0;-1.340947032E0;1.950456023E0
9.425510750E0;-2.208143234E0;-1.429522395E0;2.246725559E0
9.445270750E0;-3.019983292E0;-1.787489533E0;2.763517618E0
9.465052750E0;-3.799447298E0;-1.164406896E0;2.598583937E0
9.484919750E0;-4.410312653E0;7.372166514E-1;1.835002542E0
9.504897750E0;-3.920398712E0;1.708492279E0;1.340201616E0
9.514929750E0;-3.302813768E0;1.622360349E0;1.236965418E0
9.524986750E0;-2.690115929E0;1.268669367E0;1.176489711E0
9.535046750E0;-2.174545765E0;8.117421865E-1;1.098299026E0
9.545056750E0;-1.759768367E0;4.012407064E-1;1.020719171E0
9.564898750E0;-1.301619411E0;-5.595527589E-3;9.755151272E-1
9.574912750E0;-1.271076202E0;4.021936655E-2;9.700173736E-1
9.595128750E0;-1.523974419E0;4.085710943E-1;8.698354959E-1
9.615012750E0;-1.814746261E0;9.528520703E-1;7.879795432E-1
9.634947750E0;-1.523363471E0;1.534395695E0;5.326378345E-1
9.654874750E0;-1.026730061E0;1.487969995E0;-4.386378825E-1
9.664953750E0;-8.593530059E-1;1.407946587E0;-1.277966738E0
9.675072750E0;-7.805513740E-1;1.443376780E0;-2.214423180E0
9.685280750E0;-7.689449191E-1;1.643129706E0;-3.006715536E0
9.704904750E0;-7.927687168E-1;2.611962080E0;-3.611472130E0
9.715110750E0;-6.931976676E-1;3.203279734E0;-3.444705725E0
9.735141750E0;-8.233240247E-2;3.625998497E0;-2.830175400E0
9.755013750E0;5.431935787E-1;3.481834173E0;-2.575444460E0
9.765170750E0;8.919976354E-1;3.148301840E0;-2.610874653E0
9.775388750E0;1.316548944E0;2.509336710E0;-2.495421171E0
9.794885750E0;2.276218414E0;1.218578339E0;-1.649983764E0
9.804912750E0;2.884029388E0;8.691635132E-1;-1.131970048E0
9.825323750E0;4.656149387E0;6.797953248E-1;2.430877090E-1
9.845382750E0;2.805227757E0;5.759482384E-1;-5.840238333E-1
9.864966750E0;4.075815082E-1;1.377403378E0;-1.127083063E0
9.875109750E0;-8.905192465E-2;1.549667358E0;-9.566516280E-1
9.895242750E0;1.180313826E-1;1.120839953E0;-3.427320421E-1
9.914880750E0;1.060596466E0;2.363070995E-1;-2.120068967E-1
9.925041750E0;1.472930551E0;-1.277685761E-1;-2.566000521E-1
9.945037750E0;1.945129395E0;-4.197621644E-1;-3.170756996E-1
9.965043750E0;2.036148310E0;-2.957565188E-1;-5.223264098E-1
9.985006750E0;1.830897570E0;-1.234925166E-1;-5.791369081E-1
9.995348750E0;1.689787626E0;-5.751907080E-2;-5.333219767E-1
1.001489975E1;1.249353766E0;2.345720306E-3;-1.936809421E-1
1.002498275E1;1.012948990E0;-1.283794492E-1;1.034805831E-2
1.004496375E1;5.450261831E-1;-5.596503019E-1;6.358740926E-1
1.005500375E1;2.786889374E-1;-8.296527267E-1;1.024384260E0
1.006503875E1;-5.056741461E-2;-1.044677377E0;1.400677323E0
1.008505575E1;-9.222721457E-1;-1.017188430E0;1.934573531E0
1.010492575E1;-1.828185320E0;-5.706458688E-1;2.018262148E0
1.011502575E1;-2.206921577E0;-2.365026027E-1;1.933351755E0
1.012508075E1;-2.517852068E0;-1.302120388E-1;1.953510404E0
1.014514275E1;-3.039530993E0;-1.160741687E0;3.266259670E0
1.016495775E1;-3.888022661E0;-1.936540604E0;4.223485947E0
1.018493875E1;-4.774999142E0;-2.615480721E-1;2.847817183E0
1.020491675E1;-1.909430385E0;1.723763943E0;1.264124513E-1
1.021504575E1;-3.822672367E-1;4.549968541E-1;-2.895867825E-1
1.022527475E1;7.484443188E-1;-3.959384263E-1;-5.986846089E-1
1.024519075E1;1.488813043E0;-1.331173182E0;-6.658797860E-1
1.026523875E1;9.042149782E-1;-1.401422620E0;-2.752558701E-2
1.028496475E1;-3.187372684E-1;-8.265984058E-1;6.535891891E-1
1.029515875E1;-9.662544131E-1;-3.849428594E-1;8.869397044E-1
1.031524675E1;-1.995562315E0;5.765590668E-1;1.088525176E0
1.033500875E1;-2.289999247E0;1.295547366E0;9.437501431E-1
1.034525975E1;-2.078029156E0;1.438489914E0;8.246314526E-1
1.036493575E1;-1.010847569E0;1.271723628E0;4.397863448E-1
1.037499975E1;-2.350487262E-1;1.007829905E0;8.548448235E-2
1.038598375E1;5.731260180E-1;6.706323028E-1;-3.628906012E-1
1.040494475E1;2.187643051E0;-1.919094324E-1;-1.331722975E0
1.041555375E1;2.372735023E0;-2.407786548E-1;-1.420909286E0
1.042583775E1;2.446649790E0;-1.143295392E-1;-1.430072188E0
1.044548175E1;2.311037779E0;5.356311202E-1;-1.185726166E0
1.046493175E1;1.777141452E0;1.397561908E0;-9.273300767E-1
1.048595575E1;1.287838340E0;1.525843620E0;-1.176563144E0
1.050496875E1;1.935355544E0;-1.424293518E-1;-7.538443804E-1
1.052520175E1;3.306137323E0;-7.899464965E-1;-4.218634963E-2
1.054501175E1;3.789331675E0;5.460157990E-1;-4.887288213E-1
1.056490375E1;2.490021229E0;1.621138573E0;-1.527199864E0
1.057494775E1;1.653746605E0;1.806230783E0;-1.728174448E0
1.059510775E1;4.796636105E-1;1.605256081E0;-8.711304665E-1
1.061490175E1;7.612724900E-1;1.415277004E0;-4.655159712E-1
1.062495775E1;1.113741755E0;1.027988434E0;-4.068728983E-1
1.064495875E1;1.783250093E0;-6.729291379E-2;-4.972809553E-1
1.065497275E1;2.035537481E0;-5.584285259E-1;-6.115127802E-1
1.067502075E1;2.231014490E0;-1.088048816E0;-7.428487539E-1
1.068514075E1;2.164430141E0;-1.099044323E0;-6.958121657E-1
1.070491375E1;1.904812217E0;-7.740640044E-1;-4.752897918E-1
1.071493175E1;1.799743414E0;-5.639263391E-1;-3.470081091E-1
1.072501575E1;1.719720006E0;-3.977710307E-1;-2.401066869E-1
1.074490775E1;1.479039192E0;-2.920913398E-1;-4.462981224E-2
1.075497275E1;1.270123243E0;-3.507343829E-1;1.105299592E-1
1.077501575E1;6.726970077E-1;-6.665517092E-1;5.808961987E-1
1.079491275E1;-4.958881736E-1;-1.297575593E0;1.338369012E0
1.080494875E1;-9.369328618E-1;-1.257869363E0;1.470926762E0
1.082511175E1;-1.782981277E0;-6.812124848E-1;1.502080917E0
1.084498275E1;-2.567332029E0;-8.038988337E-3;1.389070868E0
1.086507375E1;-3.300981283E0;-2.132897228E-1;2.283988476E0
1.088501875E1;-3.698654652E0;-8.101050258E-1;3.167910576E0
1.090489675E1;-3.941778898E0;-6.011891365E-1;2.417157173E0
1.091493475E1;-3.773180008E0;2.983465604E-2;1.516741753E0
1.092519075E1;-3.308311701E0;4.940922558E-1;7.189517617E-1
1.094515475E1;-1.682799339E0;3.584801555E-1;-2.046765089E-1
1.096502275E1;-3.981497288E-1;-3.861645758E-1;-7.336857915E-1
1.097530075E1;-2.533746660E-1;-6.237911582E-1;-8.088222146E-1
1.099512175E1;-9.137200117E-1;-9.280019999E-1;-4.312707111E-3
1.101487375E1;-1.584450006E0;-6.793798804E-1;5.992221832E-1
1.102496075E1;-1.837959170E0;-3.690603673E-1;7.708752751E-1
1.103499675E1;-1.960743070E0;-9.774044156E-5;8.954917789E-1
1.105490775E1;-1.668749452E0;5.063095689E-1;9.993389249E-1
1.106493275E1;-1.294899940E0;6.095458269E-1;9.248133302E-1
1.108493775E1;-2.955243886E-1;5.991610885E-1;4.776599705E-1
1.110490775E1;6.928555965E-1;3.224391043E-1;-3.011932075E-1
1.112491875E1;1.454604506E0;-1.509814560E-1;-1.036674976E0
1.113512475E1;1.732548237E0;-3.916623592E-1;-1.288962364E0
1.115497775E1;2.095402241E0;-7.221404314E-1;-1.649372816E0
1.116500275E1;2.248729467E0;-7.820052505E-1;-1.838741064E0
1.118501075E1;2.457645416E0;-7.765074372E-1;-3.342691422E0
1.119507175E1;2.188253880E0;-5.584285259E-1;-3.707988739E0
1.120531075E1;1.707502723E0;-1.051665619E-1;-3.684775829E0
1.121534175E1;1.067315936E0;5.374637246E-1;-3.293822050E0
1.123501875E1;8.870986104E-2;1.611975551E0;-1.941977262E0
1.124559475E1;2.634173036E-1;1.495300293E0;-1.346994519E0
1.126497975E1;2.076465368E0;6.126001477E-1;-8.082113862E-1
1.127498675E1;3.144258022E0;7.127820253E-1;-7.532334924E-1
1.129491575E1;3.924332857E0;1.247289062E0;-1.168011069E0
1.131508675E1;2.680611134E0;1.320592880E0;-1.461837292E0
1.132515375E1;1.875490665E0;1.359077454E0;-1.397085547E0
1.134491475E1;6.843034625E-1;1.530119658E0;-1.036674976E0
1.135494975E1;3.953642249E-1;1.542947888E0;-9.199997187E-1
1.136502275E1;3.739839196E-1;1.418331265E0;-8.644109368E-1
1.137502875E1;5.731260180E-1;1.145274520E0;-8.314242363E-1
1.139498675E1;1.331209779E0;2.210354805E-1;-7.514008880E-1
1.140515575E1;1.433835149E0;1.507859677E-1;-7.196359038E-1
1.142505375E1;1.226140976E0;2.729590237E-1;-5.498153567E-1
1.144506175E1;6.745296121E-1;5.002009273E-1;-1.979569942E-1
1.145511675E1;4.094141126E-1;6.058806181E-1;1.584584638E-2
1.147493175E1;1.320812851E-1;6.810170412E-1;4.733839333E-1
1.149490975E1;2.267653942E-1;3.627562225E-1;1.123344541E0
1.151509175E1;4.161336422E-1;3.227812052E-2;1.943736553E0
1.153491675E1;2.524217367E-1;1.587272137E-1;2.456863403E0
1.154497275E1;-1.092104763E-1;3.743626475E-1;2.507565022E0
1.156495375E1;-1.437842369E0;1.026766658E0;2.425098419E0
1.157504075E1;-2.777469635E0;1.277221441E0;2.461750269E0
1.159486975E1;-3.616798639E0;5.060407519E-2;3.660267830E0
1.160490475E1;-3.801890850E0;-8.766893148E-1;4.238757610E0
1.161492675E1;-3.809832096E0;-1.871178031E0;4.262581348E0
1.162504875E1;-3.706595898E0;-2.466771603E0;3.720132589E0
1.164491275E1;-3.589309692E0;-4.112100601E-1;1.538732886E0
1.166492175E1;-2.978444338E0;2.305307865E0;-3.231843710E-1
1.167494875E1;-2.346809864E0;2.403046131E0;-6.945904493E-1
1.169512675E1;-1.032227874E0;8.703852296E-1;-7.275771499E-1
1.171501275E1;-5.569747090E-1;-9.029565454E-1;-5.058330894E-1
1.172513175E1;-7.090801597E-1;-1.383707523E0;-3.384559751E-1
1.174493375E1;-1.459833503E0;-1.468617797E0;4.333478212E-2
1.176489175E1;-2.208754301E0;-9.396084547E-1;2.956221402E-1
1.177503175E1;-2.434774399E0;-6.311215162E-1;3.548760712E-1
1.179489275E1;-1.969295144E0;-6.818233132E-1;3.047851026E-1
1.180493175E1;-1.591780424E0;-6.463931203E-1;3.554869294E-1
1.181499775E1;-1.136685848E0;-6.231802702E-1;4.251255691E-1
1.182511375E1;-6.198938489E-1;-6.268454790E-1;4.568905532E-1
1.183528475E1;-1.006583646E-1;-6.225693822E-1;4.257364273E-1
1.185517775E1;8.138068914E-1;-4.900116622E-1;1.160277501E-1
1.186521675E1;1.162611008E0;-3.256889284E-1;-1.674137264E-1
1.188496375E1;1.540736556E0;1.587272137E-1;-7.538443804E-1
1.190497675E1;1.501641154E0;7.537099719E-1;-1.334777236E0
1.192494675E1;1.106411338E0;1.327923298E0;-1.574236393E0
1.194494075E1;6.293256283E-1;1.797678590E0;-1.584621191E0
1.196491175E1;5.963388681E-1;1.448263764E0;-7.428487539E-1
1.198506275E1;1.725828767E0;-5.706458688E-1;-7.996592522E-1
1.199507575E1;1.965898871E0;-6.842668056E-1;-1.326225162E0
1.201517075E1;1.463767529E0;8.789373636E-1;-2.029941797E0
1.203490475E1;9.628580809E-1;2.122658968E0;-2.217477560E0
1.204517875E1;9.029932022E-1;2.045079231E0;-2.147228003E0
1.206512975E1;8.156394958E-1;1.249121666E0;-1.726952791E0
1.208493575E1;7.356161475E-1;4.989791811E-1;-1.111811399E0
1.210491175E1;8.535131216E-1;1.123014614E-1;-7.159706950E-1
1.211506275E1;9.677449465E-1;3.960850090E-2;-5.082765222E-1
1.213501775E1;1.226751804E0;8.603426069E-2;5.860641599E-2
1.214630075E1;1.359309554E0;1.404012591E-1;3.292197287E-1
1.216510975E1;1.744765520E0;-1.216599196E-1;5.582941771E-1
1.217636475E1;1.815625906E0;-3.372953534E-1;5.033162832E-1
1.219499875E1;1.708724499E0;-6.885428429E-1;3.799215555E-1
1.220526975E1;1.516301990E0;-7.154209018E-1;3.451022208E-1
1.222493375E1;9.145996571E-1;-6.024108529E-1;4.843795002E-1
1.224494275E1;2.322631776E-1;-6.085194945E-1;1.072642684E0
1.226493075E1;-4.977207780E-1;-6.732712388E-1;1.940682173E0
1.227497775E1;-8.819550276E-1;-8.015528917E-1;2.379894257E0
1.228500875E1;-1.254582763E0;-9.249476790E-1;2.730530977E0
1.230487875E1;-1.888660908E0;-7.380229235E-1;3.008474588E0
1.232494775E1;-2.496471643E0;1.410121322E-1;3.050624371E0
1.234495475E1;-3.376728535E0;7.329405546E-1;3.002366066E0
1.236489275E1;-3.941778898E0;-1.934097171E0;3.266870737E0
1.237495175E1;-3.699876308E0;-3.288385153E0;3.339563608E0
1.238686475E1;-3.628405094E0;-3.888254881E0;3.277255297E0
1.239913275E1;-3.729808569E0;-2.854671001E0;2.800780535E0
1.241497575E1;-3.899629116E0;1.410390019E0;6.639738679E-1
1.243493375E1;-3.060300350E0;2.927779436E0;-7.984375358E-1
1.244600775E1;-2.384683371E0;2.153202295E0;-9.432125688E-1
1.246492575E1;-1.354153872E0;-5.181114674E-1;-7.532334924E-1
1.247493475E1;-1.206324458E0;-1.495495915E0;-6.133453250E-1
1.249493575E1;-1.200215816E0;-2.352539778E0;-1.564181596E-1
1.251495275E1;-1.096368670E0;-2.323218107E0;4.697187245E-1
1.252497175E1;-1.064603686E0;-2.117967367E0;8.124141097E-1
1.254501175E1;-1.248474121E0;-1.482667685E0;1.200924397E0
1.256489075E1;-1.964408278E0;-6.179513037E-2;8.832744956E-1
1.257489675E1;-2.015110016E0;2.650177777E-1;7.843143344E-1
1.258493275E1;-1.881330609E0;4.659924507E-1;6.725260019E-1
1.260490675E1;-7.891035080E-1;4.537751377E-1;2.113227248E-1
1.261493475E1;8.565552533E-2;3.309912086E-1;-1.472551823E-1
1.262510575E1;9.494189620E-1;2.460809350E-1;-4.838419259E-1
1.264488975E1;2.112506628E0;2.711264193E-1;-8.631892204E-1
1.265496275E1;2.397780657E0;4.275079370E-1;-9.242757559E-1
1.266524875E1;2.486356020E0;6.687996984E-1;-9.108366966E-1
1.268508275E1;2.116171837E0;1.401227117E0;-8.888455629E-1
1.270499675E1;2.080741644E0;1.762859344E0;-1.333555579E0
1.271505375E1;2.494908094E0;1.477585196E0;-1.465502381E0
1.273495275E1;3.895011425E0;3.664214015E-1;-1.394031167E0
1.274518075E1;4.500378609E0;-6.057339907E-2;-1.255975604E0
1.276507875E1;3.902341604E0;2.741807401E-1;-1.504597783E0
1.277509275E1;2.838214397E0;5.820568800E-1;-2.040326595E0
1.279512275E1;1.095415831E0;1.797067761E0;-2.459990978E0
1.281524575E1;9.616363049E-1;2.453747988E0;-1.851569295E0
1.282802675E1;1.294557810E0;2.229560375E0;-1.607223153E0
1.284490175E1;2.194973230E0;9.436891079E-1;-1.604168892E0
1.286500875E1;2.829662323E0;-2.676567137E-1;-1.631046891E0
1.288493775E1;2.697715521E0;-7.013710141E-1;-1.345161915E0
1.289509375E1;2.333639860E0;-6.775472760E-1;-1.132580876E0
1.291504775E1;1.318381548E0;-3.482909501E-1;-6.255626678E-1
1.293533775E1;4.943243861E-1;1.220753118E-1;-1.912374794E-1
1.295497675E1;2.689151168E-1;2.006081305E-2;5.921727419E-2
1.296518375E1;3.733730614E-1;-2.248961627E-1;9.831265360E-2
1.298496675E1;5.218133330E-1;-7.050362229E-1;3.090611696E-1
1.300490675E1;2.676933706E-1;-9.451062679E-1;7.849252224E-1
1.301502175E1;-4.384789616E-2;-9.579344392E-1;1.108072877E0
1.302507975E1;-4.506841600E-1;-8.620285988E-1;1.431831479E0
1.303509275E1;-8.905071020E-1;-6.506692171E-1;1.683507919E0
1.305502275E1;-1.665084243E0;5.549100041E-2;1.915025830E0
1.307494975E1;-2.497693539E0;7.188906670E-1;1.962062478E0
1.309495175E1;-3.402384996E0;-1.998506784E-1;3.030465841E0
1.310542575E1;-3.613133430E0;-1.092935681E0;3.922328949E0
1.312492175E1;-3.583200932E0;-1.916992903E0;4.651702404E0
1.314493675E1;-3.340687513E0;1.877701998E0;1.838667631E0
1.316491675E1;-2.311990499E0;2.470241308E0;2.204857022E-1
1.317504175E1;-1.666916847E0;1.866095543E0;-1.521421075E-1
1.319503975E1;-8.868419528E-1;2.240898013E-1;-2.370523661E-1
1.321491375E1;-9.577022791E-1;-6.121847034E-1;4.239405505E-3
1.322542975E1;-1.092703581E0;-7.203078270E-1;1.099190935E-1
1.324490375E1;-1.239922047E0;-7.025927305E-1;2.895134985E-1
1.326507675E1;-1.297343373E0;-2.872044146E-1;4.513927698E-1
1.328499475E1;-1.211822271E0;2.491352856E-1;5.900591612E-1
1.329501775E1;-1.063992858E0;4.354491830E-1;6.132720709E-1
1.331529775E1;-4.830600023E-1;5.851112008E-1;5.680680275E-1
1.332536775E1;-5.056741461E-2;5.002009273E-1;4.422298074E-1
1.334498975E1;1.429559112E0;-4.894008040E-1;-3.854926229E-1
1.336505075E1;2.237733841E0;-1.062392473E0;-8.784608841E-1
1.338496675E1;2.713598013E0;-1.092324853E0;-1.371429205E0
1.339554875E1;2.760023594E0;-8.369830847E-1;-1.580955982E0
1.341493875E1;2.376400232E0;7.076262683E-2;-1.968244553E0
1.342497775E1;2.026985407E0;6.003828049E-1;-2.097136974E0
1.344498975E1;1.001953363E0;1.447652817E0;-2.178992987E0
1.345499575E1;6.635340452E-1;1.098848820E0;-1.872338653E0
1.347498275E1;1.847390890E0;-2.051994085E0;-7.159706950E-1
1.349512575E1;4.015962601E0;-3.405671358E0;-1.019570827E0
1.351491275E1;4.339721203E0;-9.139521122E-1;-2.328655005E0
1.352494175E1;3.570641756E0;-2.269975469E-2;-2.783749580E0
1.354501875E1;5.596869588E-1;3.865799606E-1;-2.094082832E0
1.356494175E1;-2.130575776E-1;8.380094171E-1;-1.370818257E0
1.357516775E1;-1.916772872E-1;1.037151456E0;-1.084933400E0
1.359490875E1;3.959750831E-1;9.241414070E-1;-5.699738860E-1
1.361507975E1;8.987171650E-1;3.682540059E-1;-2.816455066E-1
1.363505475E1;1.088696241E0;-1.656422317E-1;-2.627086937E-1
1.365514375E1;8.498479724E-1;-1.943528950E-1;-7.578393817E-2
1.366524575E1;6.354342699E-1;-2.758667618E-2;1.111408249E-1
1.367526475E1;4.252966046E-1;1.520076990E-1;3.658716381E-1
1.369504475E1;4.106237367E-2;4.696576297E-1;8.948809505E-1
1.370513775E1;-4.690222442E-2;4.641598463E-1;1.171602845E0
1.371533475E1;-4.506962746E-2;2.937284410E-1;1.477646351E0
1.373495375E1;3.770382404E-1;-7.777291536E-1;2.623018742E0
1.374591375E1;4.857722521E-1;-1.042233825E0;2.996257305E0
1.376583275E1;1.833939701E-1;-1.177235126E0;3.470288754E0
1.378505375E1;-8.007099628E-1;-7.642901540E-1;2.948609829E0
1.380497875E1;-2.462874174E0;-2.609371841E-1;1.332871318E0
1.381507275E1;-3.300370455E0;-5.071159005E-1;8.961026669E-1
1.382574475E1;-3.738971710E0;-9.273911715E-1;1.287667274E0
1.384627675E1;-3.097563028E0;-1.149135351E0;3.193566799E0
1.386499775E1;-2.494639158E0;-3.214128613E-1;3.722576141E0
1.387730275E1;-2.623531818E0;1.748198509E0;2.172811031E0
1.389502575E1;-2.723102808E0;2.184356451E0;1.169770241E0
1.390532575E1;-2.615590572E0;2.067681313E0;4.526145160E-1
1.392509475E1;-1.426235914E0;5.099747777E-1;-2.010113150E-1
1.394495775E1;-1.283904314E0;-1.002796367E-1;1.703947484E-1
1.395538075E1;-1.428679466E0;-1.479271352E-1;3.664824963E-1
1.397495475E1;-2.012055635E0;6.465397775E-2;7.000149488E-1
1.399645675E1;-2.636359930E0;6.321477890E-1;9.058765173E-1
1.401548575E1;-2.966837883E0;1.313873410E0;9.846781492E-1
1.403506075E1;-2.467761040E0;1.320592880E0;9.669630527E-1
1.404528375E1;-1.952190876E0;1.103735685E0;9.070982337E-1
1.406556475E1;-6.168395281E-1;4.586620629E-1;6.713042855E-1
1.408542675E1;6.708644629E-1;-1.503705978E-1;1.728382111E-1
1.410533775E1;1.565171123E0;-2.255070210E-1;-5.858564377E-1
1.412504175E1;2.113117456E0;5.209703445E-1;-1.776432872E0
1.414538875E1;2.119836807E0;1.102514029E0;-2.304831266E0
1.416496375E1;2.113117456E0;1.239958644E0;-2.160056114E0
1.417521875E1;2.226127386E0;1.009662509E0;-1.718400598E0
1.419553475E1;2.851653576E0;4.507208169E-1;-9.083932638E-1
1.421503575E1;4.034288406E0;-9.600358456E-2;-9.652037024E-1
1.422523375E1;4.651262283E0;2.861292474E-2;-1.396474600E0
1.424493675E1;4.858956814E0;3.138870001E-1;-2.074535131E0
1.425543275E1;4.337277889E0;3.816930354E-1;-1.984127045E0
1.427512975E1;2.548053503E0;7.072842121E-1;-1.155793786E0
1.429506675E1;1.190710783E0;1.169098258E0;-4.636833668E-1
1.431505975E1;2.042867899E0;9.601824284E-1;-2.052873820E-1
1.433491575E1;2.995817661E0;6.954090297E-2;-5.614218116E-1
1.434496575E1;3.143036127E0;-4.441967905E-1;-8.357002735E-1
1.435503975E1;2.990930796E0;-8.351504803E-1;-1.105091929E0
1.437494175E1;2.102121830E0;-9.365541339E-1;-1.257197380E0
1.439494175E1;1.030053258E0;-3.568430543E-1;-9.328278899E-1
1.440504175E1;5.370849371E-1;-5.751907080E-2;-6.609928608E-1
1.442500075E1;-2.472660244E-1;1.935465336E-1;-1.020511463E-1
1.444492975E1;-8.538551927E-1;2.861292474E-2;3.603738546E-1
1.445494375E1;-1.112251163E0;-1.827464551E-1;5.998330116E-1
1.447503375E1;-1.553906798E0;-7.477967739E-1;1.168548465E0
1.449499675E1;-1.872167587E0;-1.189452410E0;1.597375870E0
1.451496975E1;-2.159884930E0;-1.170515537E0;1.795907140E0
1.452501175E1;-2.180654526E0;-9.793146849E-1;1.721992373E0
1.454492175E1;-2.315655708E0;-6.818233132E-1;1.333482146E0
1.456491675E1;-2.965005398E0;-9.389976263E-1;2.022538185E0
1.458487075E1;-3.658948421E0;-1.284747362E0;3.084832668E0
1.459492875E1;-3.860533714E0;-1.350720882E0;3.143475771E0
1.460504875E1;-3.817773342E0;-1.095379114E0;2.789784908E0
1.462494475E1;-3.266161919E0;3.206064999E-1;1.096466422E0
1.463495875E1;-2.885592937E0;9.546846747E-1;3.121154904E-1
1.465495175E1;-2.012055635E0;1.190478563E0;-4.239771366E-1
1.467494175E1;-1.440285802E0;4.024624527E-1;-4.734572172E-1
1.469502475E1;-1.299786806E0;-5.572068095E-1;-2.517131269E-1
1.471486675E1;-1.683410168E0;-7.172535062E-1;1.514579207E-1
1.472494175E1;-1.811081052E0;-4.338120818E-1;2.901243567E-1
1.474489575E1;-1.874611020E0;2.356962413E-1;5.424116850E-1
1.475498475E1;-1.792144179E0;4.678250253E-1;6.132720709E-1
1.476504475E1;-1.625378013E0;5.753373504E-1;6.181589961E-1
1.478495675E1;-9.955759645E-1;4.110145569E-1;4.483384490E-1
1.479507275E1;-5.294857621E-1;1.715553850E-1;3.426587582E-1
1.480508275E1;-2.430021018E-2;-8.500801027E-2;2.180422395E-1
1.481511275E1;4.436225593E-1;-3.098064363E-1;6.349333376E-2
1.483495275E1;1.130235076E0;-5.443786383E-1;-3.720535636E-1
1.485491875E1;1.606099129E0;-4.417533278E-1;-9.480994940E-1
1.486497375E1;1.797910810E0;-2.688784599E-1;-1.250477910E0
1.487517975E1;1.976894259E0;-6.973637640E-2;-1.543693185E0
1.489490975E1;2.076465368E0;3.523715138E-1;-1.985959649E0
1.491504275E1;9.585819840E-1;1.855099916E0;-1.959692359E0
1.493489375E1;3.391646147E-1;3.614392042E0;-5.259916186E-1
1.494494275E1;4.662245512E-1;4.636980057E0;-8.067086339E-2
1.495496275E1;1.079533339E0;4.833678722E0;-2.089525759E-1
1.496507475E1;2.208412409E0;4.059712410E0;-7.031425238E-1
1.498500575E1;4.827802658E0;1.416498780E0;-2.196097374E0
1.499521275E1;5.318327427E0;5.496810079E-1;-2.698839426E0
1.501492175E1;4.036732197E0;1.941574067E-1;-2.408678293E0
1.502493875E1;2.789345264E0;6.168761849E-1;-1.957248926E0
1.503556375E1;1.621981621E0;1.203306794E0;-1.562019110E0
1.505489075E1;4.912700653E-1;1.907634377E0;-1.035453320E0
1.506497075E1;6.323799491E-1;1.633966804E0;-8.411980867E-1
1.508498975E1;1.630533695E0;1.691119224E-1;-6.909252405E-1
1.510491475E1;2.596922636E0;-1.260312796E0;-9.267192483E-1
1.511505775E1;2.375178576E0;-1.241375923E0;-8.906781673E-1
1.512521175E1;1.967120528E0;-1.020853639E0;-7.654507756E-1
1.514491775E1;1.025166273E0;-2.743762434E-1;-3.671666682E-1
1.515498975E1;6.427646279E-1;5.426926911E-2;-1.808527708E-1
1.516502075E1;3.318342268E-1;2.198137492E-1;2.406810410E-3
1.518530575E1;-1.342559606E-1;4.144109786E-2;4.196277857E-1
1.519536575E1;-3.566108942E-1;-2.505524755E-1;6.786346436E-1
1.521490775E1;-7.329038978E-1;-1.046509981E0;1.348142862E0
1.522491575E1;-9.271590710E-1;-1.433798552E0;1.648688555E0
1.523504375E1;-1.170283437E0;-1.712963939E0;1.851495862E0
1.525502675E1;-1.547187328E0;-1.695248842E0;1.924799681E0
1.527501375E1;-1.855674267E0;-9.860342145E-1;1.786133289E0
1.529507875E1;-2.764030695E0;-5.614828467E-1;2.348740101E0
1.531491375E1;-3.509897232E0;-1.036736131E0;3.993800163E0
1.532494975E1;-3.853203535E0;-8.858523369E-1;4.178281784E0
1.533500475E1;-4.128092766E0;-4.203730226E-1;3.882622719E0
1.535489375E1;-4.204451084E0;1.987046838E0;2.418989658E0
1.536492675E1;-4.086554050E0;2.720696211E0;1.623643160E0
1.537494475E1;-3.918565989E0;2.858140707E0;9.406958222E-1
1.538499875E1;-3.622296333E0;2.595468760E0;4.306233525E-1
1.539653075E1;-3.229510069E0;2.038970470E0;1.343536973E-1
1.541495775E1;-2.544730186E0;8.435071707E-1;1.490144581E-1
1.542532475E1;-2.325429440E0;4.525533915E-1;2.925678194E-1
1.544520975E1;-2.140337229E0;-1.106643453E-1;5.167553425E-1
1.545590075E1;-2.148889303E0;-2.774305642E-1;5.637919903E-1
1.547492975E1;-2.186763048E0;-1.894659698E-1;5.753984451E-1
1.548495875E1;-2.149500370E0;1.734855585E-3;5.808961987E-1
1.550494975E1;-1.633930087E0;4.073493779E-1;4.996511340E-1
1.551501975E1;-1.260691524E0;3.468737006E-1;4.220712483E-1
1.553497075E1;-1.568579674E-1;-2.059593350E-1;1.771142632E-1
1.555491675E1;1.113130927E0;-7.942225337E-1;-1.075489298E-1
1.557505975E1;1.939631581E0;-8.559198976E-1;-3.219626248E-1
1.559488275E1;2.197416782E0;-5.272744298E-1;-5.308785439E-1
1.560490675E1;2.209634066E0;-2.578828633E-1;-6.280061007E-1
1.561501675E1;2.231014490E0;-9.774044156E-5;-7.153598666E-1
1.563487975E1;2.377011299E0;2.283658534E-1;-1.108146310E0
1.564488775E1;2.591424942E0;1.856052876E-1;-1.295681834E0
1.566586775E1;2.880975008E0;3.432085216E-1;-1.155793786E0
1.568495075E1;1.970174909E0;9.717888832E-1;7.910338640E-1
1.569495875E1;1.922527313E0;3.102217913E-1;7.342233658E-1
1.570515575E1;2.107008696E0;-6.573887467E-1;3.976366222E-1
1.572500175E1;2.769186735E0;-1.383707523E0;-1.044616222E0
1.573510075E1;2.821110249E0;-7.215295434E-1;-1.751387358E0
1.574520775E1;2.565157652E0;4.330057204E-1;-2.155169249E0
1.576492775E1;2.206579685E0;2.299199104E0;-2.042770147E0
1.578495675E1;2.934731245E0;1.968110085E0;-1.584621191E0
1.579502475E1;3.621954441E0;1.210026264E0;-1.508873820E0
1.581486875E1;4.722733498E0;-5.052832961E-1;-1.513760805E0
1.582494375E1;4.704407692E0;-9.878668189E-1;-1.485661030E0
1.583496075E1;4.277412891E0;-1.127755046E0;-1.379981279E0
1.584497775E1;3.549872398E0;-1.024518847E0;-1.197332621E0
1.586492375E1;1.761258841E0;-2.951456606E-1;-7.080294490E-1
1.587512175E1;1.048990011E0;2.014877796E-1;-4.429139495E-1
1.589508575E1;5.040982366E-1;6.443651319E-1;1.068647653E-1
1.591494075E1;9.463646412E-1;-4.896695912E-2;3.145589530E-1
1.592494975E1;1.069148540E0;-4.686313868E-1;5.534072518E-1
1.594493475E1;6.720861793E-1;-1.061781526E0;1.144724727E0
1.596495175E1;-3.083525598E-1;-8.644720316E-1;1.127620578E0
1.598490675E1;-1.426235914E0;-1.296011806E-1;6.053308249E-1
1.599502275E1;-1.933864951E0;1.648358703E-1;3.909171224E-1
1.601499275E1;-2.669346571E0;2.033203840E-1;7.061235905E-1
1.603514775E1;-2.916136265E0;4.006298482E-1;1.458709478E0
1.605493275E1;-2.333981514E0;5.976705253E-2;8.698354959E-1
1.607507075E1;-1.514200568E0;-3.159150779E-1;-3.842708766E-1
1.609496675E1;-2.353529215E0;2.344745100E-1;-1.961244047E-1
1.610514775E1;-2.800071716E0;2.827328742E-1;3.356093913E-2
1.612493175E1;-3.019983292E0;-2.487199008E-1;2.076575309E-1
1.613513675E1;-2.823895454E0;-5.773653984E-1;2.174313664E-1
1.615486775E1;-2.201423883E0;-1.015966654E0;2.882917523E-1
1.616494975E1;-1.872167587E0;-1.132031083E0;3.273871243E-1
1.617517975E1;-1.569789290E0;-1.235267282E0;3.506000042E-1
1.619491475E1;-1.090870976E0;-1.279860497E0;4.379537404E-1
1.621511675E1;-7.041932344E-1;-9.426627755E-1;4.330668151E-1
1.622535875E1;-5.239879489E-1;-7.862812877E-1;3.628173172E-1
1.624491775E1;-1.629666239E-1;-6.439496875E-1;1.502361894E-1
1.625531175E1;1.784949377E-2;-6.323432326E-1;-4.312707111E-3
1.627497975E1;3.990294039E-1;-4.008253515E-1;-7.862201929E-1
1.628510875E1;4.033054709E-1;-8.256454766E-2;-9.688689113E-1
1.630499375E1;1.913352162E-1;9.021502733E-1;-1.118530989E0
1.632496175E1;2.011090666E-1;1.908856153E0;-1.449009061E0
1.633505875E1;5.077633858E-1;2.005983829E0;-1.645096779E0
1.635486675E1;1.720330954E0;1.108622670E0;-9.047280550E-1
1.636489175E1;2.546220779E0;4.812640548E-1;-3.011932075E-1
1.637520375E1;3.430142879E0;-2.474981695E-1;-1.698571891E-1
1.639872875E1;3.973813057E0;-5.211657882E-1;-1.563851714E0
1.641554675E1;2.968939543E0;4.653815627E-1;-1.888832092E0
1.643496475E1;8.852781653E-1;2.155035019E0;-1.608444929E0
1.644497775E1;6.513167620E-1;2.215510607E0;-1.312175274E0
1.645515575E1;9.653015137E-1;1.884421468E0;-1.119141817E0
1.647492875E1;3.402653933E0;3.065566123E-1;-9.933034778E-1
1.648497575E1;3.946934938E0;-9.774044156E-5;-9.859731197E-1
1.650528475E1;3.866911411E0;-9.905790538E-2;-9.859731197E-1
1.652488475E1;2.593257427E0;1.452881843E-1;-7.758355141E-1
1.653505175E1;1.771643639E0;3.309912086E-1;-5.290459394E-1
1.655488875E1;5.016547441E-1;7.390492558E-1;-2.508212440E-2
1.656503275E1;1.882808954E-1;7.818098068E-1;1.844446510E-1
1.657512175E1;5.755573139E-2;6.742975116E-1;3.982475102E-1
1.659498875E1;1.644571424E-1;8.603426069E-2;9.303111434E-1
1.661511975E1;4.094141126E-1;-7.135882974E-1;1.481922388E0
1.663496675E1;3.556579649E-1;-1.350109935E0;1.872876167E0
1.665492975E1;-9.149538726E-2;-1.658596873E0;1.893034697E0
1.666494975E1;-8.892853856E-1;-1.314068913E0;1.608982325E0
1.667511575E1;-1.362095118E0;-9.842016101E-1;1.442826986E0
1.669498075E1;-2.263732195E0;-3.806667924E-1;1.136783481E0
1.671536275E1;-3.249057770E0;-6.912551075E-2;1.806291819E0
1.673540475E1;-5.004684448E0;-1.577009857E-1;3.614452839E0
1.675488575E1;-5.809194088E0;-1.695248842E0;3.883233547E0
1.676499175E1;-5.311338902E0;-2.076428652E0;3.263816357E0
1.677509675E1;-4.496444702E0;-1.479613423E0;2.334079504E0
1.679496675E1;-3.110391378E0;7.451578975E-1;5.509638190E-1
1.681497275E1;-1.925923705E0;1.633355856E0;-5.540913939E-1
1.682500975E1;-1.489765882E0;1.270501971E0;-6.054040790E-1
1.684500075E1;-1.323610544E0;-1.781283319E-2;-1.710789204E-1
1.686493175E1;-2.235021353E0;-3.446257412E-1;6.047199368E-1
1.687516475E1;-2.423167944E0;6.465397775E-2;6.920737028E-1
1.689512875E1;-2.397511482E0;9.534629583E-1;6.945171356E-1
1.691490275E1;-1.781759501E0;1.194754601E0;6.016656160E-1
1.692500275E1;-1.250306726E0;9.326935410E-1;5.301944017E-1
1.693506875E1;-6.217263937E-1;4.818749428E-1;4.342885613E-1
1.695488275E1;5.621304512E-1;-3.611190915E-1;2.076575309E-1
1.696509475E1;9.378125668E-1;-5.724784732E-1;1.154168844E-1
1.698492175E1;1.160167456E0;-6.024108529E-1;-7.944913208E-2
1.699492675E1;1.118017793E0;-3.806667924E-1;-2.071199715E-1
1.701500675E1;9.488081336E-1;4.879836142E-1;-3.830491602E-1
1.703488075E1;1.020890236E0;1.031653643E0;-3.158539832E-1
1.704493275E1;1.331209779E0;8.569462299E-1;-2.529348433E-1
1.705524475E1;2.375789404E0;9.214291722E-2;-6.438885927E-1
1.707501975E1;2.654344082E0;1.177992597E-1;-1.726341844E0
1.709509575E1;1.876101613E0;8.404528499E-1;-1.781930566E0
1.710550275E1;1.671461701E0;1.089074969E0;-1.635933876E0
1.712533575E1;2.169317007E0;9.510194659E-1;-2.148449659E0
1.714499975E1;2.978713512E0;5.490701199E-1;-2.989000320E0
1.716489875E1;2.713598013E0;4.452230036E-1;-3.032982588E0
1.717512175E1;2.329974651E0;4.421686828E-1;-2.699450254E0
1.719491075E1;1.708724499E0;9.580810368E-2;-2.027498484E0
1.720491975E1;1.621370792E0;-2.236744314E-1;-1.914488435E0
1.721504075E1;1.726439595E0;-5.193331838E-1;-1.874171257E0
1.722539575E1;1.930468559E0;-6.903754473E-1;-1.816139102E0
1.724489575E1;2.226738453E0;-6.696060300E-1;-1.579734206E0
1.726527875E1;1.414898276E0;-3.079738319E-1;-8.668544292E-1
1.728499975E1;5.040982366E-1;-8.867319673E-2;-1.112141237E-1
1.729528575E1;1.308595538E-1;-3.858225048E-2;2.491963655E-1
1.731502575E1;-3.712716699E-1;-7.340157032E-2;8.234097362E-1
1.732524275E1;-5.435356498E-1;-1.198273227E-1;1.065923095E0
1.733530675E1;-6.840347052E-1;-2.383351922E-1;1.323097467E0
1.735489075E1;-8.721811771E-1;-6.457822919E-1;1.890591264E0
1.736497775E1;-9.980193973E-1;-8.235440850E-1;2.136770010E0
1.738492675E1;-1.550241590E0;-9.860342145E-1;2.512452126E0
1.739563875E1;-1.954634428E0;-9.328889251E-1;2.559488773E0
1.741495075E1;-2.723102808E0;-6.812124848E-1;2.338355541E0
1.742535775E1;-3.037698269E0;-5.602611303E-1;2.181973934E0
1.744496775E1;-3.701097965E0;-4.112100601E-1;2.048194408E0
1.745504475E1;-4.013861179E0;-5.456003547E-1;2.527723789E0
1.747525975E1;-5.067603588E0;-5.321613550E-1;3.293748617E0
1.749494975E1;-5.417629242E0;7.537099719E-1;2.522836685E0
1.751514175E1;-3.477521420E0;1.184980750E0;5.815070868E-1
1.753494175E1;-9.558697343E-1;1.758314520E-1;-3.115779161E-1
1.755488075E1;-2.008402646E-1;-2.768197060E-1;-3.091344535E-1
1.756503275E1;-3.975388706E-1;-1.833573133E-1;-2.046765089E-1
1.758492075E1;-1.048721194E0;3.224391043E-1;1.068647653E-1
1.760490175E1;-1.310171604E0;6.822387576E-1;3.365501165E-1
1.761493375E1;-1.231369972E0;6.877365708E-1;3.707585633E-1
1.763497875E1;-6.901433468E-1;3.731409311E-1;2.656897306E-1
1.765493275E1;3.538253605E-1;-3.000325859E-1;2.375899255E-1
1.766493475E1;6.678100824E-1;-3.666169047E-1;2.986764610E-1
1.768492075E1;1.394128919E0;-3.476800621E-1;4.080213308E-1
1.769527675E1;1.778973937E0;-3.464583457E-1;3.762563467E-1
1.771491375E1;2.176647425E0;-4.686313868E-1;4.883256555E-2
1.773490575E1;1.759426355E0;-5.187222958E-1;-4.361944199E-1
1.775487375E1;1.025166273E0;-3.244671822E-1;-6.176214218E-1
1.776497275E1;7.411139607E-1;-1.314337701E-1;-5.754716992E-1
1.777498875E1;5.670173168E-1;1.092471406E-1;-4.771223962E-1
1.778513475E1;5.425827503E-1;3.529823720E-1;-3.470081091E-1
1.780506875E1;9.805730581E-1;5.796133876E-1;-8.800124377E-2
1.781507275E1;1.353811741E0;4.623272419E-1;-6.723182648E-2
1.783499875E1;3.111881971E0;-7.141991854E-1;-1.576398909E-1
1.784501875E1;3.849196434E0;-8.827980161E-1;-5.430958271E-1
1.785549275E1;4.325671196E0;-6.048542857E-1;-1.113644004E0
1.787494775E1;4.130805492E0;7.763119936E-1;-2.191210270E0
1.788504075E1;3.717249632E0;1.407335758E0;-2.390963316E0
1.790490675E1;2.953667879E0;1.797067761E0;-2.208925486E0
1.791492875E1;2.678778648E0;1.589984417E0;-2.019557238E0
1.792498475E1;2.524229765E0;1.304099560E0;-1.868062615E0
1.793501475E1;2.489410400E0;1.036540508E0;-1.772156835E0
1.794512875E1;2.516288519E0;8.514484167E-1;-1.722676635E0
1.796489775E1;2.404500008E0;8.105204701E-1;-1.769713283E0
1.797492175E1;2.226127386E0;9.357478619E-1;-1.794758797E0
1.799507175E1;1.663520455E0;1.182537317E0;-1.688468218E0
1.801501375E1;1.198041201E0;1.007829905E0;-1.460004687E0
1.803501475E1;7.020185590E-1;3.957429230E-1;-8.344785571E-1
1.805486975E1;5.474696755E-1;5.854532868E-2;-4.868962467E-1
1.806493275E1;5.150938034E-1;-7.217983902E-2;-3.250169456E-1
1.807510475E1;4.759984016E-1;-1.656422317E-1;-1.399247944E-1
1.809491875E1;3.477167189E-1;-3.311867118E-1;3.231110871E-1
1.811503575E1;1.051910967E-2;-5.785871148E-1;8.563964367E-1
1.813491575E1;-5.136032701E-1;-7.685661912E-1;1.300495386E0
1.814491975E1;-7.817730904E-1;-7.875030041E-1;1.436718345E0
1.815504075E1;-1.023064852E0;-6.946514845E-1;1.506356955E0
1.817491575E1;-1.341325641E0;-3.794450760E-1;1.386627436E0
1.818492675E1;-1.409742594E0;-3.733364046E-1;1.260178328E0
1.819493575E1;-1.483046412E0;-5.712566972E-1;1.234521985E0
1.820499775E1;-1.638817072E0;-8.937935829E-1;1.428777099E0
1.822505675E1;-2.957674980E0;-1.149746180E0;2.757409096E0
1.824495475E1;-3.969267845E0;-6.546032429E-2;2.654172897E0
1.825504375E1;-4.140921116E0;5.735047460E-1;2.006655693E0
1.827502975E1;-3.463471413E0;8.196834326E-1;3.035633862E-1
1.828505975E1;-2.688283443E0;3.810821772E-1;-2.401066869E-1
1.830492475E1;-1.382864475E0;-7.013710141E-1;-6.066258550E-1
1.831497275E1;-1.223428726E0;-1.053229451E0;-5.492044687E-1
1.833486375E1;-1.854452491E0;-1.194950223E0;-7.272960991E-2
1.834514275E1;-2.467150211E0;-9.438844919E-1;2.296486795E-1
1.836556075E1;-3.465914965E0;-1.720196754E-2;5.717332363E-1
1.838494875E1;-3.356570005E0;4.073493779E-1;5.986112952E-1
1.839501875E1;-2.920412302E0;3.474845886E-1;5.289726853E-1
1.840639675E1;-2.337646723E0;1.599489450E-1;4.269581735E-1
1.842501575E1;-6.620435119E-1;-2.242852896E-1;1.655078232E-1
1.844490475E1;-4.764646292E-4;4.266282916E-2;8.365189284E-2
1.845491275E1;1.882808954E-1;2.552439272E-1;-5.318192393E-2
1.846500375E1;3.067887425E-1;5.136399269E-1;-9.655335546E-2
1.847526575E1;3.904772997E-1;8.294572830E-1;-9.044470638E-2
1.849497575E1;6.470406651E-1;1.485526443E0;8.515462279E-3
1.851488675E1;1.070981145E0;1.740868211E0;1.508470625E-1
1.852492675E1;1.449717641E0;1.494078636E0;1.380188912E-1
1.854494375E1;2.325087547E0;4.837075174E-1;-2.914193571E-1
1.856490675E1;2.915183544E0;-1.381532848E-1;-8.240938783E-1
1.857492275E1;2.965274334E0;1.150869951E-2;-7.544552088E-1
1.858492275E1;2.874255419E0;5.228029490E-1;-5.455393195E-1
1.860540575E1;2.902355194E0;1.723763943E0;-4.667376876E-1
1.862507675E1;3.286589622E0;4.116254151E-1;-2.270622730E0
1.864495075E1;2.811336279E0;3.411071002E-2;-2.988389492E0
1.866503775E1;2.075243711E0;5.851112008E-1;-2.380578518E0
1.868489575E1;1.708113670E0;3.267151713E-1;-1.770324230E0
1.869505075E1;1.689787626E0;-1.842369698E-2;-1.678694367E0
1.871489275E1;1.873047233E0;-5.871391892E-1;-1.601725340E0
1.872492975E1;1.909699202E0;-6.677734256E-1;-1.544914961E0
1.874493475E1;1.643972754E0;-3.116390109E-1;-1.418465853E0
1.875505175E1;1.329988003E0;-9.539271891E-2;-1.216880322E0
1.876505575E1;9.335364699E-1;8.969945461E-2;-9.218323231E-1
1.878498775E1;3.177843094E-1;3.664214015E-1;-2.511022687E-1
1.880495975E1;2.542543411E-1;3.590910137E-1;3.536543250E-1
1.881498975E1;2.964040339E-1;-1.986289471E-1;9.846781492E-1
1.883493475E1;-5.789779872E-2;-8.382048607E-1;1.776970267E0
1.885488175E1;-8.953940272E-1;-1.177845955E0;2.519782543E0
1.886491575E1;-1.363927722E0;-1.252982378E0;2.687159538E0
1.887514975E1;-1.787868142E0;-1.236489058E0;2.695100784E0
1.889488375E1;-2.331538200E0;-1.088048816E0;2.444035053E0
1.890494075E1;-2.443937302E0;-1.083161831E0;2.324916363E0
1.891506075E1;-2.439050436E0;-1.243819356E0;2.210073709E0
1.893521875E1;-2.169658899E0;-2.031224489E0;2.389668226E0
1.895490475E1;-2.098798513E0;-2.176610470E0;2.895464659E0
1.896493875E1;-2.493417501E0;-1.926766753E0;2.823382378E0
1.897497375E1;-3.145210743E0;-1.365992427E0;2.629127264E0
1.899489775E1;-4.074336529E0;-1.815247238E-1;2.073850870E0
1.900491775E1;-4.019969940E0;-1.302120388E-1;1.527126431E0
1.902493375E1;-2.320542574E0;-1.481446028E0;-2.523239851E-1
1.903504975E1;-1.835515618E0;-1.700746655E0;-4.801767170E-1
1.905486575E1;-1.552685022E0;-1.385540128E0;-4.197010696E-1
1.906502975E1;-1.695627570E0;-1.058727264E0;-2.260567993E-1
1.907504275E1;-1.908819437E0;-7.703987956E-1;4.239405505E-3
1.909516875E1;-2.233188868E0;-2.511633635E-1;4.031344056E-1
1.911496575E1;-1.971738577E0;1.666684598E-1;5.753984451E-1
1.912496975E1;-1.545965552E0;2.863980532E-1;5.454660058E-1
1.914513375E1;-2.949135303E-1;4.629381001E-1;3.292197287E-1
1.916493375E1;1.059985638E0;4.940922558E-1;4.150218517E-2
1.917507075E1;1.547456026E0;5.032552481E-1;-1.490877718E-1
1.919498175E1;2.031261444E0;5.460157990E-1;-5.461501479E-1
1.920501175E1;1.884042859E0;5.637308955E-1;-7.465139627E-1
1.921511375E1;1.678181171E0;6.486411691E-1;-7.703377008E-1
1.923485675E1;1.415509224E0;1.003553867E0;-6.793187857E-1
1.924496975E1;1.408178806E0;1.239347816E0;-6.127344966E-1
1.925511075E1;1.438111186E0;1.532563090E0;-6.084583998E-1
1.927492875E1;1.378857255E0;2.104333162E0;-9.590950608E-1
1.929489175E1;1.197430253E0;1.531952262E0;-1.560797453E0
1.930490975E1;1.394128919E0;7.848641276E-1;-1.403194189E0
1.931505475E1;1.801576018E0;1.092471406E-1;-1.049503207E0
1.933488575E1;2.529116631E0;5.185268521E-1;-1.153961182E0
1.934501975E1;2.414884806E0;1.572269320E0;-1.637155533E0
1.936490475E1;1.401459217E0;2.406711340E0;-2.727550030E0
1.937507975E1;9.781296253E-1;2.280873060E0;-2.922415972E0
1.939524275E1;7.783766985E-1;1.853267431E0;-2.665241718E0
1.940533175E1;1.267679811E0;1.220410943E0;-2.357976437E0
1.942498675E1;1.739878654E0;3.248825669E-1;-2.224197149E0
1.944494575E1;1.857164741E0;-1.124969423E-1;-2.109354496E0
1.946516775E1;1.606709957E0;-2.951456606E-1;-1.715346336E0
1.948495375E1;1.030053258E0;-3.125187010E-2;-1.023846865E0
1.950492175E1;5.664064884E-1;2.760133445E-1;-1.643594056E-1
1.951500775E1;4.753875732E-1;3.053348660E-1;2.736309767E-1
1.953499975E1;4.491203427E-1;2.851763368E-1;1.070199251E0
1.955490375E1;2.066068500E-1;1.397904009E-1;1.659684181E0
1.956494175E1;-2.552193962E-2;-1.170417946E-2;1.917469263E0
1.958487775E1;-4.983316362E-1;-4.325903356E-1;2.393944263E0
1.959488875E1;-1.023064852E0;-5.364373922E-1;2.459917545E0
1.960491675E1;-1.329719186E0;-4.753509164E-1;2.309033871E0
1.961506075E1;-1.662640810E0;-3.177476823E-1;2.032311916E0
1.963490475E1;-2.112848282E0;-3.837211132E-1;1.416559815E0
1.964494475E1;-2.137893915E0;-1.044677377E0;1.549117565E0
1.966492075E1;-2.170269728E0;-2.061156988E0;2.109281063E0
1.967510975E1;-2.431109190E0;-2.069098234E0;1.955953836E0
1.969520075E1;-3.284487963E0;-1.257258415E0;7.647666335E-1
1.970539775E1;-3.344963551E0;-7.587923408E-1;1.740599424E-1
1.972556275E1;-2.173324108E0;-6.170716286E-1;-8.143200278E-1
1.973578775E1;-1.195939779E0;-9.646539092E-1;-1.222378016E0
1.974582075E1;-3.254567683E-1;-1.452735305E0;-1.530254126E0
1.976553975E1;3.464950025E-1;-2.067876577E0;-1.627381682E0
1.978497775E1;-2.912483215E-1;-1.735565901E0;-1.047059774E0
1.979504575E1;-1.522141814E0;-7.300816774E-1;-2.950845659E-1
1.981502075E1;-2.452489376E0;3.096109331E-1;3.542652130E-1
1.982515075E1;-2.548395395E0;5.979393721E-1;6.383175254E-1
1.984521675E1;-1.876443624E0;3.884125650E-1;9.858998656E-1
1.985547875E1;-1.263745785E0;1.269622296E-1;8.313509822E-1
1.987493275E1;6.853919476E-3;-3.311867118E-1;-3.573928177E-1
1.989493975E1;5.871759057E-1;-6.237911582E-1;-1.168011069E0
1.991494875E1;4.521746635E-1;-3.678386211E-1;-1.120363593E0
1.992509775E1;3.098430634E-1;-1.204381883E-1;-9.554299116E-1
1.993642575E1;1.589593589E-1;1.232970431E-1;-8.143200278E-1
1.995493675E1;7.452666759E-4;6.846822500E-1;-8.326459527E-1
1.996494575E1;5.572313443E-2;1.058531642E0;-1.089820266E0
1.997513275E1;1.241400391E-1;1.434824705E0;-1.447176456E0
1.999500175E1;1.052032113E-1;2.695039749E0;-1.470389366E0
2.001491575E1;3.012909591E-1;2.983978987E0;-8.027135730E-1
2.002496775E1;5.267002583E-1;2.848977804E0;-5.644761324E-1
2.004493375E1;1.389241934E0;2.085396290E0;1.447384059E-1
2.005497875E1;2.198027611E0;1.670007825E0;2.766853273E-1
2.007505475E1;3.194348812E0;1.072581649E0;-1.185445115E-1
2.009489875E1;2.204136372E0;1.001721263E0;-7.208576202E-1
2.010491875E1;1.497975945E0;1.343194842E0;-6.732101440E-1
2.011492175E1;9.860708714E-1;1.642518878E0;-5.180503726E-1
2.012499075E1;7.453899980E-1;1.715211868E0;-3.653340638E-1
2.013659275E1;7.569964528E-1;1.530730486E0;-2.785911858E-1
2.015492775E1;1.427115560E0;6.352021098E-1;-2.816455066E-1
2.016495375E1;1.923138142E0;5.121494085E-2;-3.127996325E-1
2.017498275E1;2.284770489E0;-4.338120818E-1;-3.256278038E-1
2.018738075E1;2.284770489E0;-6.964840889E-1;-3.182974458E-1
2.020492275E1;1.521188855E0;-4.154861271E-1;-1.387030631E-1
2.021495275E1;1.060596466E0;3.450411260E-1;7.815410197E-2
2.023491775E1;4.863831401E-1;6.358129978E-1;5.350813270E-1
2.024491775E1;3.898664117E-1;6.211522222E-1;7.067344189E-1
2.026552375E1;3.849794865E-1;2.069855779E-1;9.260350466E-1
2.028545575E1;1.864482909E-1;-5.950804353E-1;1.192983150E0
2.030491175E1;-4.971099198E-1;-1.293299556E0;1.581493378E0
2.032489475E1;-1.263134956E0;-1.356218576E0;1.966949344E0
2.033510875E1;-1.502594113E0;-1.174180746E0;2.126996040E0
2.035500375E1;-1.606441140E0;-8.363722563E-1;2.169756651E0
2.037496375E1;-1.497707129E0;-1.457011342E0;2.334079504E0
2.039491275E1;-2.517852068E0;-2.215705872E0;3.290694475E0
2.040492275E1;-3.517838478E0;-1.211443543E0;3.140421629E0
2.041501775E1;-4.351058483E0;5.854532868E-2;2.630349159E0
2.042504975E1;-4.431692600E0;9.113132358E-1;1.844776392E0
2.043505575E1;-3.570983648E0;9.748432040E-1;8.582290411E-1
2.044594475E1;-1.941806197E0;3.645887971E-1;-2.101743072E-1
2.046508075E1;1.199262857E0;-9.634321928E-1;-1.682359576E0
2.048521375E1;1.796078205E0;-1.573686600E0;-1.579734206E0
2.049593175E1;1.342816234E0;-1.521763086E0;-1.138078690E0
2.051494075E1;-2.643702328E-1;-8.247658014E-1;-7.334047556E-2
2.052496175E1;-1.136074901E0;-3.311867118E-1;3.872519135E-1
2.054492075E1;-2.387737751E0;4.824858010E-1;8.814418912E-1
2.055492975E1;-2.546562672E0;5.441831946E-1;8.887723088E-1
2.056494275E1;-2.365135670E0;3.609236181E-1;8.026403189E-1
2.057504175E1;-1.231980801E0;-2.853718102E-1;5.558507442E-1
2.059490975E1;1.791179180E-1;-7.526836991E-1;2.901243567E-1
2.061490975E1;1.067926884E0;-7.862812877E-1;5.860641599E-2
2.062491275E1;1.265236378E0;-6.250128746E-1;-5.929058045E-2
2.064488775E1;1.350146532E0;-1.039448306E-1;-2.755368650E-1
2.065499175E1;1.297612190E0;1.862161607E-1;-3.317364752E-1
2.067495675E1;1.140619755E0;7.818098068E-1;-4.972809553E-1
2.069492475E1;9.793514013E-1;1.386566281E0;-7.691159844E-1
2.070496675E1;9.042149782E-1;1.670618653E0;-8.265373111E-1
2.072497875E1;1.039826989E0;1.790348291E0;-7.849984765E-1
2.074492175E1;1.822345376E0;1.640686274E0;-9.572624564E-1
2.076491575E1;1.789969563E0;2.206958532E0;-1.488715291E0
2.077499575E1;1.643972754E0;2.061572552E0;-1.036064148E0
2.079488075E1;2.963441849E0;3.804712892E-1;-6.426668763E-1
2.080491175E1;3.464351416E0;-2.193983644E-1;-9.572624564E-1
2.082492875E1;2.892581463E0;-1.570901126E-1;-1.864397407E0
2.083500075E1;2.051419973E0;1.727771163E-1;-2.023222446E0
2.085495175E1;6.641449332E-1;5.710613132E-1;-1.627992630E0
2.087493775E1;3.104539514E-1;6.297043562E-1;-1.354935765E0
2.089485775E1;9.274278283E-1;3.908559978E-1;-1.423963547E0
2.090491375E1;1.337318420E0;1.764423102E-1;-1.419076681E0
2.091501375E1;1.610375166E0;2.983465604E-2;-1.354324937E0
2.093500675E1;1.525464892E0;1.300165504E-1;-1.122196198E0
2.094508075E1;1.266458035E0;2.680720985E-1;-9.132801890E-1
2.096491075E1;5.389175415E-1;3.603127599E-1;1.722273380E-1
2.097491175E1;4.246857464E-1;1.813292354E-1;6.047199368E-1
2.098492175E1;3.458841145E-1;9.065238759E-3;1.056760192E0
2.100495175E1;1.027597636E-1;-4.185404480E-1;1.987718821E0
2.101509575E1;-1.085996181E-1;-5.755327940E-1;2.409215927E0
2.103505175E1;-6.638761163E-1;-7.111448646E-1;2.865532160E0
2.105494175E1;-1.334606171E0;-6.341758370E-1;2.725644112E0
2.106506475E1;-1.662029982E0;-6.225693822E-1;2.619353533E0
2.107506475E1;-1.934475780E0;-6.311215162E-1;2.536275864E0
2.109524075E1;-2.192260742E0;-8.235440850E-1;2.462361097E0
2.110531075E1;-2.228912830E0;-1.161963463E0;2.608968735E0
2.112489075E1;-2.344366312E0;-1.891336560E0;3.398817539E0
2.113493275E1;-2.655296803E0;-1.891336560E0;3.663322210E0
2.115866375E1;-3.952774525E0;-1.046509981E0;3.422030449E0
2.117508375E1;-4.186736107E0;9.650693536E-1;1.515519977E0
2.119494775E1;-1.959521294E0;-3.000325859E-1;-2.566000521E-1
2.120495375E1;-9.974085689E-1;-1.179678559E0;-7.153598666E-1
2.122498975E1;-5.917940140E-1;-2.095365524E0;-5.821912289E-1
2.124497075E1;-1.298565149E0;-1.717850804E0;4.761084169E-2
2.126495675E1;-2.085359335E0;-5.077267289E-1;6.071634293E-1
2.127503475E1;-2.298551321E0;1.862161607E-1;7.702644467E-1
2.128536075E1;-2.316266537E0;7.042298913E-1;7.843143344E-1
2.130491175E1;-1.692573190E0;8.948198557E-1;3.738128841E-1
2.131492575E1;-1.134242415E0;6.914017200E-1;1.019778475E-1
2.132496275E1;-5.038294196E-1;4.171232283E-1;-1.564181596E-1
2.133500175E1;1.168096513E-1;1.568946242E-1;-3.934338689E-1
2.135486175E1;1.080754995E0;-1.021122336E-1;-7.440705299E-1
2.136502675E1;1.495532513E0;4.571714997E-2;-9.157236218E-1
2.138493075E1;1.606709957E0;4.702684879E-1;-9.798644781E-1
2.139500075E1;1.559673309E0;7.237775922E-1;-1.018959880E0
2.140858525E1;1.208425879E0;1.575323701E0;-1.240093112E0
2.142510475E1;1.208425879E0;1.575323701E0;-1.240093112E0
2.144516075E1;9.689667225E-1;2.026753187E0;-1.298736215E0
2.146511175E1;1.218810558E0;2.025531530E0;-1.403194189E0
2.148492675E1;1.711167932E0;1.964444876E0;-1.544304013E0
2.150490475E1;2.150990963E0;1.819058895E0;-9.627602696E-1
2.151495475E1;2.662896156E0;1.762248516E0;-6.658797860E-1
2.152502175E1;3.201068401E0;1.551499963E0;-5.382089019E-1
2.154533675E1;2.969550371E0;2.741807401E-1;-1.868062615E0
2.156488975E1;1.399015784E0;6.400890350E-1;-2.019557238E0
2.157491075E1;7.704354525E-1;1.037151456E0;-1.804532647E0
2.159489975E1;6.103887558E-1;1.156880975E0;-1.431293964E0
2.160491175E1;1.031885743E0;6.767410040E-1;-1.372040033E0
2.161542675E1;1.554175615E0;7.626041770E-2;-1.403805017E0
2.163498875E1;2.284770489E0;-8.492004275E-1;-1.573625565E0
2.165501775E1;2.034315825E0;-8.559198976E-1;-1.489937067E0
2.167500475E1;1.037383556E0;-2.352808714E-1;-9.859731197E-1
2.169493375E1;2.792998254E-1;4.641598463E-1;-3.079127371E-1
2.171515175E1;1.791179180E-1;6.406999230E-1;5.466877818E-1
2.173490575E1;3.654318154E-1;2.234789282E-1;1.307825804E0
2.174524375E1;3.782599866E-1;-4.912334085E-1;1.725657582E0
2.176488875E1;3.251025453E-2;-1.025129676E0;1.825839520E0
2.177491775E1;-2.943026423E-1;-1.087437868E0;1.772083402E0
2.179487175E1;-1.103088260E0;-5.840848684E-1;1.690227389E0
2.180513375E1;-1.451892257E0;-1.900768429E-1;1.820952654E0
2.181515375E1;-1.729225159E0;6.221051514E-2;2.002990484E0
2.183494975E1;-2.363303185E0;-1.790812612E-1;2.803223848E0
2.185501975E1;-3.046250343E0;-8.931826949E-1;3.320015907E0
2.187491275E1;-3.713315248E0;-6.579995751E-1;2.349350929E0
2.188519975E1;-3.637567997E0;-1.192164645E-1;1.577828169E0
2.190493075E1;-2.636970758E0;-3.003013693E-2;3.750346303E-1
2.191503275E1;-2.168437004E0;-4.454185069E-1;-1.591914706E-2
2.193493675E1;-2.009001255E0;-1.200448036E0;-4.129815400E-1
2.195488775E1;-2.997381210E0;-1.369046807E0;1.997162849E-1
2.196489375E1;-3.356570005E0;-1.141194105E0;4.849903584E-1
2.197506675E1;-3.609468222E0;-7.740640044E-1;6.987931728E-1
2.199489875E1;-3.625350714E0;1.776640415E-1;8.130249977E-1
2.201503775E1;-2.864212513E0;8.826025724E-1;6.419827342E-1
2.202504275E1;-2.264343023E0;1.002332091E0;5.057597756E-1
2.204491975E1;-8.892853856E-1;7.066733837E-1;1.319102347E-1
2.205496375E1;-2.497094870E-1;4.213992655E-1;-1.161010489E-1
2.207492075E1;6.433755159E-1;-5.263215303E-2;-5.663087368E-1
2.208492475E1;8.529022932E-1;-9.966877103E-2;-6.493864059E-1
2.209501475E1;9.475864172E-1;2.311513759E-2;-6.542733312E-1
2.210515375E1;1.003785968E0;2.644069195E-1;-6.377799511E-1
2.212519475E1;1.111909151E0;8.526701927E-1;-5.430958271E-1
2.214501975E1;1.149171948E0;1.239958644E0;-8.766282797E-1
2.216501175E1;1.056931257E0;1.480028749E0;-7.892745137E-1
2.217501675E1;1.123515606E0;1.815393686E0;-7.006990910E-1
2.219509875E1;1.457658887E0;2.024309874E0;-3.366234004E-1
2.221518875E1;2.775906086E0;8.367876410E-1;3.090611696E-1
2.223485475E1;3.022695780E0;-1.073387980E0;-5.834129453E-1
2.224499375E1;2.304318190E0;-1.334227443E0;-1.538806200E0
2.226491275E1;6.781948209E-1;2.069855779E-1;-2.220531940E0
2.227510975E1;3.721513450E-1;1.179483056E0;-1.899827600E0
2.229497875E1;1.025166273E0;1.434824705E0;-1.095928907E0
2.231495675E1;2.237733841E0;2.582982481E-1;-1.050114036E0
2.232508075E1;2.658009291E0;-2.331062034E-2;-1.231541038E0
2.234493575E1;2.936563730E0;-3.000325859E-1;-1.419076681E0
2.235507175E1;2.791788578E0;-3.391279578E-1;-1.342107654E0
2.237498675E1;2.218796968E0;-2.743762434E-1;-9.560407400E-1
2.239516075E1;1.313494682E0;-2.065701932E-1;-3.262386918E-1
2.241525375E1;6.794165373E-1;-2.169549018E-1;3.817541301E-1
2.242536775E1;5.114285946E-1;-2.206200957E-1;7.531601787E-1
2.244497475E1;2.976257801E-1;-2.591046095E-1;1.502691746E0
2.245502975E1;1.137553304E-1;-3.104172945E-1;1.820952654E0
2.247493575E1;-5.820201635E-1;-2.988108397E-1;2.151430607E0
2.248494175E1;-1.026730061E0;-2.200092375E-1;2.197245598E0
2.249509775E1;-1.451281428E0;-1.161621362E-1;2.191136837E0
2.251491275E1;-2.206921577E0;2.045421153E-1;2.115389585E0
2.252494875E1;-2.519073725E0;3.053348660E-1;2.163647890E0
2.254576375E1;-3.555711985E0;-6.970949769E-1;3.156914949E0
2.256489575E1;-4.293026447E0;-1.299408197E0;2.984650850E0
2.257497575E1;-4.543481350E0;-8.711915612E-1;2.422654867E0
2.259520775E1;-3.699265480E0;1.115342140E0;7.262821198E-1
2.261492475E1;-1.294899940E0;8.752721548E-1;-8.980085254E-1
2.262495175E1;-3.010221720E-1;1.947682649E-1;-1.514982462E0
2.264494975E1;3.171734512E-1;-1.127144098E0;-1.799034834E0
2.266490175E1;-4.054801166E-1;-1.537645578E0;-1.109367967E0
2.267517375E1;-9.118874073E-1;-1.488165498E0;-6.616036892E-1
2.269493775E1;-1.851398110E0;-9.652647972E-1;4.089131951E-2
2.270544975E1;-2.115291834E0;-5.358265638E-1;2.638571560E-1
2.272488075E1;-1.799474597E0;-1.399858892E-1;5.937243700E-1
2.273492575E1;-6.449393034E-1;-4.619118571E-1;5.723440647E-1
2.275496575E1;5.321980119E-1;-6.744929552E-1;3.053959906E-1
2.276556775E1;9.555276632E-1;-6.763255596E-1;7.632150501E-2
2.278534775E1;1.295168757E0;-4.307577312E-1;-4.496334493E-1
2.280504175E1;1.194375992E0;-2.636494488E-2;-6.835948229E-1
2.281530175E1;1.134511113E0;1.452881843E-1;-6.377799511E-1
2.283548575E1;1.166276097E0;4.207884073E-1;-5.186612606E-1
2.285498375E1;1.243856072E0;7.616512179E-1;-5.211046934E-1
2.286525175E1;1.259127617E0;9.669019580E-1;-6.548841596E-1
2.288490675E1;1.534627914E0;8.893221021E-1;-8.326459527E-1
2.289492075E1;1.835784435E0;6.681888700E-1;-6.524407268E-1
2.290494575E1;2.152212858E0;4.275079370E-1;-2.944736779E-1
2.292498775E1;3.736797333E0;1.562837511E-1;-2.254459262E-1
2.294491575E1;3.990306377E0;-1.500382781E0;-1.239482284E0
2.296490875E1;2.462532282E0;-1.077664018E0;-1.929149151E0
2.297503375E1;1.599990487E0;-9.356012195E-2;-1.955416322E0
2.298505175E1;1.061207294E0;8.300681710E-1;-1.782541513E0
2.300491975E1;1.209647536E0;1.235071778E0;-1.111200571E0
2.301502175E1;1.506528139E0;8.807699680E-1;-9.035063386E-1
2.302511575E1;1.736213446E0;4.800423384E-1;-8.809043169E-1
2.304491775E1;1.929246783E0;-1.473162770E-1;-8.851803541E-1
2.305499875E1;1.839449644E0;-2.420003861E-1;-7.550660968E-1
2.306501575E1;1.596325278E0;-1.338772327E-1;-5.528696775E-1
2.307503175E1;1.273788452E0;1.239079013E-1;-3.305147290E-1
2.308544575E1;9.640797377E-1;4.586620629E-1;-1.277074963E-1
2.309550975E1;7.209553719E-1;7.866967320E-1;5.799555033E-2
2.311501075E1;4.332378507E-1;1.271723628E0;4.220712483E-1
2.313495975E1;2.542543411E-1;1.232628345E0;9.437501431E-1
2.314520075E1;5.694486573E-2;1.075025082E0;1.134340048E0
2.316489775E1;-6.870890260E-1;6.810170412E-1;1.576606512E0
2.317507575E1;-1.134242415E0;4.782097340E-1;1.717105508E0
2.319490475E1;-1.842846036E0;1.159666553E-1;1.591267228E0
2.320490575E1;-2.027327299E0;1.892704815E-1;1.391514301E0
2.322499175E1;-2.167215347E0;7.647055984E-1;1.166715860E0
2.324491675E1;-2.858103991E0;1.241180420E0;1.870432734E0
2.325497075E1;-3.581368446E0;1.497743845E0;2.474578381E0
2.327502375E1;-4.770112038E0;1.612586498E0;2.800169468E0
2.329504775E1;-4.266148567E0;1.018825412E0;1.782468081E0
2.331529175E1;-1.019399643E0;-1.741943359E-1;-2.071199715E-1
2.333495575E1;-1.880242303E-2;-5.846957564E-1;-9.743667245E-1
2.335489575E1;-2.148901671E-1;-7.154209018E-1;-1.047059774E0
2.336491775E1;-6.565457582E-1;-6.213476658E-1;-7.996592522E-1
2.338522575E1;-1.927145481E0;-1.809138656E-1;-4.829500616E-2
2.339573575E1;-2.569775581E0;7.687128335E-2;2.614136636E-1
2.341499575E1;-3.205075502E0;5.893872380E-1;5.900591612E-1
2.343496075E1;-2.901475430E0;9.797301292E-1;6.517565846E-1
2.344496875E1;-2.442715645E0;1.069527268E0;6.364849210E-1
2.346497675E1;-1.176392078E0;1.029821038E0;5.393573642E-1
2.347497875E1;-5.105489492E-1;9.045937061E-1;3.988583684E-1
2.349494575E1;6.055018306E-1;4.647707045E-1;-8.861210942E-2
2.351492875E1;1.487591267E0;-1.546466500E-1;-7.862201929E-1
2.352493875E1;1.580442786E0;-2.218418270E-1;-8.008809686E-1
2.353504075E1;1.608542562E0;-1.662530899E-1;-7.318531871E-1
2.355495375E1;1.565782070E0;2.949501574E-1;-5.571457744E-1
2.356497975E1;1.498586893E0;6.571933031E-1;-4.765115380E-1
2.357505275E1;1.448495865E0;1.038984060E0;-4.117598236E-1
2.359505775E1;1.624425054E0;1.462924480E0;-4.355835617E-1
2.361491075E1;2.486356020E0;1.039594889E0;-8.320351243E-1
2.363487875E1;3.457020998E0;-1.302120388E-1;-9.664254785E-1
2.364491875E1;3.878517866E0;-5.633154511E-1;-5.595892072E-1
2.366490275E1;4.066053391E0;-2.731544971E-1;2.867401578E-2
2.367505275E1;3.380051851E0;4.449542612E-2;-1.478660405E-1
2.368511275E1;2.175425768E0;3.651996851E-1;-5.351545811E-1
2.370491475E1;-4.830600023E-1;1.482472181E0;-7.862201929E-1
2.371493775E1;-1.379211396E-1;1.343805790E0;-6.292278171E-1
2.373496675E1;1.554175615E0;1.617815495E-1;-5.363762975E-1
2.374507875E1;2.219408035E0;-4.832921624E-1;-5.992954373E-1
2.376510975E1;2.387395859E0;-1.059948921E0;-6.402234435E-1
2.378489875E1;1.536460519E0;-6.909863353E-1;-5.021678805E-1
2.380490575E1;6.012257934E-1;-1.509814560E-1;-3.354016542E-1
2.381493775E1;4.026945829E-1;8.847772330E-2;-2.688173354E-1
2.382493875E1;4.955461025E-1;1.923248023E-1;-2.285002619E-1
2.384491475E1;1.177882552E0;-5.629733950E-2;-2.449936122E-1
2.386492775E1;1.658633590E0;-4.832921624E-1;-2.193372846E-1
2.387499675E1;1.642140150E0;-6.885428429E-1;-4.951673746E-2
2.389494275E1;1.099080920E0;-1.001305938E0;6.877976060E-1
2.391485875E1;-5.612507463E-1;-1.205334902E0;2.064687729E0
2.392498775E1;-1.108586073E0;-1.209000111E0;2.287653685E0
2.394489275E1;-1.720672965E0;-1.026962280E0;2.218014956E0
2.396496875E1;-2.021218538E0;-7.917791009E-1;1.823396087E0
2.398487075E1;-2.467761040E0;-1.862625957E0;2.249779940E0
2.400491775E1;-2.681563854E0;-2.725778341E0;3.204562426E0
2.401496375E1;-3.068852425E0;-2.238307953E0;3.174019098E0
2.402497475E1;-3.705374002E0;-8.669155240E-1;2.586366653E0
2.403505975E1;-4.244157314E0;8.612222672E-1;1.660295010E0
2.404507475E1;-4.321126461E0;1.864262938E0;8.667811155E-1
2.406491575E1;-3.173310518E0;1.448874593E0;-2.022330463E-1
2.407512675E1;-2.484865189E0;6.871256828E-1;-6.109018922E-1
2.409496375E1;-2.428665638E0;-5.175005794E-1;-7.459031343E-1
2.411494975E1;-3.224623203E0;-7.624575496E-1;-1.112141237E-1
2.412495475E1;-3.442091227E0;-5.773653984E-1;1.422949433E-1
2.413502575E1;-3.479964733E0;-3.049195111E-1;2.730201185E-1
2.415490675E1;-3.212405920E0;3.523715138E-1;3.121154904E-1
2.416491875E1;-2.958896637E0;6.901800036E-1;3.273871243E-1
2.417512375E1;-2.592377663E0;1.004164696E0;3.506000042E-1
2.419505275E1;-1.580784917E0;1.296769142E0;3.035633862E-1
2.421491775E1;-5.276531577E-1;1.211248040E0;1.080864966E-1
2.422510275E1;-9.577144682E-2;1.045703530E0;-8.983384073E-2
2.424494775E1;5.413609743E-1;7.317188382E-1;-6.701558232E-1
2.426497075E1;1.036161900E0;7.023972869E-1;-9.652037024E-1
2.427509075E1;1.199262857E0;8.221269250E-1;-9.035063386E-1
2.429494375E1;1.475373983E0;1.275999665E0;-4.526877999E-1
2.430495675E1;1.650081396E0;1.213691473E0;-4.013751149E-1
2.431527875E1;1.970174909E0;9.308609366E-1;-4.917831421E-1
2.433504675E1;3.009867668E0;1.452881843E-1;-1.153961182E0
2.435489775E1;3.207177162E0;6.492520571E-1;-1.784984946E0
2.436516075E1;2.971383095E0;9.864496589E-1;-1.507041216E0
2.438499475E1;3.447247028E0;6.914017200E-1;-4.221445322E-1
2.440893675E1;4.194335461E0;-6.423859298E-2;-1.148463368E0
2.442627675E1;3.606071949E0;-5.737001896E-1;-1.271858096E0
2.444492575E1;1.829675794E0;-2.621589303E-1;-1.036064148E0
2.445495875E1;1.333042383E0;-3.858225048E-2;-9.071715474E-1
2.446516075E1;1.310440302E0;-5.629733950E-2;-8.766282797E-1
2.448489775E1;1.976894259E0;-7.123665810E-1;-1.071494341E0
2.449498375E1;2.356241703E0;-1.070333719E0;-1.073326945E0
2.451491075E1;2.019654989E0;-8.412591815E-1;-9.316061139E-1
2.452499375E1;1.759426355E0;-7.172535062E-1;-7.538443804E-1
2.454497575E1;1.297001362E0;-4.948985875E-1;-2.846998572E-1
2.456492975E1;9.060475826E-1;-3.495126665E-1;2.357573211E-1
2.458542575E1;3.464950025E-1;-4.319794774E-1;9.840672612E-1
2.460503975E1;-5.581964254E-1;-6.903754473E-1;1.835002542E0
2.461531475E1;-1.081097126E0;-7.954442501E-1;2.155095816E0
2.463484875E1;-2.149500370E0;-8.284310102E-1;2.524669409E0
2.464490875E1;-2.665681362E0;-6.402844787E-1;2.555212736E0
2.465495075E1;-3.145210743E0;-2.285613418E-1;2.514895439E0
2.467494775E1;-4.006530762E0;1.018825412E0;2.543606281E0
2.469500575E1;-4.574635506E0;1.017603755E0;2.664557457E0
2.471506075E1;-4.340673923E0;-6.280671954E-1;2.086678982E0
2.472529875E1;-4.035852432E0;-8.046072721E-1;1.635249615E0
2.474489475E1;-2.755478621E0;4.073493779E-1;1.043931961E0
2.475490475E1;-2.132395983E0;7.182798386E-1;8.160793185E-1
2.477490375E1;-1.209378839E0;3.370998800E-1;9.525833279E-2
2.478495475E1;-1.035282135E0;-5.935166776E-2;-2.969171405E-1
2.479503475E1;-1.116527319E0;-3.855537176E-1;-5.076656342E-1
2.481491175E1;-1.704790473E0;-7.447424531E-1;-2.242241949E-1
2.482502475E1;-1.976625562E0;-9.597670436E-1;5.371949077E-2
2.484489175E1;-2.100020170E0;-1.270086646E0;2.681331933E-1
2.485496675E1;-2.006557941E0;-1.213886976E0;2.223182917E-1
2.487556075E1;-1.662029982E0;-8.455352187E-1;1.441275477E-1
2.489492675E1;-9.363220334E-1;-9.478185326E-2;-5.534438416E-3
2.491490575E1;-4.989424944E-1;2.674612403E-1;-1.979569942E-1
2.492509975E1;-2.729223669E-1;3.829147518E-1;-3.415103257E-1
2.494495575E1;2.621955872E-1;6.278717518E-1;-8.234829903E-1
2.495505075E1;5.505239964E-1;7.176689506E-1;-1.045227170E0
2.497501375E1;1.075868130E0;9.455217123E-1;-1.257197380E0
2.499489475E1;1.536460519E0;1.162378788E0;-1.169843674E0
2.500496775E1;1.744765520E0;1.285773516E0;-9.487103820E-1
2.501506375E1;1.868160367E0;1.461702704E0;-6.664906144E-1
2.502511375E1;1.882210255E0;1.672451258E0;-3.463972211E-1
2.504498475E1;1.562727690E0;2.466576099E0;1.093082279E-1
2.505521175E1;1.121683002E0;3.183732033E0;-1.215988323E-1
2.507526075E1;3.495371714E-2;4.246637344E0;-1.337220669E0
2.508527075E1;1.305553436E0;3.563690186E0;-1.718400598E0
2.510495475E1;4.354382038E0;1.661455750E0;-2.234581709E0
2.512528575E1;4.569406509E0;1.215524077E0;-2.962122202E0
2.514493675E1;3.136316776E0;1.756139755E0;-2.540625334E0
2.516493675E1;1.995831132E0;1.742700815E0;-1.517426014E0
2.518488475E1;1.873047233E0;9.754540920E-1;-9.969686866E-1
2.519493575E1;2.163819313E0;4.372817576E-1;-8.436415195E-1
2.520493775E1;2.495518923E0;-8.378627896E-2;-7.471248507E-1
2.521505075E1;2.729480505E0;-4.857356250E-1;-6.976447701E-1
2.522533375E1;2.820499420E0;-7.135882974E-1;-6.512190104E-1
2.524493875E1;2.647013664E0;-8.119376302E-1;-4.557421207E-1
2.526492375E1;2.323865891E0;-9.322780967E-1;-2.370523661E-1
2.527494175E1;1.964676976E0;-1.110650778E0;-7.028615475E-2
2.529507775E1;1.246910334E0;-1.223660827E0;2.125444561E-1
2.530508675E1;7.588290572E-1;-1.361105561E0;4.507819116E-1
2.532494175E1;-1.672426760E-1;-1.931653738E0;1.051873207E0
2.533502975E1;-4.690101147E-1;-2.196768999E0;1.364025354E0
2.535487575E1;-9.088330865E-1;-2.536410093E0;1.910749793E0
2.536493575E1;-1.043223500E0;-2.436839104E0;2.175865412E0
2.538498475E1;-1.286347866E0;-2.020839930E0;2.972433567E0
2.539698275E1;-1.461666107E0;-2.008011818E0;3.541759968E0
2.541500975E1;-2.038933754E0;-2.668357134E0;4.659643650E0
2.543500175E1;-2.936294794E0;-2.683017731E0;4.365206718E0
2.545494075E1;-3.465304136E0;-1.310403705E0;2.868586540E0
2.546498675E1;-2.661405325E0;3.713083267E-1;1.360971093E0
2.547512875E1;-2.048096657E0;7.182798386E-1;5.277509093E-1
2.549492575E1;-1.133631468E0;4.837075174E-1;-6.952012777E-1
2.551497075E1;-7.878817916E-1;-2.242852896E-1;-4.245879948E-1
2.553489875E1;-1.274741411E0;-3.269106448E-1;2.320921421E-1
2.554490675E1;-1.739609838E0;-1.778595299E-1;5.686789155E-1
2.555511475E1;-2.219749689E0;2.555860020E-2;9.180938005E-1
2.557494075E1;-2.759143829E0;4.782097340E-1;1.379907846E0
2.559494375E1;-2.497082710E0;6.687996984E-1;1.245517492E0
2.561490575E1;-1.759157538E0;3.193847835E-1;6.981823444E-1
2.562496875E1;-1.292456508E0;3.777590394E-2;4.776599705E-1
2.563497375E1;-8.312532306E-1;-2.328374088E-1;3.029525280E-1
2.565497375E1;-1.446406692E-1;-5.712566972E-1;-1.775174402E-2
2.567506275E1;2.939605713E-1;-5.003963709E-1;-3.207409084E-1
2.569490575E1;2.933497131E-1;-1.467054039E-1;-7.153598666E-1
2.570492575E1;3.862012327E-1;1.397904009E-1;-9.719232321E-1
2.571496275E1;5.480805039E-1;4.244535863E-1;-1.170454502E0
2.573498275E1;7.356161475E-1;9.656802416E-1;-1.274301648E0
2.575488875E1;9.029932022E-1;1.742089868E0;-1.051946640E0
2.576501075E1;1.210258484E0;1.922906041E0;-8.247047067E-1
2.578489975E1;2.232846975E0;1.894806266E0;-5.430958271E-1
2.579503075E1;2.899301052E0;2.197184563E0;-4.759006798E-1
2.581500475E1;4.300625801E0;3.275972605E0;-6.756535769E-1
2.583492975E1;4.406305313E0;3.622944117E0;-1.054390073E0
2.585489875E1;3.213896513E0;2.103111267E0;-1.865619183E0
2.586492375E1;3.163194656E0;1.239958644E0;-1.782541513E0
2.587505775E1;3.420979977E0;1.122061729E0;-1.614553571E0
2.589513875E1;3.450301409E0;8.551136255E-1;-1.185726166E0
2.591494075E1;2.626855135E0;6.028262973E-1;-8.821260333E-1
2.592494475E1;2.218186140E0;5.209703445E-1;-7.446813583E-1
2.593495375E1;1.856553912E0;4.330057204E-1;-6.267843843E-1
2.594503675E1;1.556008220E0;3.487063050E-1;-5.931867957E-1
2.596495075E1;1.165665269E0;1.941574067E-1;-5.870781541E-1
2.598495275E1;8.779477477E-1;-4.163657874E-2;-3.689992428E-1
2.600491175E1;8.785586357E-1;-3.861645758E-1;-1.399247944E-1
2.601508575E1;9.634689093E-1;-6.842668056E-1;3.050661087E-2
2.602521175E1;1.045935750E0;-1.036736131E0;2.717984021E-1
2.604498175E1;8.303002715E-1;-1.626831889E0;9.125960469E-1
2.605508975E1;-1.293690354E-1;-2.009844303E0;1.600430250E0
2.607494875E1;-1.202048421E0;-2.083148241E0;2.005434036E0
2.609502675E1;-1.787257314E0;-1.752670169E0;2.133715630E0
2.611491175E1;-2.048707485E0;-1.398979187E0;2.193580389E0
2.612495475E1;-2.312601328E0;-1.387372732E0;2.317585945E0
2.613496175E1;-2.679731369E0;-1.511378407E0;2.657837868E0
2.614496775E1;-2.976611853E0;-1.639660120E0;3.196010351E0
2.616489775E1;-3.276546717E0;-1.367214203E0;3.627892017E0
2.617541575E1;-3.454308510E0;-7.038145065E-1;3.114765167E0
2.619494475E1;-3.640622377E0;1.253397703E0;1.484365821E0
2.621520375E1;-3.473245382E0;1.702994585E0;2.797396481E-1
2.623485375E1;-3.053580761E0;6.101566553E-1;-2.272785306E-1
2.624492475E1;-2.889868975E0;-7.401243597E-2;-2.737042606E-1
2.625493675E1;-2.859325647E0;-6.677734256E-1;-2.963062823E-1
2.627495575E1;-2.964394569E0;-3.513452709E-1;-2.175046802E-1
2.629526175E1;-2.977833509E0;2.998370826E-1;-8.588764817E-3
2.631493375E1;-2.601540565E0;6.040480137E-1;1.746708006E-1
2.633493275E1;-1.621712804E0;2.338636369E-1;1.245798618E-1
2.635489075E1;-3.749368787E-1;-3.232454658E-1;-7.700566947E-2
2.636490475E1;1.400225312E-1;-5.449895263E-1;-2.028439194E-1
2.638494475E1;7.826527953E-1;-6.702169180E-1;-4.209227860E-1
2.640495975E1;1.063650846E0;-3.678386211E-1;-7.428487539E-1
2.641851175E1;1.216977954E0;9.092118591E-2;-1.128304839E0
2.643493675E1;1.275010109E0;2.595199943E-1;-1.238871455E0
2.644494075E1;1.410011411E0;4.152906239E-1;-1.403805017E0
2.645494675E1;1.526686668E0;4.549968541E-1;-1.467334986E0
2.646530075E1;1.691009402E0;5.851112008E-1;-1.536362767E0
2.648492775E1;1.988500714E0;1.213691473E0;-1.492991328E0
2.650490275E1;1.844947457E0;2.217343092E0;-1.028122902E0
2.651491875E1;1.638474941E0;2.502006292E0;-6.848165989E-1
2.652501175E1;1.513858438E0;2.351122618E0;-3.708318472E-1
2.654495875E1;1.685511589E0;1.591817021E0;-7.395134121E-2
2.655498475E1;1.836395383E0;1.561884642E0;-1.863505542E-1
2.657491375E1;2.394115448E0;2.334629297E0;-3.726644516E-1
2.659491375E1;2.708100080E0;2.831873655E0;-1.044946089E-1
2.660492475E1;2.662896156E0;2.726804733E0;1.178603396E-1
2.661530775E1;2.436876059E0;2.348679304E0;4.202386439E-1
2.663492175E1;1.904812217E0;1.222243547E0;9.962845445E-1
2.664503875E1;2.212077618E0;3.297694921E-1;1.026827812E0
2.666488875E1;3.046519518E0;-6.500583291E-1;5.747875571E-1
2.667503475E1;3.302472115E0;-9.206716418E-1;3.029525280E-1
2.669489075E1;3.108827829E0;-9.133412838E-1;-9.810494259E-3
2.670490275E1;2.714208841E0;-7.349686027E-1;-8.588764817E-3
2.671492775E1;2.273164034E0;-5.260527134E-1;5.066516250E-2
2.673485475E1;1.529130101E0;-1.943528950E-1;2.449203134E-1
2.674499775E1;1.184602141E0;-1.674748212E-1;3.872519135E-1
2.675509475E1;8.327437043E-1;-2.242852896E-1;5.540181398E-1
2.677490175E1;-3.530792892E-3;-5.718675852E-1;9.205372930E-1
2.679493875E1;-1.026730061E0;-9.029565454E-1;1.083027363E0
2.680498375E1;-1.421959877E0;-9.756495357E-1;1.080583930E0
2.682520275E1;-1.917371631E0;-7.661227584E-1;9.064874053E-1
2.683540075E1;-2.693781137E0;-5.724784732E-1;8.099706769E-1
2.685496275E1;-3.266772747E0;-5.584285259E-1;1.430609703E0
2.687496875E1;-3.070074320E0;-1.247142479E-1;1.437940121E0
2.688517575E1;-2.855660439E0;2.405831516E-1;1.010945320E0
2.690493775E1;-2.431109190E0;5.325767994E-1;5.738468468E-2
2.691504875E1;-2.450656891E0;3.755843937E-1;-2.669847608E-1
2.693493075E1;-3.139101982E0;-1.509814560E-1;-4.942266345E-1
2.695490475E1;-4.018136978E0;-6.396736503E-1;-1.069380641E-1
2.696491675E1;-4.259428978E0;-7.258056402E-1;1.025887132E-1
2.698497475E1;-4.025467396E0;-5.700349808E-1;3.640390337E-1
2.699500275E1;-3.577092409E0;-5.229983926E-1;4.477275908E-1
2.701495475E1;-2.241130114E0;-9.060108662E-1;5.240857601E-1
2.702506175E1;-1.489765882E0;-1.152189612E0;5.399682522E-1
2.704514275E1;1.082575470E-1;-1.418526888E0;3.560977876E-1
2.706496375E1;4.894374609E-1;-1.135696292E0;2.256536298E-2
2.707501775E1;5.456370711E-1;-8.986805081E-1;-2.144503593E-1
2.708529875E1;5.786237717E-1;-6.017999649E-1;-4.954483509E-1
2.710492675E1;5.816780925E-1;1.544511616E-1;-9.652037024E-1
2.711494675E1;5.493022799E-1;5.637308955E-1;-1.027512074E0
2.712495175E1;5.175372362E-1;8.807699680E-1;-1.016516447E0
2.714497575E1;3.953642249E-1;1.285162687E0;-9.322170019E-1
2.715498275E1;3.214495182E-1;1.476363540E0;-9.254974723E-1
2.716511375E1;3.587122858E-1;1.611364722E0;-1.028733730E0
2.718488375E1;1.215145350E0;1.637021065E0;-1.648761988E0
2.719489975E1;1.895649195E0;1.695053339E0;-2.012226820E0
2.720491775E1;2.495518923E0;1.891141057E0;-2.249853373E0
2.721505875E1;2.813779831E0;2.206347704E0;-2.274287939E0
2.723487375E1;2.465586662E0;2.445195913E0;-1.391587734E0
2.724516675E1;2.569433689E0;1.990101218E0;-1.023846865E0
2.726493775E1;3.121045113E0;1.558219433E0;-1.130748272E0
2.727502575E1;3.427699327E0;1.563717246E0;-1.292016745E0
2.729521375E1;3.435640574E0;1.489191651E0;-1.053168416E0
2.731488375E1;2.646402836E0;1.352968693E0;-3.024149239E-1
2.732490075E1;2.339137554E0;1.308986425E0;3.722612932E-2
2.733507575E1;2.232846975E0;1.202695847E0;3.053959906E-1
2.734532375E1;2.241399050E0;1.052423000E0;5.033162832E-1
2.736502975E1;2.303096533E0;5.954958797E-1;6.584761143E-1
2.738488175E1;2.224905729E0;5.304753780E-2;5.082032084E-1
2.739518375E1;2.038591862E0;-9.050579369E-2;3.451022208E-1
2.741726775E1;1.062429070E0;2.678033151E-2;-7.977899164E-3
2.743489775E1;5.395284295E-1;2.271441221E-1;-6.475159898E-4
2.744498775E1;4.173553586E-1;3.065566123E-1;9.737192653E-3
2.746574775E1;2.035525292E-1;6.621778011E-3;1.270233244E-1
2.748489075E1;-3.089634180E-1;-4.777943790E-1;3.713694215E-1
2.749491975E1;-7.597819567E-1;-6.182933450E-1;5.442442894E-1
2.750492175E1;-1.330330133E0;-6.928188801E-1;7.134539485E-1
2.752500575E1;-2.352307558E0;-4.539706111E-1;8.857179880E-1
2.754490575E1;-2.591155767E0;-7.086051628E-4;1.285223722E0
2.755503775E1;-2.401787519E0;-3.247359768E-2;1.503302693E0
2.757503675E1;-1.856285095E0;-9.188390374E-1;1.673123240E0
2.759489275E1;-2.260066986E0;-1.504047990E0;2.149598122E0
2.760491175E1;-2.711496353E0;-1.607284188E0;2.260164738E0
2.761504175E1;-3.259442329E0;-1.604840755E0;1.815454841E0
2.763485175E1;-2.545951843E0;-8.070507050E-1;7.739295959E-1
2.764490475E1;-2.053594351E0;-4.869573414E-1;3.011199236E-1
2.766500875E1;-1.682188511E0;-2.963673770E-1;-1.380922049E-1
2.768487275E1;-2.377352953E0;-4.136535227E-1;-8.588764817E-3
2.769543575E1;-2.867877722E0;-4.729074538E-1;2.125444561E-1
2.771502175E1;-3.330302715E0;-5.486547351E-1;5.424116850E-1
2.772523475E1;-3.203853607E0;-5.584285259E-1;5.589050651E-1
2.773525775E1;-2.827560663E0;-5.401026011E-1;4.660535455E-1
2.774619675E1;-2.253347397E0;-5.456003547E-1;3.279979825E-1
2.776494375E1;-8.807333112E-1;-7.594032288E-1;4.944343120E-2
2.777496475E1;-2.356595844E-1;-8.644720316E-1;-7.761653513E-2
2.779494275E1;7.172902226E-1;-8.852414489E-1;-2.859215736E-1
2.781488775E1;1.212701917E0;-3.482909501E-1;-2.376632392E-1
2.782500275E1;1.282340527E0;-8.561887592E-2;-2.816455066E-1
2.784517775E1;1.416730881E0;3.670322597E-1;-5.137743354E-1
2.785520075E1;1.499197721E0;6.376456022E-1;-6.609928608E-1
2.787513075E1;1.648859739E0;1.303488612E0;-9.059497714E-1
2.789491175E1;1.857164741E0;1.766524553E0;-1.190613031E0
2.790536475E1;2.009881258E0;1.870982528E0;-1.279188514E0
2.792496775E1;2.336083174E0;2.324244499E0;-1.115476608E0
2.793512575E1;2.458867073E0;2.406100512E0;-7.831658721E-1
2.794532075E1;2.651900530E0;2.046911716E0;-5.803586245E-1
2.796497975E1;3.855305195E0;9.956126809E-1;-1.097761512E0
2.797510075E1;4.313454151E0;4.525533915E-1;-1.533919334E0
2.799494075E1;3.555981159E0;-2.474981695E-1;-1.959081531E0
2.800508675E1;2.555994749E0;-1.308229119E-1;-1.620051384E0
2.801549775E1;6.995751262E-1;5.716721416E-1;-1.385479093E0
2.802632575E1;3.556579649E-1;7.451578975E-1;-1.169843674E0
2.804504075E1;7.148467302E-1;1.654467285E-1;-8.796826005E-1
2.805511375E1;9.701883793E-1;-3.067520857E-1;-7.538443804E-1
2.807506775E1;1.129013419E0;-8.101050258E-1;-4.374161661E-1
2.809494575E1;9.029932022E-1;-7.710096836E-1;-7.822740078E-2
2.811519675E1;6.830817461E-1;-7.502402663E-1;1.645671017E-2
2.812551075E1;6.055018306E-1;-7.001492977E-1;-4.585154355E-2
2.814508575E1;4.106358290E-1;-4.649662077E-1;-1.716897935E-1
2.816505375E1;7.160563767E-2;-2.132897228E-1;-2.022330463E-1
2.817522475E1;-1.489167213E-1;-1.491488665E-1;-8.677951247E-2
2.819496175E1;-7.335147858E-1;-3.012543023E-1;4.098539352E-1
2.821505275E1;-1.619880199E0;-8.119376302E-1;1.351808071E0
2.823485675E1;-2.049318314E0;-9.218933582E-1;1.423279285E0
2.824504175E1;-2.202034712E0;-8.718024492E-1;1.274228215E0
2.825526375E1;-2.340701103E0;-7.783400416E-1;1.093412042E0
2.827524475E1;-2.687672615E0;-4.521380365E-1;9.266459346E-1
2.828587075E1;-2.869099617E0;-2.878152728E-1;9.406958222E-1
2.830507675E1;-3.059078693E0;2.479135394E-1;1.049429774E0
2.831524975E1;-3.194079876E0;2.295875847E-1;1.262010932E0
2.833502575E1;-3.703541517E0;-8.125485182E-1;1.707331657E0
2.834503075E1;-3.800668955E0;-1.547419429E0;1.778802872E0
2.835524775E1;-3.777456045E0;-2.047106981E0;1.703055620E0
2.837499175E1;-3.159871340E0;-9.487714171E-1;6.780237556E-1
2.839496875E1;-2.067644358E0;6.926234961E-1;-2.132286280E-1
2.840539575E1;-1.118359923E0;6.681888700E-1;-3.311256170E-1
2.842496675E1;-6.070656776E-1;-2.658241391E-1;-8.005999774E-2
2.844492975E1;-8.019316792E-1;-7.875030041E-1;2.424768507E-1
2.846505875E1;-1.196550608E0;-5.492655635E-1;5.155336261E-1
2.848497575E1;-1.234424233E0;-1.583118439E-1;6.609195471E-1
2.850488775E1;-8.624073267E-1;-5.079955608E-2;5.424116850E-1
2.851499775E1;-5.667485595E-1;-5.568647385E-2;3.933605850E-1
2.853525075E1;1.809505075E-1;-2.560502887E-1;5.249775946E-2
2.855488975E1;9.127670527E-1;-6.476148963E-1;-2.132286280E-1
2.856497375E1;1.154669762E0;-7.917791009E-1;-2.932519615E-1
2.858497775E1;1.450939298E0;-9.426627755E-1;-3.488406837E-1
2.860492175E1;2.002550840E0;-6.390627623E-1;-9.248866439E-1
2.861510575E1;2.193140745E0;-3.226346076E-1;-1.144187331E0
2.863486575E1;2.212077618E0;5.710613132E-1;-1.358600974E0
2.864489975E1;2.125334740E0;9.235305190E-1;-1.240093112E0
2.865492875E1;2.007437706E0;1.059142590E0;-9.316061139E-1
2.867492675E1;1.859608173E0;1.362131715E0;-5.235481858E-1
2.868498275E1;1.746598125E0;1.641297102E0;-6.066258550E-1
2.869502075E1;1.585940599E0;1.867317319E0;-7.544552088E-1
2.871505675E1;1.652524829E0;2.487956524E0;-6.096801758E-1
2.873489675E1;2.270109653E0;1.993155599E0;1.942184865E-1
2.874492875E1;2.512012482E0;1.553332567E0;5.921727419E-2
2.875511875E1;2.415495634E0;1.385955453E0;-3.213517666E-1
2.876528475E1;2.011102915E0;1.621138573E0;-6.054040790E-1
2.878515575E1;1.129624248E0;2.637618542E0;-5.614218116E-1
2.880503775E1;1.637864113E0;2.028585911E0;-4.313074946E-1
2.882502275E1;2.658620119E0;4.843184054E-1;-6.707666516E-1
2.883509375E1;3.036745548E0;-4.346917197E-2;-8.289808035E-1
2.885496475E1;3.289032936E0;-4.533597529E-1;-1.134413481E0
2.887531875E1;2.805838585E0;-1.876333803E-1;-1.244369149E0
2.889492475E1;1.979337811E0;2.387505770E-1;-1.196721673E0
2.890495075E1;1.604266524E0;3.285477459E-1;-1.095318079E0
2.891596375E1;1.278675318E0;2.772350609E-1;-9.371039271E-1
2.893505475E1;6.836926341E-1;-3.409605622E-1;-3.207409084E-1
2.895523975E1;-1.574809663E-2;-1.326897144E0;4.984293878E-1
2.897490975E1;-8.165924549E-1;-1.552306414E0;9.443610311E-1
2.898491275E1;-1.227093935E0;-1.325675368E0;1.087914348E0
2.899525275E1;-2.102463722E0;-3.782233298E-1;1.183820128E0
2.901495775E1;-2.999824762E0;6.840713620E-1;1.323708296E0
2.902535675E1;-3.313198566E0;7.097277045E-1;1.510022163E0
2.904493575E1;-3.239283800E0;-3.195802569E-1;2.419600487E0
2.905518475E1;-2.768917561E0;-8.925718665E-1;2.595529795E0
2.907500075E1;-2.399344206E0;-1.589569092E0;1.943736553E0
2.909491175E1;-3.015707254E0;-3.030869067E-1;1.040266752E0
2.910498375E1;-3.393221855E0;6.345912814E-1;5.375247598E-1
2.911505075E1;-3.571594477E0;1.422607422E0;5.799555033E-2
2.913486875E1;-2.944846869E0;1.765913606E0;-6.878709197E-1
2.914499275E1;-2.305270910E0;1.293103933E0;-8.967868090E-1
2.915561475E1;-1.635762691E0;5.441831946E-1;-9.816970825E-1
2.917508575E1;-8.239228129E-1;-1.139972329E0;-7.837767601E-1
2.919491375E1;-1.310782433E0;-1.745950699E0;-6.051231176E-2
2.920494475E1;-1.603997707E0;-1.325675368E0;1.740599424E-1
2.922498975E1;-1.899045706E0;-2.322265357E-1;4.856012166E-1
2.923517075E1;-1.799474597E0;1.318491399E-1;5.705115199E-1
2.925498875E1;-1.133020639E0;2.576873899E-1;5.405790806E-1
2.926502875E1;-6.644870043E-1;1.031384915E-1;4.678861499E-1
2.927505475E1;-1.788491160E-1;-1.143295392E-1;4.074104726E-1
2.929502475E1;5.896193385E-1;-4.759617746E-1;3.591521084E-1
2.930504675E1;7.954809666E-1;-5.413243175E-1;3.096720278E-1
2.932514075E1;9.207082987E-1;-3.354627788E-1;1.025887132E-1
2.934492275E1;9.720209837E-1;3.554258347E-1;-1.484769136E-1
2.935500475E1;9.317038655E-1;8.746613264E-1;-2.205590159E-1
2.937518775E1;7.233988643E-1;2.153813124E0;4.471167326E-1
2.939538475E1;9.689667225E-1;2.287592649E0;4.104647934E-1
2.941518975E1;2.034926653E0;1.308986425E0;4.177951813E-1
2.943531075E1;3.260933161E0;-2.086715773E-2;2.439795807E-2
2.945492075E1;3.413038731E0;2.326419055E-1;-8.460850120E-1
2.946696775E1;2.997039318E0;1.035318851E0;-1.235817075E0
2.948496275E1;1.874269009E0;2.408544064E0;-1.557132244E0
2.950490075E1;1.344648838E0;1.816004634E0;-1.618829608E0
2.951495475E1;1.319603324E0;8.905438185E-1;-1.628603458E0
2.952499275E1;1.466210961E0;-6.206392311E-3;-1.654870629E0
2.954492775E1;1.660466075E0;-6.470040083E-1;-1.678694367E0
2.955507275E1;1.560895085E0;-4.716857076E-1;-1.609666586E0
2.956515775E1;1.355033517E0;-1.601444334E-1;-1.480163217E0
2.958489075E1;9.885143042E-1;3.853582144E-1;-9.707015157E-1
2.959509675E1;1.005007744E0;1.947682649E-1;-8.228721023E-1
2.961489375E1;8.492370844E-1;-5.553742051E-1;-2.883650362E-1
2.962501175E1;6.647557616E-1;-9.218933582E-1;-7.977899164E-3
2.964493975E1;2.114937603E-1;-1.212054372E0;5.692897439E-1
2.966490175E1;-1.788491160E-1;-1.336670876E0;1.230245948E0
2.967491075E1;-3.492805362E-1;-1.314068913E0;1.471537709E0
2.969488775E1;-7.842165828E-1;-1.094157457E0;1.407396793E0
2.970491275E1;-1.229537368E0;-1.009858012E0;1.246739268E0
2.972499575E1;-2.013888359E0;-1.026962280E0;1.110516310E0
2.974491675E1;-2.365135670E0;-1.293910384E0;1.600430250E0
2.976497975E1;-2.653464079E0;-1.758778811E0;2.488017559E0
2.977529675E1;-3.339465857E0;-2.527247190E0;2.456863403E0
2.979491975E1;-3.239894629E0;-1.854073763E0;7.818709016E-1
2.980506975E1;-2.852606297E0;-1.177235126E0;-1.958433911E-2
2.982490575E1;-2.085359335E0;-8.944044113E-1;-5.351545811E-1
2.984491075E1;-1.907597780E0;-1.400811791E0;-2.144503593E-1
2.986490675E1;-1.968073368E0;-1.461898327E0;1.340238471E-2
2.987503675E1;-1.955245256E0;-1.323842764E0;1.828930527E-2
2.988505875E1;-1.945471406E0;-1.077053189E0;-3.974289447E-2
2.989507775E1;-1.918593287E0;-7.820052505E-1;-1.551964283E-1
2.991487575E1;-1.805583239E0;-1.955746263E-1;-3.237952292E-1
2.992494575E1;-1.695016623E0;1.135231927E-1;-3.286821544E-1
2.994492375E1;-1.090260029E0;3.774169683E-1;-2.156720906E-1
2.996492575E1;3.324450850E-1;1.239079013E-1;1.279151905E-2
2.997501575E1;6.085561514E-1;1.239079013E-1;9.159313887E-2
2.999489875E1;8.755043149E-1;2.106507570E-1;1.343536973E-1
3.001524975E1;1.077700734E0;3.193847835E-1;7.815410197E-2
3.003497275E1;1.427726507E0;4.097928405E-1;-9.044470638E-2
3.004576675E1;1.604266524E0;4.977574050E-1;-1.710789204E-1
3.006490575E1;1.888318896E0;7.451578975E-1;-4.190902114E-1
3.007509275E1;1.975061774E0;8.801590800E-1;-5.241590142E-1
3.009527075E1;1.906644821E0;1.075635910E0;-5.052222013E-1
3.011562975E1;1.678181171E0;1.600980043E0;-2.981388867E-1
3.013512775E1;1.703837514E0;1.856321692E0;-6.478836387E-2
3.015503675E1;2.550496817E0;1.316927671E0;9.709092230E-2
3.016504775E1;3.695869207E0;3.597018719E-1;-6.115127802E-1
3.017513775E1;3.922500372E0;1.550620198E-1;-1.052557468E0
3.018559175E1;3.739240646E0;2.240898013E-1;-1.436180949E0
3.020498375E1;2.499184132E0;8.007466197E-1;-1.786206722E0
3.021498675E1;1.852277875E0;9.986669421E-1;-1.690911651E0
3.022523375E1;1.416730881E0;9.107023478E-1;-1.485050082E0
3.024510175E1;1.141841531E0;1.440664530E-1;-1.156404614E0
3.026491575E1;1.249964714E0;-3.055303693E-1;-1.009796977E0
3.028491675E1;1.219421387E0;-3.366844952E-1;-8.851803541E-1
3.029493075E1;1.043492198E0;-2.193983644E-1;-7.733920217E-1
3.031486875E1;5.633521676E-1;9.214291722E-2;-4.123706818E-1
3.032497075E1;4.167445004E-1;2.369179726E-1;-1.759658456E-1
3.034492375E1;3.330559433E-1;3.346564174E-1;4.031344056E-1
3.036494275E1;1.968208700E-2;-9.783617407E-2;1.262010932E0
3.037508775E1;-1.788491160E-1;-2.981999815E-1;1.373188376E0
3.039787575E1;-5.887396932E-1;-6.922080517E-1;1.515519977E0
3.041495975E1;-6.779260039E-1;-7.453533411E-1;1.508189559E0
3.042524975E1;-6.608217955E-1;-5.975239277E-1;1.505746126E0
3.044504175E1;-1.002295494E0;-3.116390109E-1;1.632195234E0
3.046508275E1;-1.764044404E0;1.911030710E-1;1.703666449E0
3.048494375E1;-2.386516094E0;-5.507561564E-2;1.644412518E0
3.049503775E1;-2.669346571E0;-6.915971637E-1;1.704888225E0
3.051490975E1;-2.801293612E0;-1.689751029E0;1.336536407E0
3.052495575E1;-2.585047245E0;-1.670814276E0;9.290893674E-1
3.054495775E1;-2.144613266E0;-6.738820672E-1;-1.130467206E-1
3.056491475E1;-2.201423883E0;-1.827464551E-1;-7.617856264E-1
3.057500375E1;-2.251514673E0;-2.933130562E-1;-6.750427485E-1
3.058503375E1;-2.315655708E0;-4.277034104E-1;-4.813984632E-1
3.060538875E1;-2.486697912E0;-5.498764515E-1;1.523498073E-2
3.062492675E1;-2.390181303E0;-5.187222958E-1;3.377718329E-1
3.063497775E1;-2.156219721E0;-5.211657882E-1;3.976366222E-1
3.064500075E1;-1.836737394E0;-5.492655635E-1;4.324559569E-1
3.066501375E1;-1.183111548E0;-4.246490896E-1;4.581122994E-1
3.067514875E1;-9.436523914E-1;-2.884261310E-1;3.475456834E-1
3.069503775E1;-6.058439016E-1;-4.835609347E-2;-4.923572764E-3
3.071510275E1;-3.150720596E-1;1.984334588E-1;-3.701842390E-3
3.072520575E1;-1.012692302E-1;3.395433426E-1;1.093082279E-1
3.073526575E1;1.320812851E-1;4.519425333E-1;2.290378064E-1
3.075512875E1;6.879686713E-1;7.708142400E-1;1.539013833E-1
3.077505775E1;6.885794997E-1;1.251565099E0;-5.284350514E-1
3.079492775E1;7.227879763E-1;1.798289537E0;-7.324640751E-1
3.081511275E1;1.144284964E0;2.179469585E0;-2.566000521E-1
3.083486575E1;2.020876646E0;1.972996950E0;-4.936157465E-1
3.084492275E1;2.561492443E0;1.492856860E0;-5.681413412E-1
3.086491375E1;4.240761280E0;-3.598973751E-1;-4.655159712E-1
3.087498175E1;5.042216301E0;-1.265810609E0;-4.429139495E-1
3.089506975E1;4.990903378E0;-1.744728923E0;-7.532334924E-1
3.091489775E1;2.414884806E0;-4.224744439E-2;-9.945252538E-1
3.092494475E1;1.184602141E0;9.345260859E-1;-1.015905619E0
3.093494575E1;5.853433013E-1;1.332810163E0;-1.041561961E0
3.094495675E1;9.048258066E-1;3.236608207E-1;-1.158237219E0
3.096492175E1;2.106397867E0;-1.429522395E0;-1.345161915E0
3.097506275E1;2.406332731E0;-1.772828698E0;-1.324392557E0
3.099490875E1;1.765534997E0;-9.848124981E-1;-1.082489967E0
3.100491275E1;1.059374690E0;-2.352808714E-1;-8.130983114E-1
3.101492775E1;4.026945829E-1;2.888415158E-1;-4.337509573E-1
3.103489575E1;-1.782382578E-1;4.574403167E-1;2.491963655E-1
3.104491675E1;-1.165408641E-1;2.424157560E-1;5.063706040E-1
3.105497575E1;5.083621666E-2;-5.507561564E-2;7.568253875E-1
3.106498075E1;1.962221414E-1;-3.397388160E-1;9.938411117E-1
3.107499075E1;1.974438727E-1;-5.627046227E-1;1.175878882E0
3.109496675E1;-2.442117035E-1;-6.854885221E-1;1.425111890E0
3.110605175E1;-6.156177521E-1;-6.091303825E-1;1.483144164E0
3.112495375E1;-1.419516444E0;-3.421822786E-1;1.417170644E0
3.114491875E1;-2.038933754E0;-1.369315535E-1;1.389070868E0
3.115497375E1;-2.158663273E0;-6.206392311E-3;1.447103024E0
3.117500575E1;-2.440272093E0;4.940922558E-1;1.473981142E0
3.119499575E1;-3.138491154E0;2.363070995E-1;1.543619752E0
3.121514375E1;-3.582590103E0;-7.404664159E-1;1.112959743E0
3.123491475E1;-3.395054579E0;-7.838378549E-1;4.984293878E-1
3.124497275E1;-3.228288412E0;-1.839681864E-1;7.265631109E-2
3.126501875E1;-3.016318083E0;1.126337767E0;-2.859215736E-1
3.128488675E1;-2.990661621E0;1.274167180E0;-1.551964283E-1
3.130492075E1;-2.694391966E0;2.678033151E-2;1.233581305E-1
3.131495975E1;-2.380407333E0;-6.494475007E-1;1.948293597E-1
3.132496375E1;-1.961353898E0;-1.061170697E0;2.278160751E-1
3.134493375E1;-6.626543999E-1;-1.133863688E0;2.430877090E-1
3.136490475E1;1.198639870E-1;-8.156028390E-1;1.095892303E-2
3.137513175E1;4.289618134E-1;-6.384518743E-1;-9.899681807E-2
3.139700375E1;7.539421320E-1;-3.208020031E-1;-2.138394862E-1
3.141492575E1;8.700065017E-1;2.922379039E-2;-2.724825442E-1
3.142495475E1;9.017714858E-1;1.819400936E-1;-2.938628197E-1
3.143496275E1;9.329256415E-1;2.888415158E-1;-3.323473334E-1
3.144497275E1;9.891252518E-1;3.438193798E-1;-3.879360855E-1
3.146496375E1;1.251797318E0;3.914668858E-1;-5.223264098E-1
3.148491075E1;1.488813043E0;7.091168165E-1;-6.884817481E-1
3.149496475E1;1.489423871E0;1.001721263E0;-7.275771499E-1
3.151494075E1;1.348314047E0;1.572880268E0;-8.674653172E-1
3.152494175E1;1.323268533E0;1.691388130E0;-9.254974723E-1
3.153502075E1;1.573723316E0;1.637631893E0;-6.945904493E-1
3.155539775E1;2.148547649E0;1.472087502E0;7.815410197E-2
3.156543275E1;2.485745192E0;1.162378788E0;4.520036280E-1
3.158541075E1;3.182131529E0;5.325767994E-1;4.110756814E-1
3.160539575E1;2.815001488E0;6.914017200E-1;-9.716422111E-2
3.162494975E1;1.037994504E0;1.998042464E0;-6.906442344E-2
3.164500575E1;-4.952773154E-1;3.105541229E0;2.595810890E-1
3.166493775E1;-4.598471224E-1;2.572866678E0;6.261002421E-1
3.168489975E1;5.749585629E-1;6.687996984E-1;1.057981849E0
3.169503375E1;1.030664086E0;-7.706675678E-2;1.168548465E0
3.171495575E1;1.292725205E0;-4.832921624E-1;1.052484155E0
3.173492375E1;4.356813133E-1;7.921944857E-1;5.680680275E-1
3.175501175E1;2.353175282E-1;7.634838223E-1;6.138829589E-1
3.176505875E1;3.886446953E-1;4.226210117E-1;5.289726853E-1
3.178502775E1;7.197336555E-1;-5.700349808E-1;4.239038527E-1
3.179522475E1;7.221770883E-1;-9.958080649E-1;4.397863448E-1
3.181512975E1;2.792998254E-1;-1.383707523E0;5.833396912E-1
3.183532975E1;-7.628362775E-1;-1.032460093E0;7.207843661E-1
3.185507975E1;-1.853230715E0;-8.088833094E-1;6.022765040E-1
3.187491875E1;-2.399344206E0;-6.500583291E-1;2.809613645E-1
