"Time (s)";"Acceleration x (m/s^2)";"Acceleration y (m/s^2)";"Acceleration z (m/s^2)"
4.995900000E-2;-1.255758762E0;4.801571369E0;8.396465302E0
6.003300000E-2;-1.189918280E0;4.777629375E0;8.447940826E0
8.005400000E-2;-1.034295082E0;4.734533787E0;8.605957985E0
9.044200000E-2;-9.888052940E-1;4.732139587E0;8.674192429E0
1.099680000E-1;-1.108515382E0;4.654327869E0;8.756793022E0
1.199710000E-1;-1.163581967E0;4.610035419E0;8.854954720E0
1.300950000E-1;-1.151610970E0;4.599261284E0;8.801085472E0
1.406890000E-1;-1.104924083E0;4.590881824E0;8.723274231E0
1.608860000E-1;-1.048660398E0;4.611232281E0;8.432378769E0
1.801680000E-1;-1.107318282E0;4.659116745E0;8.190564156E0
2.005630000E-1;-1.021126986E0;4.636371613E0;8.346187592E0
2.199820000E-1;-9.157821536E-1;4.586093426E0;8.732851028E0
2.399680000E-1;-9.540894032E-1;4.576516628E0;8.895656586E0
2.503240000E-1;-1.004367590E0;4.578910828E0;8.902838707E0
2.700340000E-1;-1.034295082E0;4.651933670E0;8.725667953E0
2.899730000E-1;-1.027112484E0;4.693832397E0;8.597578049E0
3.002020000E-1;-1.003170490E0;4.704606533E0;8.604761124E0
3.200940000E-1;-9.983820915E-1;4.681861401E0;8.485051155E0
3.402930000E-1;-1.025915384E0;4.635174274E0;8.510190010E0
3.602080000E-1;-9.636662006E-1;4.566939831E0;8.911218643E0
3.802000000E-1;-9.121908545E-1;4.553771496E0;9.142259598E0
3.999700000E-1;-9.062053561E-1;4.498704910E0;8.908824921E0
4.199120000E-1;-9.085995555E-1;4.505887508E0;8.640673637E0
4.299510000E-1;-9.002198577E-1;4.532223701E0;8.435969353E0
4.400290000E-1;-9.337386489E-1;4.572925091E0;8.310274124E0
4.500640000E-1;-9.409212470E-1;4.608838081E0;8.279149055E0
4.606440000E-1;-8.978256583E-1;4.595670223E0;8.311470985E0
4.801000000E-1;-6.871358752E-1;4.490325451E0;8.677783966E0
4.902200000E-1;-5.829881430E-1;4.429273129E0;8.805873871E0
5.102510000E-1;-5.171475410E-1;4.428076267E0;8.854954720E0
5.302250000E-1;-7.457938194E-1;4.394556999E0;8.657433510E0
5.402250000E-1;-8.559271097E-1;4.401739597E0;8.572439194E0
5.506470000E-1;-8.930372596E-1;4.452018261E0;8.544905663E0
5.702250000E-1;-9.050082564E-1;4.503493309E0;8.518569946E0
5.803470000E-1;-8.774749041E-1;4.516661644E0;8.531737328E0
5.920670000E-1;-7.936778665E-1;4.498704910E0;8.621520042E0
6.101940000E-1;-6.703764796E-1;4.341884613E0;8.663418770E0
6.304870000E-1;-5.255272985E-1;4.349067211E0;8.157045364E0
6.502040000E-1;-8.403648138E-1;4.321534157E0;8.236053467E0
6.704950000E-1;-9.085995555E-1;4.250905037E0;8.467094421E0
6.902160000E-1;-7.003039718E-1;4.261679173E0;8.609549522E0
7.002230000E-1;-5.793967843E-1;4.260481834E0;8.726864815E0
7.201670000E-1;-5.997475386E-1;4.191050053E0;8.541314125E0
7.401860000E-1;-5.087678432E-1;4.162319660E0;8.518569946E0
7.503480000E-1;-4.285621047E-1;4.106055737E0;8.574832916E0
7.701690000E-1;-3.220201433E-1;3.976768970E0;8.593987465E0
7.904900000E-1;-5.039794445E-1;3.940855980E0;8.663418770E0
8.005020000E-1;-4.920084476E-1;3.960009575E0;8.762778282E0
8.207110000E-1;-3.292027414E-1;3.894169092E0;9.205705643E0
8.307280000E-1;-3.770867586E-1;3.745728493E0;9.302670479E0
8.502390000E-1;-2.657563984E-1;3.750516891E0;9.339780807E0
8.602490000E-1;-1.532289088E-1;3.734954596E0;9.369708061E0
8.702990000E-1;-1.675941236E-2;3.640383720E0;9.374496460E0
8.806110000E-1;1.568202078E-1;3.661931515E0;9.208099365E0
9.002090000E-1;1.047463298E0;4.077325344E0;8.269572258E0
9.202660000E-1;-2.777273953E-1;5.084087372E0;7.351396084E0
9.417700000E-1;-1.016338587E0;4.383783340E0;7.041347027E0
9.602570000E-1;-9.361328483E-1;4.313154221E0;8.240841866E0
9.806960000E-1;-1.034295082E0;3.945644379E0;8.401253700E0
1.000203000E0;-7.074866295E-1;3.819948912E0;8.220491409E0
1.010211000E0;-4.369418025E-1;3.817554712E0;7.906851292E0
1.029993000E0;4.548983276E-2;4.920084476E0;7.912836552E0
1.040324000E0;-7.900865376E-2;5.027823448E0;7.803900242E0
1.060164000E0;-1.328781962E0;4.392162800E0;7.672219276E0
1.070184000E0;-1.552639842E0;4.243722439E0;7.760804653E0
1.090256000E0;-1.711854219E0;4.303577423E0;7.699752808E0
1.110130000E0;-1.540668845E0;4.204218388E0;7.511807919E0
1.120285000E0;-1.938106298E0;3.889380693E0;7.523778915E0
1.130297000E0;-1.867477298E0;3.872621298E0;7.078457355E0
1.140446000E0;-1.848323703E0;3.901351690E0;6.539762020E0
1.164401000E0;-1.940500498E0;4.027047157E0;6.003460884E0
1.180333000E0;-2.012326479E0;4.128800869E0;4.959589005E0
1.191222000E0;-2.224213362E0;4.084507942E0;4.516661644E0
1.210128000E0;-2.333149672E0;3.198653460E0;3.628412724E0
1.220178000E0;-2.340332270E0;2.803610086E0;3.423708439E0
1.230257000E0;-2.325966835E0;2.577358246E0;3.701435804E0
1.250217000E0;-2.324769735E0;1.946485996E0;4.033032894E0
1.260265000E0;-2.554613113E0;1.810016513E0;3.805583715E0
1.280271000E0;-4.672284603E0;1.161187768E0;2.879027605E0
1.290976000E0;-5.155913353E0;4.884171486E-1;2.971204281E0
1.310090000E0;-5.615600109E0;-9.481038451E-1;5.766434669E0
1.320216000E0;-5.292382717E0;-1.549048543E0;6.285976410E0
1.341636000E0;-6.386533260E0;-1.861491799E0;5.817910194E0
1.360226000E0;-8.415618896E0;-2.709039211E0;3.946841478E0
1.370765000E0;-9.338583946E0;-3.366247654E0;4.193444252E0
1.381066000E0;-9.916783333E0;-3.901351690E0;5.334281445E0
1.391821000E0;-1.014064121E1;-4.422090530E0;7.083245754E0
1.410288000E0;-9.761159897E0;-5.655104637E0;8.944737434E0
1.420338000E0;-9.989806175E0;-6.112396717E0;8.669404030E0
1.440618000E0;-1.009754562E1;-6.664260387E0;6.042964935E0
1.460155000E0;-1.031062984E1;-7.101202011E0;2.843114614E0
1.470185000E0;-1.048899746E1;-7.432799339E0;2.340332270E0
1.480197000E0;-1.048780060E1;-7.838616371E0;3.059789658E0
1.490201000E0;-9.944316864E0;-8.908824921E0;5.471948147E0
1.510222000E0;-9.606734276E0;-9.618705750E0;6.818686485E0
1.530219000E0;-9.603142738E0;-9.458293915E0;7.086836815E0
1.540703000E0;-9.797073364E0;-9.267954826E0;6.625953197E0
1.560212000E0;-1.047463226E1;-8.761581421E0;5.385756493E0
1.570606000E0;-1.080263805E1;-8.554482460E0;4.564545631E0
1.590168000E0;-1.070208168E1;-8.355764389E0;3.381809950E0
1.610284000E0;-1.089601231E1;-8.392873764E0;2.416946650E0
1.620359000E0;-1.108754826E1;-8.429984093E0;2.160767078E0
1.641881000E0;-1.138442898E1;-8.379706383E0;1.733402014E0
1.660117000E0;-1.120366669E1;-8.036137581E0;1.783680320E0
1.670316000E0;-1.100734234E1;-7.808688641E0;1.905784607E0
1.690191000E0;-1.062307262E1;-7.035361767E0;1.847126603E0
1.700196000E0;-1.046026707E1;-6.669048786E0;1.720233917E0
1.710224000E0;-1.027471638E1;-6.284779549E0;1.663970232E0
1.720224000E0;-9.937133789E0;-6.002263546E0;1.616086125E0
1.730336000E0;-9.506177902E0;-5.834669590E0;1.519120932E0
1.740775000E0;-9.191340446E0;-5.728127480E0;1.273715258E0
1.760552000E0;-8.546102524E0;-5.287594318E0;8.702923059E-1
1.779943000E0;-8.227674484E0;-5.108029366E0;8.415619135E-1
1.789973000E0;-8.234856606E0;-5.163095951E0;8.750807047E-1
1.800029000E0;-8.170213699E0;-5.097255230E0;7.709329724E-1
1.819918000E0;-7.771578789E0;-4.948814869E0;7.445967197E-1
1.840042000E0;-7.317877293E0;-5.361814499E0;1.009155989E0
1.859972000E0;-7.595604897E0;-5.348646641E0;9.421183467E-1
1.880160000E0;-5.828683853E0;-5.607220173E0;8.176198602E-1
1.906557000E0;-6.342240334E0;-5.456385612E0;8.619126081E-1
1.921697000E0;-6.337451935E0;-5.799953461E0;6.991068721E-1
1.939247500E0;-6.443994045E0;-5.936423302E0;3.675099611E-1
1.951153000E0;-6.443994045E0;-5.936423302E0;3.675099611E-1
1.970544000E0;-6.599617004E0;-6.378153324E0;-2.082955539E-1
1.984408000E0;-6.629544735E0;-6.695384979E0;-4.680664241E-1
1.997110000E0;-6.829460144E0;-7.754819393E0;-9.373299479E-1
2.011314000E0;-6.915651798E0;-8.455122948E0;-1.031900883E0
2.030069000E0;-6.931213856E0;-9.791088104E0;-8.583213091E-1
2.041065000E0;-6.828263283E0;-1.014902115E1;-5.674257874E-1
2.060166000E0;-6.827065945E0;-1.047942066E1;-3.950432688E-2
2.079965000E0;-7.466318130E0;-1.008677197E1;4.740519226E-1
2.090288000E0;-9.077615738E0;-1.033337498E1;3.351882398E-1
2.110426000E0;-9.233239174E0;-1.021725559E1;4.680664241E-1
2.129967000E0;-9.176975250E0;-1.024957752E1;1.165976286E0
2.140196000E0;-8.923190117E0;-9.991003990E0;1.479616642E0
2.164036000E0;-8.267178535E0;-8.742427826E0;1.613691926E0
2.180215000E0;-8.756793022E0;-7.845798969E0;1.811213613E0
2.190604000E0;-9.548076630E0;-7.876923561E0;1.651999116E0
2.211764000E0;-1.021127033E1;-7.832630634E0;1.282094955E0
2.229955000E0;-9.854534149E0;-7.940370083E0;6.607996821E-1
2.240100000E0;-9.526528358E0;-8.190564156E0;4.189853072E-1
2.260025000E0;-8.813055992E0;-8.579621315E0;8.702923059E-1
2.279925000E0;-7.892486095E0;-9.242815971E0;2.732981205E0
2.291708000E0;-7.502231121E0;-9.367314339E0;3.333925962E0
2.309997000E0;-6.928819656E0;-9.478644371E0;4.021061897E0
2.330014000E0;-6.517016888E0;-9.138668060E0;5.275623322E0
2.340215000E0;-6.369773388E0;-8.929175377E0;5.602431774E0
2.359952000E0;-6.045359135E0;-8.218097687E0;5.146336555E0
2.369952000E0;-5.980715752E0;-8.024167061E0;4.753687382E0
2.390038000E0;-5.602431774E0;-7.920019150E0;4.201824188E0
2.409989000E0;-5.025429249E0;-7.690176010E0;4.115632534E0
2.420013000E0;-4.814739704E0;-7.615955830E0;4.024652958E0
2.440215000E0;-4.687847137E0;-7.624335289E0;3.648763418E0
2.459946000E0;-4.582501888E0;-7.471106529E0;2.819172382E0
2.479957000E0;-4.875791550E0;-7.827842236E0;2.242169857E0
2.490009000E0;-4.712985992E0;-7.829039574E0;2.297236443E0
2.509982000E0;-4.460397720E0;-8.257601738E0;2.288856745E0
2.531828000E0;-5.009867191E0;-8.572439194E0;2.662352324E0
2.549919000E0;-5.464765549E0;-8.741230011E0;3.026270866E0
2.560109000E0;-5.506663799E0;-8.542511940E0;3.168725967E0
2.579964000E0;-5.764040470E0;-7.812280178E0;3.456030130E0
2.590247000E0;-5.615600109E0;-7.329848289E0;3.506308317E0
2.610867000E0;-5.066130638E0;-6.047753334E0;3.213018656E0
2.629939000E0;-4.572925091E0;-5.219359875E0;2.748543501E0
2.640005000E0;-4.935647011E0;-5.359420300E0;2.616862535E0
2.659931000E0;-5.456385612E0;-5.859808445E0;1.346738458E0
2.670013000E0;-5.408501625E0;-6.769605160E0;9.816227108E-2
2.690118000E0;-5.886145115E0;-7.846996307E0;-1.063025594E0
2.710019000E0;-5.881356239E0;-8.973467827E0;-1.732204914E0
2.729935000E0;-5.650316238E0;-1.044350815E1;-1.403002143E0
2.740038000E0;-5.341464043E0;-1.103248119E1;-7.445967197E-1
2.759946000E0;-5.159504890E0;-1.193030739E1;1.045069098E0
2.780055000E0;-5.087678432E0;-1.237562847E1;2.785653591E0
2.790132000E0;-5.222950935E0;-1.242351246E1;3.101688385E0
2.810562000E0;-4.744110584E0;-1.157117653E1;1.811213613E0
2.829931000E0;-4.449624062E0;-1.050096893E1;6.284779310E-1
2.840422000E0;-4.326322556E0;-1.026992798E1;4.094084799E-1
2.860426000E0;-4.882974148E0;-1.099417400E1;1.300051570E0
2.880030000E0;-5.373785496E0;-1.162744045E1;2.382230759E0
2.900098000E0;-6.318298340E0;-1.182496262E1;1.685518026E0
2.920059000E0;-6.710947514E0;-1.173996830E1;-3.208230138E-1
2.940068000E0;-6.836642742E0;-1.124436855E1;-2.610877037E0
2.950209000E0;-6.639121532E0;-1.079306126E1;-3.906140089E0
2.970083000E0;-6.118382454E0;-9.946710587E0;-4.865017891E0
2.990128000E0;-5.237316132E0;-9.696516991E0;-3.521870613E0
3.010278000E0;-4.274847031E0;-9.704896927E0;-1.550245643E0
3.020554000E0;-3.871424198E0;-9.591172218E0;-8.810662031E-1
3.030933000E0;-3.629609823E0;-9.527725220E0;-3.986345828E-1
3.049947000E0;-3.394978046E0;-9.323021889E0;-1.256955862E-1
3.060013000E0;-3.617638826E0;-9.052476883E0;-6.464344859E-1
3.080382000E0;-4.461595058E0;-8.166622162E0;-1.320402265E0
3.099946000E0;-4.698620796E0;-7.682993412E0;-1.921346903E0
3.110509000E0;-4.576516628E0;-7.496245384E0;-1.917755604E0
3.130219000E0;-4.502296448E0;-7.280767441E0;-9.337386489E-1
3.149964000E0;-4.368220806E0;-7.053318024E0;2.154781483E-2
3.160044000E0;-4.228160381E0;-6.903680801E0;3.124433160E-1
3.179968000E0;-4.016273499E0;-6.649895191E0;3.986345828E-1
3.190927000E0;-3.726574898E0;-6.582857609E0;2.190694511E-1
3.210068000E0;-3.447650433E0;-6.402095318E0;-1.831564307E-1
3.229968000E0;-3.294421434E0;-6.112396717E0;-3.196259141E-1
3.241053000E0;-3.387795448E0;-5.805939198E0;-4.249708056E-1
3.260093000E0;-3.610456228E0;-5.516240597E0;-2.166752517E-1
3.280048000E0;-3.839102507E0;-5.425261021E0;-3.770867586E-1
3.290229000E0;-3.878606796E0;-5.397727966E0;-4.333505034E-1
3.309973000E0;-3.829525709E0;-5.315127850E0;-5.722141862E-1
3.320032000E0;-3.806780815E0;-5.325901508E0;-5.063736439E-1
3.340137000E0;-3.675099611E0;-5.234921932E0;-5.410895944E-1
3.360189000E0;-3.448847532E0;-5.254075527E0;-3.758896589E-1
3.379957000E0;-3.390189648E0;-4.972756863E0;2.609679997E-1
3.390085000E0;-3.505111217E0;-4.814739704E0;4.740519226E-1
3.409952000E0;-3.896563292E0;-4.350264549E0;3.854664862E-1
3.419990000E0;-4.194641590E0;-4.262876034E0;9.696517140E-2
3.430022000E0;-4.378994942E0;-4.326322556E0;-1.556231081E-1
3.440080000E0;-4.507084846E0;-4.622006416E0;-6.057330370E-1
3.460085000E0;-4.940435410E0;-6.793547153E0;-6.368576288E-1
3.479919000E0;-5.670666695E0;-8.617929459E0;1.001973391E0
3.490142000E0;-5.917269707E0;-9.397241592E0;2.043451071E0
3.509983000E0;-7.098807812E0;-1.058237171E1;2.608482838E0
3.529955000E0;-8.378508568E0;-1.198776817E1;9.301473498E-1
3.539967000E0;-8.822632790E0;-1.312860489E1;-7.481880188E-1
3.559967000E0;-9.096769333E0;-1.569638634E1;-1.910573006E0
3.570001000E0;-8.954314232E0;-1.675222969E1;-1.733402014E0
3.580026000E0;-8.863334656E0;-1.777934265E1;-1.376665950E0
3.590049000E0;-8.426392555E0;-1.839225769E1;-7.661445141E-1
3.600362000E0;-7.748833656E0;-1.833000755E1;2.190694511E-1
3.610527000E0;-7.029376030E0;-1.755548477E1;1.408987641E0
3.630288000E0;-6.333860397E0;-1.514332581E1;3.776853085E0
3.649996000E0;-7.546523571E0;-1.229901409E1;4.673481941E0
3.660065000E0;-7.483077526E0;-1.141675091E1;3.813963413E0
3.680003000E0;-6.491878033E0;-9.797073364E0;7.457938194E-1
3.690049000E0;-5.645527840E0;-8.670601845E0;-9.301473498E-1
3.709952000E0;-4.760869980E0;-6.927622795E0;-3.588908434E0
3.720003000E0;-4.502296448E0;-6.463147640E0;-4.193444252E0
3.730259000E0;-4.448426723E0;-6.193799973E0;-4.400542736E0
3.749999000E0;-4.228160381E0;-6.278793812E0;-4.232948780E0
3.760053000E0;-4.537012100E0;-6.622362137E0;-3.481169224E0
3.770600000E0;-4.698620796E0;-7.267599106E0;-2.549824715E0
3.792105000E0;-4.645948410E0;-8.729259491E0;1.436521020E-2
3.810334000E0;-4.284423828E0;-9.299078941E0;2.533065319E0
3.830095000E0;-4.337096214E0;-9.463082314E0;5.079298973E0
3.840358000E0;-4.823119164E0;-1.001374817E1;6.194996834E0
3.860320000E0;-4.576516628E0;-1.100973606E1;5.499481201E0
3.870603000E0;-4.683058739E0;-1.080862331E1;4.544194698E0
3.890260000E0;-5.297171116E0;-9.986215591E0;2.899378300E0
3.900353000E0;-5.716156483E0;-9.718064308E0;2.464830637E0
3.910476000E0;-6.003460884E0;-9.640253067E0;2.346317768E0
3.930316000E0;-5.708973885E0;-9.282320023E0;2.768894196E0
3.940938000E0;-5.301959515E0;-9.032125473E0;3.038241863E0
3.960699000E0;-4.502296448E0;-8.561665535E0;3.354276657E0
3.980227000E0;-3.667917013E0;-8.295908928E0;3.330334663E0
3.993125000E0;-3.615244627E0;-8.230068207E0;3.332728863E0
4.004853000E0;-3.549403906E0;-8.113949776E0;3.223792553E0
4.022674000E0;-3.761290789E0;-7.534552574E0;2.791639090E0
4.040213000E0;-4.297592163E0;-7.036558628E0;3.041833162E0
4.050579000E0;-4.474762917E0;-6.819883347E0;3.076549292E0
4.063553000E0;-4.497508049E0;-6.623558998E0;3.090914488E0
4.080260000E0;-4.635174274E0;-6.455965042E0;2.801215887E0
4.100260000E0;-4.824316502E0;-6.385335922E0;2.466027737E0
4.110272000E0;-4.624400616E0;-6.393715858E0;2.151190281E0
4.130014000E0;-4.359841347E0;-6.284779549E0;2.585737944E0
4.149950000E0;-4.262876034E0;-6.040570736E0;2.673126221E0
4.160146000E0;-4.175487995E0;-5.862202644E0;2.217030764E0
4.171308000E0;-4.120420933E0;-5.694608688E0;1.684320927E0
4.190464000E0;-3.989937067E0;-5.374982834E0;1.308431268E0
4.200999000E0;-3.837905407E0;-5.378573895E0;1.374271750E0
4.220176000E0;-3.732560396E0;-5.376179695E0;1.580173135E0
4.230320000E0;-3.985148668E0;-5.045780182E0;1.807622313E0
4.250094000E0;-3.289633036E0;-5.193023682E0;1.210268974E0
4.269975000E0;-3.380612850E0;-5.057751179E0;9.181763530E-1
4.280018000E0;-3.463212729E0;-5.038597584E0;5.961562395E-1
4.300138000E0;-3.927687883E0;-4.894945145E0;3.722983599E-1
4.319962000E0;-4.155137062E0;-5.044582844E0;4.141969085E-1
4.341406000E0;-4.374206543E0;-5.430049419E0;7.960720658E-1
4.360058000E0;-5.598840714E0;-6.345831394E0;1.459265947E0
4.379975000E0;-6.330269337E0;-7.266402245E0;1.575384736E0
4.389979000E0;-6.629544735E0;-7.879317760E0;1.174355984E0
4.399979000E0;-6.931213856E0;-8.372523308E0;4.800374508E-1
4.409982000E0;-7.150283337E0;-8.823830605E0;-2.741360962E-1
4.429971000E0;-6.856993675E0;-9.597157478E0;-1.499967337E0
4.440106000E0;-6.266822815E0;-1.057518864E1;-1.660378933E0
4.460093000E0;-5.874173641E0;-1.199495029E1;-1.794454217E0
4.480220000E0;-5.670666695E0;-1.325549793E1;-1.974019289E0
4.491321000E0;-5.983109951E0;-1.381933212E1;-1.810016513E0
4.510056000E0;-6.432023048E0;-1.439394093E1;-9.026140571E-1
4.529971000E0;-6.417657852E0;-1.410304546E1;-8.259996027E-2
4.540008000E0;-6.306327343E0;-1.386601925E1;1.376665980E-1
4.560180000E0;-5.750872612E0;-1.356913853E1;3.160346150E-1
4.580007000E0;-4.666299343E0;-1.341351509E1;5.973533392E-1
4.590182000E0;-4.110844135E0;-1.331176186E1;1.161187768E0
4.609981000E0;-3.994725466E0;-1.301847172E1;3.484760523E0
4.620038000E0;-4.624400616E0;-1.276947498E1;4.345476151E0
4.630451000E0;-6.913257599E0;-1.207156467E1;3.531447411E0
4.649952000E0;-7.836222172E0;-1.100494766E1;-2.932897210E-1
4.659971000E0;-7.551311970E0;-1.044231033E1;-2.461239338E0
4.669980000E0;-6.961141586E0;-1.008557510E1;-4.189853191E0
4.680125000E0;-5.941211700E0;-9.798270226E0;-5.318718910E0
4.699975000E0;-3.854664803E0;-9.667786598E0;-4.636371613E0
4.710458000E0;-2.896984100E0;-9.673771858E0;-3.341108561E0
4.730070000E0;-2.041056871E0;-9.689333916E0;-2.442085743E-1
4.740252000E0;-1.850717902E0;-9.668983459E0;9.648633003E-1
4.760022000E0;-1.673547029E0;-9.587580681E0;2.008735180E0
4.770613000E0;-1.544260144E0;-9.491812706E0;1.825578809E0
4.790570000E0;-1.571793437E0;-9.101557732E0;9.744400978E-1
4.810246000E0;-1.553836942E0;-8.540117264E0;4.848258495E-1
4.830210000E0;-1.863885999E0;-7.872135162E0;4.106055796E-1
4.840282000E0;-2.031480074E0;-7.753622055E0;2.298433632E-1
4.860510000E0;-2.233790159E0;-7.508216381E0;-4.309562966E-2
4.880697000E0;-2.252943754E0;-7.143100739E0;-2.214636505E-1
4.900185000E0;-2.324769735E0;-6.580463409E0;-3.555389643E-1
4.910258000E0;-2.322375536E0;-6.293159008E0;-4.046200812E-1
4.930458000E0;-2.364274263E0;-5.738901615E0;-7.230489254E-1
4.950221000E0;-2.734178305E0;-5.462371349E0;-7.960720658E-1
4.960442000E0;-2.821566820E0;-5.483919144E0;-8.690952063E-1
4.970535000E0;-2.760514498E0;-5.652710438E0;-9.840168953E-1
4.990462000E0;-2.476801634E0;-5.953182697E0;-9.433154464E-1
5.010491000E0;-2.422932148E0;-6.260837555E0;-5.279214978E-1
5.030515000E0;-2.993949175E0;-6.260837555E0;-5.746083856E-1
5.050225000E0;-3.332728863E0;-6.183025837E0;-6.655880809E-1
5.060238000E0;-3.386598349E0;-6.327875137E0;-6.847416759E-1
5.070326000E0;-3.396175146E0;-6.552929878E0;-7.721300721E-1
5.090237000E0;-3.017891169E0;-6.983886242E0;-9.181763530E-1
5.110479000E0;-3.044227362E0;-7.195773125E0;-5.650315881E-1
5.120575000E0;-3.045424461E0;-7.287950039E0;-4.884171486E-1
5.140309000E0;-2.980781078E0;-7.314286232E0;-5.554547906E-1
5.160292000E0;-3.105279684E0;-7.213729858E0;-6.404489279E-1
5.180167000E0;-3.102885485E0;-6.864176273E0;-4.357447028E-1
5.199961000E0;-3.102885485E0;-6.453570843E0;-3.232172132E-2
5.211324000E0;-2.870647907E0;-6.002263546E0;-5.865794048E-2
5.230719000E0;-2.597708941E0;-5.732915878E0;-4.477157295E-1
5.250257000E0;-2.606088638E0;-5.661089897E0;-8.559271097E-1
5.270312000E0;-2.667140722E0;-6.356605530E0;-1.017535686E0
5.290187000E0;-2.630030632E0;-7.428010941E0;-5.159504414E-1
5.310533000E0;-3.035847664E0;-8.781931877E0;-7.493851185E-1
5.330180000E0;-3.572149038E0;-1.034654236E1;-1.254561663E0
5.340502000E0;-3.792415380E0;-1.128506947E1;-1.993172884E0
5.360343000E0;-4.041412354E0;-1.329979038E1;-2.656366825E0
5.380460000E0;-4.304774761E0;-1.492545319E1;-1.936909199E0
5.400202000E0;-4.660313606E0;-1.681208420E1;-1.678335428E0
5.420139000E0;-4.192247391E0;-2.012087059E1;-1.127668977E0
5.430217000E0;-4.034229755E0;-2.070625305E1;-5.901707411E-1
5.450231000E0;-3.842693806E0;-1.987905693E1;4.884171486E-1
5.470152000E0;-3.134010077E0;-1.700601387E1;1.217451572E0
5.480275000E0;-3.004723072E0;-1.544379807E1;1.266532660E0
5.490555000E0;-2.985569477E0;-1.396418095E1;1.374271750E0
5.511600000E0;-2.640804529E0;-1.117254257E1;1.064222693E0
5.530259000E0;-2.631227732E0;-9.289502144E0;2.106897533E-1
5.550160000E0;-2.705447912E0;-7.527369976E0;-1.173158884E0
5.560421000E0;-2.910152197E0;-7.077260017E0;-2.256535053E0
5.570599000E0;-2.999934673E0;-6.682217121E0;-3.282450438E0
5.590520000E0;-2.851494312E0;-6.430825710E0;-3.770867586E0
5.610996000E0;-2.755726099E0;-8.188169479E0;-1.291671872E0
5.630296000E0;-2.949656487E0;-8.657433510E0;8.463503122E-1
5.650219000E0;-3.356670856E0;-8.623914719E0;1.234210968E0
5.661400000E0;-3.506308317E0;-8.440757751E0;1.276109457E0
5.680288000E0;-3.629609823E0;-8.410830498E0;7.326257229E-1
5.700318000E0;-3.550601006E0;-8.372523308E0;5.003881454E-1
5.720272000E0;-3.309983969E0;-8.407238960E0;4.369418025E-1
5.730312000E0;-3.554192305E0;-8.687360764E0;2.023100406E-1
5.740484000E0;-4.005499363E0;-9.157821655E0;-5.746084079E-2
5.760564000E0;-4.465186119E0;-9.563638687E0;-3.938461840E-1
5.780459000E0;-4.534617901E0;-9.463082314E0;-5.351040959E-1
5.790944000E0;-4.582501888E0;-9.308655739E0;-2.765302956E-1
5.810302000E0;-4.248510838E0;-8.832210541E0;7.960720658E-1
5.820326000E0;-3.934870481E0;-8.773551941E0;1.176750183E0
5.830872000E0;-3.529053211E0;-8.704120636E0;1.550245643E0
5.850193000E0;-2.756923199E0;-8.507795334E0;2.148796082E0
5.860384000E0;-2.557007313E0;-8.552088737E0;2.254140854E0
5.880303000E0;-2.673126221E0;-8.476671219E0;2.618059635E0
5.890489000E0;-2.795230389E0;-8.647856712E0;2.647987127E0
5.910497000E0;-3.217807055E0;-8.844181061E0;2.565387011E0
5.930195000E0;-3.730166197E0;-8.693346024E0;2.226607561E0
5.940229000E0;-3.848679304E0;-8.522160530E0;2.047042370E0
5.950509000E0;-3.894169092E0;-8.340201378E0;1.817199111E0
5.970207000E0;-3.806780815E0;-7.983465672E0;1.501164436E0
5.980209000E0;-3.691859007E0;-7.764396191E0;1.290474772E0
5.990293000E0;-3.598485231E0;-7.558494568E0;1.148019671E0
6.010614000E0;-3.165134668E0;-6.858190536E0;7.912836671E-1
6.030124000E0;-2.782062292E0;-6.485892296E0;9.660604000E-1
6.040240000E0;-2.683900118E0;-6.271611214E0;1.019929886E0
6.050304000E0;-2.603694439E0;-6.042964935E0;1.041477680E0
6.060752000E0;-2.598906040E0;-5.855020046E0;9.050082564E-1
6.080188000E0;-2.637213230E0;-5.544970989E0;6.584054828E-1
6.090226000E0;-2.703053713E0;-5.410895824E0;4.967968464E-1
6.110268000E0;-2.804807186E0;-5.386953831E0;-1.795651205E-2
6.120379000E0;-2.944868088E0;-5.576095581E0;-2.298433632E-1
6.130566000E0;-3.075352192E0;-5.875370979E0;-3.962403834E-1
6.150221000E0;-3.823540211E0;-6.957550049E0;-5.626374111E-2
6.160276000E0;-4.358644009E0;-7.645883083E0;2.753331959E-1
6.180366000E0;-5.469553947E0;-9.001001358E0;1.106121182E0
6.200161000E0;-6.054935932E0;-9.764751434E0;1.650802016E0
6.210248000E0;-6.019022942E0;-9.819818497E0;9.097966552E-1
6.230362000E0;-5.741295815E0;-1.006043530E1;-1.083376288E0
6.240419000E0;-5.452794552E0;-1.051413631E1;-1.628057122E0
6.250712000E0;-4.789600372E0;-1.122880554E1;-1.686715126E0
6.270209000E0;-3.487154722E0;-1.282214737E1;-6.033388376E-1
6.290490000E0;-2.869450808E0;-1.440950298E1;-5.363011956E-1
6.310474000E0;-3.070563793E0;-1.557188797E1;-1.037886381E0
6.330285000E0;-3.919308186E0;-1.607467079E1;-1.625662923E0
6.350207000E0;-4.050989151E0;-1.563533401E1;-1.163581967E0
6.360270000E0;-3.924096584E0;-1.500925064E1;-2.968810201E-1
6.380515000E0;-4.229357243E0;-1.414254951E1;1.606509328E0
6.391077000E0;-4.335899353E0;-1.289038181E1;1.900996208E0
6.410537000E0;-4.849455357E0;-1.200692177E1;1.950077295E0
6.430519000E0;-6.070498466E0;-1.113423538E1;1.019929886E0
6.450243000E0;-5.779603004E0;-9.817423820E0;-2.852691412E0
6.460313000E0;-5.135562420E0;-9.496601105E0;-4.994304657E0
6.481904000E0;-2.995146275E0;-9.052476883E0;-6.483498096E0
6.500308000E0;-9.337386489E-1;-9.221267700E0;-3.584120035E0
6.511153000E0;-3.088520169E-1;-9.512163162E0;-1.638831019E0
6.530233000E0;1.604115069E-1;-9.703699112E0;1.630451322E0
6.550590000E0;-1.747767180E-1;-9.636661530E0;2.608482838E0
6.560711000E0;-5.458779931E-1;-9.424775124E0;2.644395828E0
6.580171000E0;-1.537077546E0;-9.076418877E0;1.623268723E0
6.590201000E0;-1.923741102E0;-8.651448250E0;7.338228226E-1
6.600258000E0;-1.918952703E0;-8.512583733E0;3.591302633E-1
6.610551000E0;-1.850717902E0;-8.341399193E0;8.858546615E-2
6.630210000E0;-1.880645394E0;-8.191761017E0;-9.816227108E-2
6.640219000E0;-1.977610588E0;-8.216899872E0;-1.161187813E-1
6.650298000E0;-1.981201887E0;-8.125920296E0;-1.364694983E-1
6.670156000E0;-2.171540976E0;-7.823053837E0;-3.244143426E-1
6.680216000E0;-2.266111851E0;-7.497442722E0;-5.171475410E-1
6.690319000E0;-2.290053844E0;-7.243657112E0;-8.164227605E-1
6.710254000E0;-2.230198860E0;-7.119158745E0;-1.346738458E0
6.730234000E0;-2.165555477E0;-6.878541470E0;-7.829039693E-1
6.740578000E0;-2.285265446E0;-6.812700748E0;-5.889736414E-1
6.760210000E0;-2.285265446E0;-6.306327343E0;-3.615244627E-1
6.770467000E0;-2.246958256E0;-6.098031521E0;-4.572925270E-1
6.790533000E0;-1.952471495E0;-5.486313343E0;-5.195417404E-1
6.810499000E0;-1.872265697E0;-5.210979939E0;-5.494692922E-1
6.830244000E0;-1.854309201E0;-4.818330765E0;-5.267243981E-1
6.840283000E0;-1.781286120E0;-4.730942726E0;-8.068459630E-1
6.860635000E0;-1.592144132E0;-4.680664539E0;-1.091755986E0
6.880224000E0;-1.588552833E0;-4.865017891E0;-1.173158884E0
6.900728000E0;-1.519120932E0;-5.014655590E0;-1.156399369E0
6.920132000E0;-1.663970232E0;-5.019443989E0;-8.559271097E-1
6.930222000E0;-1.750161409E0;-4.976348400E0;-7.900865674E-1
6.940412000E0;-1.921346903E0;-5.003881454E0;-8.391677141E-1
6.950532000E0;-2.003946781E0;-5.050568581E0;-9.145850539E-1
6.970181000E0;-2.323572636E0;-5.477933407E0;-8.331822157E-1
6.980276000E0;-3.046621561E0;-6.998251438E0;-8.283938169E-1
7.005262000E0;-3.157952070E0;-9.595960617E0;-1.440112352E0
7.020446000E0;-2.873042107E0;-1.158195114E1;-1.011550188E0
7.040201000E0;-2.954444885E0;-1.268328381E1;-2.513911724E-1
7.060201000E0;-3.643975019E0;-1.433648014E1;-9.481038451E-1
7.080280000E0;-3.065775394E0;-1.644577217E1;-2.014720678E0
7.090443000E0;-2.871845007E0;-1.741542244E1;-2.080561161E0
7.110529000E0;-3.356670856E0;-1.955464172E1;-2.227804661E0
7.130530000E0;-3.567360640E0;-2.012446213E1;-1.516726732E0
7.150127000E0;-3.790021181E0;-1.817917442E1;-2.825157940E-1
7.160391000E0;-3.617638826E0;-1.681088638E1;3.172317147E-1
7.170510000E0;-3.299209833E0;-1.502840424E1;1.583764434E0
7.190009000E0;-4.636371613E0;-1.111627865E1;2.468421936E0
7.210247000E0;-5.067327976E0;-9.706093788E0;-9.181763530E-1
7.230161000E0;-4.225766182E0;-8.242039680E0;-3.921702385E0
7.240312000E0;-4.393360138E0;-7.651868820E0;-4.724956989E0
7.250442000E0;-4.724956989E0;-7.058106422E0;-4.722562790E0
7.270144000E0;-4.692635536E0;-6.579266071E0;-4.595670223E0
7.280362000E0;-4.200626850E0;-6.599617004E0;-3.902548790E0
7.299976000E0;-3.719392300E0;-7.363367558E0;-1.314416766E0
7.310033000E0;-3.276464939E0;-7.578845501E0;-3.112462163E-2
7.320221000E0;-2.940079689E0;-7.703343868E0;9.349357486E-1
7.330512000E0;-2.766499996E0;-7.724891663E0;1.413776159E0
7.350502000E0;-3.366247654E0;-7.825448036E0;1.374271750E0
7.361033000E0;-4.672284603E0;-9.016563416E0;8.271966577E-1
7.380205000E0;-4.969165802E0;-9.974244118E0;1.307234168E0
7.390254000E0;-4.935647011E0;-1.046984386E1;1.752555609E0
7.410327000E0;-4.973954201E0;-1.092354488E1;2.992752075E0
7.420387000E0;-5.033809185E0;-1.099537086E1;3.332728863E0
7.440223000E0;-4.995501995E0;-1.057399178E1;3.500322819E0
7.460512000E0;-5.227739334E0;-1.003649330E1;2.862268209E0
7.480245000E0;-5.639542103E0;-1.026992798E1;2.305616140E0
7.490328000E0;-5.594052315E0;-1.024239445E1;2.588132143E0
7.510271000E0;-5.360617638E0;-1.021127033E1;3.422511339E0
7.530201000E0;-4.791994572E0;-1.004128170E1;3.561375141E0
7.540758000E0;-4.574122429E0;-9.892841339E0;3.432088137E0
7.560194000E0;-4.479551315E0;-9.630676270E0;2.919728994E0
7.570661000E0;-4.446032524E0;-9.637859344E0;2.559401512E0
7.590719000E0;-4.056974888E0;-9.542090416E0;2.619256735E0
7.610464000E0;-3.794809580E0;-9.208099365E0;2.800018787E0
7.630276000E0;-3.519476414E0;-8.816647530E0;2.512714624E0
7.642588000E0;-3.323152065E0;-8.562862396E0;2.418143749E0
7.660339000E0;-3.034650564E0;-8.062474251E0;2.183511972E0
7.670524000E0;-2.928108692E0;-7.732074261E0;2.148796082E0
7.690246000E0;-2.674323320E0;-7.190984726E0;1.862688899E0
7.700357000E0;-2.552218914E0;-6.889315605E0;1.814804912E0
7.720157000E0;-2.499546528E0;-6.348225594E0;1.519120932E0
7.730174000E0;-2.424129248E0;-6.068104267E0;1.319205165E0
7.740419000E0;-2.421735048E0;-5.852625847E0;1.100135684E0
7.760237000E0;-2.316390038E0;-5.430049419E0;9.935936928E-1
7.780255000E0;-2.188300371E0;-5.118803024E0;9.636662006E-1
7.790317000E0;-2.109291792E0;-5.092466831E0;8.714894056E-1
7.800317000E0;-2.059013367E0;-5.129577160E0;8.224082589E-1
7.810533000E0;-2.104503393E0;-5.143942356E0;6.943184733E-1
7.830319000E0;-2.659958124E0;-5.377377033E0;5.027823523E-2
7.840363000E0;-3.130418777E0;-5.553350925E0;-2.202665508E-1
7.850530000E0;-3.892971992E0;-5.942408562E0;-5.398924947E-1
7.870204000E0;-5.694608688E0;-6.713341713E0;-1.242590666E0
7.880603000E0;-6.678625584E0;-6.896498203E0;-1.746570110E0
7.900209000E0;-8.201337814E0;-7.019799232E0;-2.381033659E0
7.910645000E0;-8.538920403E0;-7.114370346E0;-2.272097349E0
7.930274000E0;-7.788338184E0;-7.404068947E0;-1.531091928E0
7.950189000E0;-6.428431511E0;-8.675390244E0;-5.303156972E-1
7.960353000E0;-5.686229229E0;-9.187748909E0;-7.900865674E-1
7.980212000E0;-3.736151695E0;-1.104205799E1;-1.168370485E0
7.994706000E0;-3.074155092E0;-1.149097061E1;-1.423352957E0
8.010334000E0;-3.484760523E0;-1.225831223E1;-1.474828243E0
8.030211000E0;-5.069722176E0;-1.270722580E1;-1.454477549E0
8.050300000E0;-6.069301128E0;-1.340513515E1;-1.981201887E0
8.060793000E0;-6.143521786E0;-1.364575291E1;-2.243366957E0
8.080190000E0;-5.521028996E0;-1.354759026E1;-2.070984364E0
8.091597000E0;-5.398924828E0;-1.332852077E1;-1.339555860E0
8.110740000E0;-5.959167957E0;-1.255519390E1;-1.376665980E-1
8.130181000E0;-6.953958988E0;-1.147780323E1;-6.739677787E-1
8.140191000E0;-7.545326710E0;-1.090558910E1;-1.286883354E0
8.150204000E0;-8.044517517E0;-1.059314537E1;-2.279279947E0
8.160205000E0;-8.410830498E0;-9.459490776E0;-3.196259260E0
8.170699000E0;-8.564059258E0;-9.185355186E0;-4.024652958E0
8.190278000E0;-7.753622055E0;-8.906430244E0;-5.203797340E0
8.200359000E0;-6.912060261E0;-9.176975250E0;-5.216965675E0
8.220135000E0;-4.662707806E0;-9.847352028E0;-3.764882088E0
8.230158000E0;-3.654748917E0;-1.026753426E1;-2.643198729E0
8.240233000E0;-2.758120298E0;-1.054047298E1;-1.613691926E0
8.260236000E0;-1.618480325E0;-1.075595093E1;6.548141837E-1
8.280548000E0;-1.250970364E0;-1.040400314E1;2.327163935E0
8.300203000E0;-2.214636564E0;-9.672574997E0;2.161964178E0
8.310212000E0;-2.735375404E0;-9.156624794E0;1.187524080E0
8.330470000E0;-3.639186621E0;-8.230068207E0;-9.816226959E-1
8.340603000E0;-3.819948912E0;-7.826645374E0;-1.754949808E0
8.360391000E0;-3.268085241E0;-7.084442616E0;-2.450465441E0
8.380513000E0;-2.606088638E0;-6.985083580E0;-1.807622313E0
8.400374000E0;-2.262520552E0;-6.706159115E0;-8.068459630E-1
8.420177000E0;-1.997961283E0;-6.556521416E0;-5.901707411E-1
8.430186000E0;-1.939303398E0;-6.567295074E0;-5.805938840E-1
8.440195000E0;-1.920149803E0;-6.507440090E0;-4.680664241E-1
8.450223000E0;-1.988384485E0;-6.278793812E0;-3.495534360E-1
8.460293000E0;-2.146401882E0;-6.084863663E0;-2.657563984E-1
8.480319000E0;-2.457648039E0;-5.859808445E0;-3.280056417E-1
8.500352000E0;-2.613271236E0;-6.098031521E0;-4.800374508E-1
8.520214000E0;-2.561795712E0;-6.259640217E0;-3.172317147E-1
8.530359000E0;-2.533065319E0;-6.265625954E0;-4.082113802E-1
8.540395000E0;-2.618059635E0;-6.382941723E0;-5.015852451E-1
8.560197000E0;-2.765302896E0;-6.734889507E0;-1.289277673E0
8.580329000E0;-2.704250813E0;-7.322665691E0;-1.295263171E0
8.590358000E0;-2.738966703E0;-7.643488884E0;-9.289502501E-1
8.610273000E0;-2.774879694E0;-8.139088631E0;-1.855506301E-1
8.630299000E0;-2.568978310E0;-8.482656479E0;4.189852998E-2
8.650157000E0;-2.321178436E0;-8.772355080E0;-9.337386489E-2
8.660699000E0;-2.313995838E0;-8.740033150E0;-6.224924326E-2
8.680261000E0;-2.256535053E0;-8.128314972E0;-1.699883193E-1
8.690690000E0;-2.269703150E0;-7.720103264E0;-3.375824392E-1
8.710224000E0;-2.123656988E0;-6.823474884E0;-9.660604000E-1
8.730309000E0;-1.806425214E0;-5.984307289E0;-1.091755986E0
8.750182000E0;-1.399410844E0;-5.103240967E0;-6.883329749E-1
8.770118000E0;-1.593341231E0;-4.730942726E0;-8.738836050E-1
8.780198000E0;-1.857900500E0;-4.653131008E0;-1.182735682E0
8.790468000E0;-2.193088770E0;-4.693832397E0;-1.538274646E0
8.810239000E0;-2.817975283E0;-5.215768337E0;-2.466027737E0
8.830230000E0;-3.912125587E0;-7.474697590E0;-3.204638958E0
8.850158000E0;-4.258087635E0;-1.088523769E1;-2.153584480E0
8.860540000E0;-4.077325344E0;-1.252167511E1;-1.303642869E0
8.880186000E0;-3.810372114E0;-1.499249077E1;2.992752194E-1
8.900408000E0;-3.648763418E0;-1.658583260E1;7.026981711E-1
8.920306000E0;-3.787626982E0;-1.830486870E1;-2.154781520E-1
8.944838000E0;-3.412934542E0;-2.069188881E1;1.628057212E-1
8.960737000E0;-2.516305923E0;-1.965519905E1;2.050633669E0
8.980157000E0;-3.283647537E0;-1.705270195E1;4.389768600E0
8.990314000E0;-4.104858875E0;-1.574427032E1;4.282029629E0
9.010268000E0;-4.985925198E0;-1.243548393E1;2.193088770E0
9.031709000E0;-6.035782337E0;-1.029865837E1;-3.044227362E0
9.050205000E0;-5.719748020E0;-8.299500465E0;-5.999869347E0
9.060710000E0;-5.461174011E0;-7.445967197E0;-5.985504150E0
9.080007000E0;-5.145139217E0;-6.616376400E0;-4.062960148E0
9.094581000E0;-4.788403511E0;-6.700173378E0;-2.759317398E0
9.110028000E0;-3.827131510E0;-7.667430878E0;-7.445967197E-1
9.120168000E0;-3.508702517E0;-8.185775757E0;-3.531447649E-1
9.140194000E0;-3.645172119E0;-8.722076416E0;5.530605912E-1
9.150194000E0;-3.614047527E0;-8.576030731E0;3.866635859E-1
9.160214000E0;-3.507505417E0;-8.489839554E0;8.858546615E-2
9.180335000E0;-4.053383350E0;-8.967482567E0;-8.667010069E-1
9.200315000E0;-4.578910828E0;-9.495404243E0;-1.552639842E0
9.220161000E0;-4.552574635E0;-9.876082420E0;-1.365892053E0
9.230221000E0;-4.410119534E0;-9.989806175E0;-7.469909191E-1
9.250172000E0;-3.925293684E0;-1.015021801E1;7.362170219E-1
9.260411000E0;-4.469974518E0;-1.071884060E1;1.282094955E0
9.270425000E0;-4.963180065E0;-1.148378849E1;1.561019540E0
9.290185000E0;-4.637568474E0;-1.198776817E1;2.521094322E0
9.300247000E0;-4.416105270E0;-1.203445530E1;2.999934673E0
9.310329000E0;-4.288015366E0;-1.185967827E1;3.525461912E0
9.330168000E0;-4.009090900E0;-1.125274754E1;4.452018261E0
9.340274000E0;-3.740940094E0;-1.049139214E1;4.449624062E0
9.360179000E0;-3.248931646E0;-1.006522369E1;3.405751944E0
9.380725000E0;-3.009511471E0;-1.028070164E1;3.049015760E0
9.400159000E0;-3.300406933E0;-1.070567322E1;3.300406933E0
9.410524000E0;-3.365050554E0;-1.054765606E1;3.447650433E0
9.430210000E0;-4.041412354E0;-1.001853657E1;3.262099743E0
9.450270000E0;-4.832695961E0;-9.099164009E0;2.844311714E0
9.460485000E0;-4.997896194E0;-8.681375504E0;2.649184227E0
9.480385000E0;-4.718971729E0;-8.063671112E0;2.238578558E0
9.500172000E0;-3.989937067E0;-7.642292023E0;1.999158382E0
9.510667000E0;-3.655946016E0;-7.381323814E0;1.915361404E0
9.530209000E0;-3.247734547E0;-6.987477779E0;1.543063045E0
9.540815000E0;-3.052607059E0;-6.555324078E0;1.258152962E0
9.560202000E0;-3.123236179E0;-5.972336292E0;7.278373241E-1
9.570228000E0;-3.288435936E0;-5.758055210E0;5.327098966E-1
9.580244000E0;-3.427299738E0;-5.541379929E0;4.333505034E-1
9.590260000E0;-3.488351822E0;-5.311536312E0;3.782838583E-1
9.610222000E0;-3.236960649E0;-5.140350819E0;3.040636182E-1
9.630264000E0;-2.892195702E0;-5.007472992E0;3.124433160E-1
9.650362000E0;-2.875436306E0;-4.906916618E0;3.124433160E-1
9.670248000E0;-3.444059134E0;-5.221754074E0;5.494692922E-1
9.690206000E0;-4.596867085E0;-5.489904404E0;9.421183467E-1
9.710290000E0;-5.974730492E0;-5.615600109E0;5.686228871E-1
9.720495000E0;-6.496666431E0;-5.462371349E0;1.496376097E-1
9.740324000E0;-6.816292286E0;-5.390544891E0;-1.900996208E0
9.760212000E0;-6.235698223E0;-6.599617004E0;-2.091335297E0
9.770536000E0;-5.895721912E0;-7.247248650E0;-2.211045265E0
9.791609000E0;-5.408501625E0;-8.009801865E0;-2.525882721E0
9.810306000E0;-5.595249176E0;-8.130708694E0;-3.106476784E0
9.820444000E0;-5.937620163E0;-8.045714378E0;-3.567360640E0
9.840145000E0;-6.418854713E0;-8.298302650E0;-4.486733913E0
9.850351000E0;-6.740874767E0;-8.516175270E0;-4.720168591E0
9.860810000E0;-6.975506783E0;-8.942343712E0;-4.922478676E0
9.880331000E0;-6.618770599E0;-1.049618053E1;-4.994304657E0
9.900292000E0;-5.787982464E0;-1.218648624E1;-3.709815502E0
9.910519000E0;-5.529408932E0;-1.250970364E1;-2.553416014E0
9.930252000E0;-5.991489887E0;-1.189559078E1;-7.302315235E-1
9.941184000E0;-6.026205540E0;-1.134013653E1;-1.072602391E0
9.960275000E0;-5.391742229E0;-1.019810200E1;-2.537853718E0
9.980237000E0;-5.170278549E0;-9.097966194E0;-2.097320795E0
9.990298000E0;-5.402516365E0;-8.847772598E0;-1.850717902E0
1.001023700E1;-6.004657745E0;-8.914810181E0;-1.923741102E0
1.003054500E1;-6.458359241E0;-9.255983353E0;-2.908955097E0
1.005021700E1;-6.232107162E0;-9.556455612E0;-3.482366323E0
1.007068300E1;-5.456385612E0;-1.005445004E1;-3.272873640E0
1.009022400E1;-4.448426723E0;-1.077271080E1;-2.036268473E0
1.011052200E1;-2.908955097E0;-1.092833328E1;-7.685387731E-1
1.013018800E1;-1.817199111E0;-1.062905884E1;7.481880188E-1
1.014035700E1;-2.161964178E0;-1.026394272E1;1.310825467E0
1.016024700E1;-3.487154722E0;-9.284713745E0;1.425747156E0
1.018017700E1;-4.364629745E0;-8.663418770E0;-4.944026470E-1
1.019060600E1;-4.395754337E0;-8.480262756E0;-1.708262920E0
1.021059300E1;-4.315548420E0;-8.334216118E0;-3.233369350E0
1.023026800E1;-3.965995073E0;-8.435969353E0;-3.633201122E0
1.024042900E1;-3.816357613E0;-8.406042099E0;-3.083731890E0
1.026026100E1;-3.925293684E0;-8.259995461E0;-1.764526606E0
1.028020000E1;-4.241328239E0;-7.758410454E0;-6.919242740E-1
1.029060500E1;-4.353855610E0;-7.535749912E0;-5.111620426E-1
1.031033200E1;-4.218583584E0;-7.334636688E0;-6.069301367E-1
1.033054500E1;-3.688267708E0;-7.107187748E0;-1.975216419E-1
1.035095000E1;-3.462015629E0;-6.964732647E0;-1.041477770E-1
1.037025700E1;-3.377021551E0;-6.660669327E0;-3.208230138E-1
1.039019000E1;-3.421314240E0;-6.281188011E0;-5.003881454E-1
1.041032600E1;-3.469198227E0;-5.975927353E0;-5.147533417E-1
1.043019900E1;-3.353079557E0;-5.736507416E0;-4.273650050E-1
1.044169100E1;-3.374627352E0;-5.483919144E0;-1.185129806E-1
1.046020000E1;-3.637989521E0;-5.061342239E0;-2.513911761E-2
1.048020900E1;-3.869029999E0;-4.544194698E0;-1.029506698E-1
1.049062700E1;-3.671508312E0;-4.259284973E0;-4.836287498E-1
1.051026200E1;-3.482366323E0;-3.815160513E0;-1.169567585E0
1.053024800E1;-3.554192305E0;-3.502717018E0;-7.601590157E-1
1.055020400E1;-3.642777920E0;-3.841496706E0;-4.920084476E-1
1.057001200E1;-3.180696964E0;-4.781220913E0;-8.583213091E-1
1.059004500E1;-2.546233416E0;-6.007051945E0;-4.046200812E-1
1.061026200E1;-3.287238836E0;-8.493430138E0;-5.075707436E-1
1.063017300E1;-3.863044500E0;-1.134013653E1;-9.397241473E-1
1.064025300E1;-3.620033026E0;-1.229662037E1;-9.720458984E-1
1.066020100E1;-3.545812607E0;-1.395101357E1;-6.596025825E-1
1.068019300E1;-4.118026733E0;-1.546654320E1;-1.101332784E0
1.069026900E1;-4.295197964E0;-1.657146645E1;-2.267308950E0
1.071021300E1;-3.679888010E0;-2.012206841E1;-4.206612587E0
1.072021500E1;-3.424905539E0;-2.127008820E1;-4.255693436E0
1.073047900E1;-3.450044632E0;-2.191891670E1;-3.575740337E0
1.075035600E1;-3.183091164E0;-1.931881332E1;3.519476354E-1
1.077032500E1;-5.287594318E0;-1.593101788E1;2.217030764E0
1.079025500E1;-7.241262913E0;-1.340034676E1;1.217451572E0
1.081030400E1;-7.785943985E0;-1.137365532E1;-5.817909837E-1
1.083052900E1;-7.592013359E0;-9.455899239E0;-2.422932148E0
1.085051700E1;-7.092822552E0;-7.660248280E0;-3.775655985E0
1.087018300E1;-6.531382084E0;-7.010222435E0;-4.179079056E0
1.088023300E1;-6.374562263E0;-7.329848289E0;-3.547009706E0
1.089030100E1;-5.889736176E0;-7.498639584E0;-2.469619036E0
1.090051900E1;-5.645527840E0;-7.779958248E0;-3.722983599E-1
1.092024300E1;-4.568136692E0;-7.809885979E0;1.241393566E0
1.093028200E1;-4.122815132E0;-7.535749912E0;1.686715126E0
1.094037400E1;-3.821146011E0;-7.331045628E0;1.980004787E0
1.096022900E1;-3.539827108E0;-6.910863400E0;2.511517525E0
1.098020900E1;-3.457227230E0;-7.131129742E0;2.402581453E0
1.099025300E1;-3.373430252E0;-7.381323814E0;2.331952572E0
1.101027400E1;-3.326743364E0;-8.091204643E0;2.401384354E0
1.102033800E1;-3.402160645E0;-8.410830498E0;2.557007313E0
1.103214000E1;-3.450044632E0;-8.741230011E0;2.571372509E0
1.105005400E1;-3.579331636E0;-9.336189270E0;2.148796082E0
1.106012000E1;-3.700238705E0;-9.494206429E0;2.139219284E0
1.107103000E1;-3.884592295E0;-9.684545517E0;2.042253971E0
1.109019400E1;-4.416105270E0;-9.945513725E0;2.263717651E0
1.111015800E1;-5.197812080E0;-9.633070946E0;3.204638958E0
1.113008900E1;-5.576095581E0;-9.068038940E0;3.806780815E0
1.114033400E1;-5.729324818E0;-8.785523415E0;3.884592295E0
1.116005100E1;-5.922058105E0;-8.291120529E0;3.649960518E0
1.117026300E1;-6.051344872E0;-8.130708694E0;3.278859138E0
1.119022200E1;-5.957971096E0;-7.852981567E0;2.407369852E0
1.121001900E1;-5.465962410E0;-7.900865555E0;1.335964561E0
1.122020300E1;-5.309142113E0;-7.855375767E0;1.270123959E0
1.124018500E1;-5.100846767E0;-7.854178905E0;1.319205165E0
1.126029000E1;-4.763264179E0;-7.891288757E0;1.497573137E0
1.128023800E1;-4.188655853E0;-7.839813232E0;1.783680320E0
1.130011400E1;-3.545812607E0;-7.562086105E0;2.139219284E0
1.131051100E1;-3.362656355E0;-7.377732754E0;2.099714994E0
1.133017000E1;-3.117250681E0;-6.845022678E0;2.385822058E0
1.134021700E1;-3.015496969E0;-6.611588001E0;2.311601639E0
1.135024800E1;-2.911349297E0;-6.295553207E0;2.173935175E0
1.137125600E1;-2.643198729E0;-5.570110321E0;2.213439465E0
1.139056700E1;-2.749740601E0;-5.354631901E0;2.070984364E0
1.141031600E1;-3.444059134E0;-5.938817501E0;1.942894697E0
1.142032300E1;-3.549403906E0;-6.379350662E0;1.483207941E0
1.143032500E1;-3.441664934E0;-6.854599476E0;8.954314590E-1
1.145022500E1;-3.098097086E0;-7.916428089E0;-1.508347094E-1
1.146145400E1;-2.985569477E0;-8.236053467E0;-9.816227108E-2
1.148017900E1;-3.646369219E0;-8.789113998E0;4.094084799E-1
1.150012400E1;-5.467159748E0;-9.855731010E0;-3.172317147E-1
1.151065200E1;-5.620388508E0;-1.024598598E1;-1.071405292E0
1.153022800E1;-4.752490520E0;-1.142034245E1;-2.659958124E0
1.155031100E1;-4.220977783E0;-1.280299377E1;-2.161964178E0
1.157017300E1;-3.977966070E0;-1.411501598E1;1.915361285E-1
1.158027200E1;-3.702632904E0;-1.418684196E1;1.515529633E0
1.160024200E1;-3.562572241E0;-1.318367195E1;3.236960649E0
1.162014300E1;-4.007893562E0;-1.196262836E1;2.644395828E0
1.163022500E1;-4.398148537E0;-1.173398209E1;1.976413488E0
1.164029100E1;-4.627991676E0;-1.165018559E1;1.476025343E0
1.166032000E1;-4.703409195E0;-1.172320843E1;1.884236693E0
1.168044500E1;-5.139153957E0;-1.223676491E1;2.527079821E0
1.169063300E1;-6.313509941E0;-1.179503441E1;2.256535053E0
1.171090200E1;-7.893682957E0;-1.114141750E1;6.117185354E-1
1.173025700E1;-7.684190273E0;-1.009634876E1;-1.679532528E0
1.175020200E1;-6.341042995E0;-9.674968719E0;-3.081337690E0
1.176027300E1;-5.494692802E0;-9.683348656E0;-2.961627483E0
1.178019900E1;-3.934870481E0;-9.946710587E0;-1.274912357E0
1.179029000E1;-3.373430252E0;-1.001255131E1;-1.125274822E-1
1.181063000E1;-2.731784105E0;-1.004128170E1;1.674744129E0
1.183024200E1;-2.669534922E0;-1.017535686E1;2.309207439E0
1.184043900E1;-2.808398485E0;-1.003050804E1;2.394201756E0
1.186037900E1;-3.080140591E0;-9.525331497E0;1.555034041E0
1.188016900E1;-3.256114244E0;-8.983044624E0;6.703764945E-2
1.189020300E1;-3.438073635E0;-8.447940826E0;-6.512228847E-1
1.191009900E1;-3.598485231E0;-7.848193169E0;-8.499416113E-1
1.192041300E1;-3.675099611E0;-7.571662903E0;-9.085995555E-1
1.194026100E1;-3.445256233E0;-7.242460251E0;-1.015141487E0
1.196034100E1;-3.060986757E0;-6.822277546E0;-8.415619135E-1
1.198017900E1;-2.774879694E0;-6.189011574E0;-7.817068696E-1
1.199022500E1;-2.642001629E0;-5.871779442E0;-8.678981066E-1
1.200140200E1;-2.552218914E0;-5.623979568E0;-9.708487988E-1
1.202022400E1;-2.567781210E0;-5.079298973E0;-1.236605167E0
1.204029200E1;-2.557007313E0;-4.768052578E0;-1.723825216E0
1.206030800E1;-2.571372509E0;-5.023035049E0;-2.090138197E0
1.207034300E1;-2.567781210E0;-5.323507309E0;-2.128445387E0
1.209030500E1;-2.213439465E0;-6.409277916E0;-1.568202138E0
1.211050000E1;-1.997961283E0;-6.873753071E0;-9.026140571E-1
1.213025100E1;-2.354697466E0;-7.568071365E0;-8.619125932E-2
1.215030300E1;-2.832340717E0;-8.127118111E0;5.518634915E-1
1.217003500E1;-3.246537447E0;-8.409633636E0;7.565677166E-1
1.218013300E1;-3.468001127E0;-8.476671219E0;6.212953329E-1
1.219028800E1;-3.667917013E0;-8.396465302E0;6.739677787E-1
1.221033100E1;-3.602076530E0;-8.082824707E0;5.111620426E-1
1.223025700E1;-3.363853455E0;-7.829039574E0;2.334346622E-1
1.225020200E1;-3.046621561E0;-7.680599213E0;7.182605099E-3
1.226021200E1;-2.991554976E0;-7.568071365E0;2.597708702E-1
1.228042800E1;-2.808398485E0;-6.800729752E0;8.391677141E-1
1.229052900E1;-2.717418909E0;-6.459556103E0;7.170634270E-1
1.231026900E1;-2.784456491E0;-5.731719017E0;5.865794420E-1
1.233026000E1;-3.068169594E0;-5.590460777E0;2.825157940E-1
1.235042900E1;-3.594893932E0;-6.703764915E0;-9.457096457E-2
1.236054500E1;-3.884592295E0;-7.580042362E0;-1.460463107E-1
1.238022700E1;-4.358644009E0;-9.950302124E0;-4.129997790E-1
1.240043000E1;-4.428076267E0;-1.219486618E1;-6.883329749E-1
1.242016700E1;-4.866214752E0;-1.404797840E1;-1.144428372E0
1.243019700E1;-5.272032261E0;-1.516367626E1;-1.623268723E0
1.244020600E1;-5.595249176E0;-1.631648445E1;-1.978807688E0
1.246019200E1;-5.822698593E0;-1.900756645E1;-1.849520802E0
1.247048300E1;-5.523423195E0;-1.997362709E1;-1.169567585E0
1.248169100E1;-4.192247391E0;-1.974498177E1;1.322796464E0
1.250026800E1;-3.751713991E0;-1.784996986E1;3.507505417E0
1.251111600E1;-4.115632534E0;-1.677497482E1;4.527435303E0
1.253002100E1;-5.404910564E0;-1.421796703E1;4.663905144E0
1.254004300E1;-5.919663906E0;-1.321958447E1;3.293224335E0
1.256075600E1;-5.983109951E0;-1.086009884E1;-5.770025849E-1
1.258047900E1;-5.493495941E0;-8.225279808E0;-4.363432407E0
1.260050800E1;-5.528211594E0;-6.508637428E0;-5.962759495E0
1.262021000E1;-5.699397087E0;-5.898116112E0;-4.592078686E0
1.264023500E1;-5.682637691E0;-6.868964672E0;-1.053448796E0
1.266029200E1;-5.412093163E0;-8.622717857E0;2.284068346E0
1.267062300E1;-4.418499470E0;-9.636661530E0;4.449624062E0
1.269019400E1;-3.398569345E0;-9.973047256E0;5.030217648E0
1.270105700E1;-3.149572372E0;-9.979032516E0;4.832695961E0
1.272009800E1;-3.325546265E0;-1.015021801E1;3.976768970E0
1.273999100E1;-3.942053080E0;-1.002571964E1;3.555389643E0
1.275994600E1;-3.940855980E0;-9.834183693E0;3.457227230E0
1.276995000E1;-3.673902512E0;-9.684545517E0;3.479972124E0
1.277997900E1;-3.390189648E0;-9.612719536E0;3.469198227E0
1.279992700E1;-2.928108692E0;-9.648633003E0;3.483563423E0
1.281000500E1;-2.834734917E0;-9.646238327E0;3.379415751E0
1.283017900E1;-2.905363798E0;-9.447520256E0;3.484760523E0
1.284996400E1;-3.052607059E0;-9.039308548E0;3.654748917E0
1.286015300E1;-3.258508444E0;-8.740033150E0;3.691859007E0
1.287276300E1;-3.409343243E0;-8.239645004E0;3.405751944E0
1.289015000E1;-3.381809950E0;-7.778761387E0;3.418920040E0
1.290015800E1;-3.330334663E0;-7.588422298E0;3.466804028E0
1.291021000E1;-3.248931646E0;-7.451952934E0;3.489548922E0
1.293052100E1;-3.041833162E0;-7.351396084E0;3.239354849E0
1.295014600E1;-2.910152197E0;-7.238868713E0;2.907757998E0
1.296016100E1;-2.958036184E0;-7.186196327E0;2.725798607E0
1.298008600E1;-3.171120167E0;-7.162254333E0;2.491166830E0
1.299011600E1;-3.219004154E0;-7.140706539E0;2.408566952E0
1.300059400E1;-3.296815634E0;-7.114370346E0;2.284068346E0
1.301601800E1;-3.463212729E0;-7.091625214E0;1.977610588E0
1.303109700E1;-3.578134537E0;-7.110779285E0;1.731007814E0
1.305064600E1;-3.775655985E0;-7.293935299E0;1.230619669E0
1.307017900E1;-3.744531393E0;-7.653065681E0;1.459265947E0
1.308138500E1;-3.697844505E0;-7.654263020E0;1.746570110E0
1.310022500E1;-3.664325714E0;-7.617152691E0;2.177526474E0
1.311056700E1;-3.807977915E0;-7.453149796E0;2.263717651E0
1.313026000E1;-3.994725466E0;-7.146692276E0;2.000355482E0
1.314037900E1;-3.945644379E0;-6.944382191E0;1.849520802E0
1.316028300E1;-3.840299606E0;-6.602011204E0;1.532289028E0
1.318020300E1;-3.811569214E0;-6.089652061E0;1.498770237E0
1.319024800E1;-3.732560396E0;-5.760449409E0;1.309628367E0
1.321000600E1;-3.159149170E0;-5.177461147E0;9.385270476E-1
1.322001000E1;-2.941276789E0;-5.023035049E0;7.445967197E-1
1.323034400E1;-2.837129116E0;-4.898536682E0;8.092401624E-1
1.325069600E1;-3.523067713E0;-4.710591793E0;6.895300746E-1
1.327042700E1;-5.015852451E0;-5.606023312E0;7.781155705E-1
1.328061500E1;-5.081693172E0;-6.178237438E0;7.278373241E-1
1.329062600E1;-5.397727966E0;-6.442796707E0;1.148019671E0
1.331034100E1;-6.026205540E0;-6.714538574E0;1.328781962E0
1.333054300E1;-6.623558998E0;-7.152677536E0;9.014169574E-1
1.335026600E1;-6.624756336E0;-7.644686222E0;-4.572925270E-1
1.336038700E1;-6.556521416E0;-8.122329712E0;-1.200692177E0
1.338018000E1;-6.470330238E0;-1.015859795E1;-1.918952703E0
1.339044800E1;-6.028599739E0;-1.131858826E1;-1.932120800E0
1.341023600E1;-5.503072739E0;-1.339675522E1;-8.355764151E-1
1.342033600E1;-5.711368084E0;-1.449090576E1;-2.597708702E-1
1.344020100E1;-6.544550419E0;-1.541506767E1;9.085995555E-1
1.346023600E1;-7.119158745E0;-1.366490650E1;1.429338455E0
1.347065300E1;-6.822277546E0;-1.323993587E1;7.134721279E-1
1.349035700E1;-4.991910458E0;-1.326746845E1;-5.339069963E-1
1.350085700E1;-3.639186621E0;-1.386003399E1;-1.795651317E-1
1.352018700E1;-2.552218914E0;-1.463216400E1;2.413355350E0
1.353027200E1;-3.031059265E0;-1.455914021E1;3.323152065E0
1.355020000E1;-4.298789024E0;-1.308550930E1;2.752134800E0
1.357016900E1;-4.790797710E0;-1.130781460E1;-7.469909191E-1
1.358033000E1;-4.722562790E0;-1.068292809E1;-2.554613113E0
1.360028100E1;-3.901351690E0;-1.054406452E1;-3.469198227E0
1.361059300E1;-3.019088268E0;-1.065060616E1;-2.206256866E0
1.363024400E1;-1.708262920E0;-1.106001472E1;9.289502501E-1
1.365017000E1;-3.782838583E-1;-1.107198620E1;2.782062292E0
1.366050000E1;6.045359373E-1;-1.032738876E1;2.613271236E0
1.368033000E1;6.320692301E-1;-9.686940193E0;1.696291924E0
1.370024100E1;2.956839204E-1;-9.349357605E0;8.798691034E-1
1.371027700E1;-2.154781483E-2;-9.343372345E0;6.093243361E-1
1.373020900E1;-4.249708056E-1;-9.173383713E0;7.445967197E-1
1.374035900E1;-6.224924326E-1;-9.106346130E0;7.817068696E-1
1.376018000E1;-5.554547906E-1;-9.123106003E0;9.050082564E-1
1.378076500E1;-6.871358752E-1;-8.880094528E0;1.078587890E0
1.380053700E1;-3.627215624E-1;-8.520963669E0;3.962403834E-1
1.381055700E1;-3.782838583E-1;-8.170213699E0;2.573766708E-1
1.383025000E1;-8.104372621E-1;-7.364564419E0;4.453215301E-1
1.384079400E1;-8.978256583E-1;-7.158663273E0;2.274491638E-1
1.386030500E1;-1.191115379E0;-6.696582317E0;-4.644751251E-1
1.388030700E1;-1.260547161E0;-6.585251808E0;-4.584896266E-1
1.389046500E1;-1.103726983E0;-6.640318394E0;-6.404489279E-1
1.391026700E1;-9.576807022E-1;-6.733692169E0;-1.252167463E0
1.393027700E1;-1.054645896E0;-6.567295074E0;-5.758054852E-1
1.395034700E1;-1.182735682E0;-6.276399612E0;-1.831564307E-1
1.397011700E1;-1.537077546E0;-6.113594055E0;-3.232172132E-2
1.398013300E1;-1.884236693E0;-6.090848923E0;-4.070143029E-2
1.399054800E1;-2.234987259E0;-6.119579315E0;-1.687912196E-1
1.400093400E1;-2.510320425E0;-6.148310184E0;-3.794809580E-1
1.402030100E1;-2.852691412E0;-6.373364925E0;-6.177040339E-1
1.404026700E1;-2.543839216E0;-6.665457726E0;-7.685387731E-1
1.405032400E1;-2.324769735E0;-6.902483463E0;-3.663128614E-1
1.406083800E1;-2.391807556E0;-6.974309444E0;-1.280897856E-1
1.408027000E1;-2.709039211E0;-6.889315605E0;1.316810958E-2
1.409073000E1;-3.007117271E0;-6.817489147E0;-1.580173075E-1
1.411025600E1;-3.410540342E0;-6.974309444E0;-5.542576909E-1
1.413023400E1;-3.409343243E0;-7.146692276E0;-4.177882075E-1
1.414998600E1;-3.700238705E0;-7.293935299E0;-4.070142806E-1
1.416035100E1;-3.909731388E0;-7.477091789E0;-7.876923680E-1
1.418024000E1;-4.313154221E0;-8.726864815E0;-2.074575663E0
1.419049100E1;-4.525041103E0;-9.768342972E0;-2.451662540E0
1.421050100E1;-4.395754337E0;-1.209071827E1;-1.983596087E0
1.423020200E1;-3.636792421E0;-1.357153225E1;-8.702923059E-1
1.424020700E1;-3.075352192E0;-1.405396366E1;9.457096457E-2
1.425027200E1;-2.970007181E0;-1.399889755E1;3.351882398E-1
1.426037900E1;-2.990357876E0;-1.366011810E1;4.728548229E-1
1.428051300E1;-3.694253206E0;-1.322676754E1;4.213795066E-1
1.429261500E1;-3.957615376E0;-1.291552067E1;4.560954273E-1
1.431025900E1;-5.149928093E0;-1.298375607E1;-1.029506698E-1
1.433028000E1;-6.257246017E0;-1.278384018E1;-1.319205165E0
1.435027700E1;-6.645106792E0;-1.159033012E1;-1.685518026E0
1.436055300E1;-6.628347397E0;-1.077989292E1;-1.479616642E0
1.438019100E1;-5.940014362E0;-9.325415611E0;-1.060631394E0
1.439020700E1;-5.300762653E0;-8.868123055E0;-1.039083481E0
1.440022600E1;-4.363432407E0;-8.628703117E0;-1.051054597E0
1.441065600E1;-3.345896959E0;-8.586804390E0;-8.798691034E-1
1.443021800E1;-1.948880196E0;-9.242815971E0;2.166752517E-1
1.444023100E1;-1.800439715E0;-1.015380955E1;1.221042871E0
1.445024400E1;-1.982398987E0;-1.029985619E1;1.458068848E0
1.446072700E1;-2.444479942E0;-1.031541824E1;1.516726732E0
1.448106400E1;-3.594893932E0;-1.009515190E1;1.811213613E0
1.450021900E1;-4.357447147E0;-1.021845245E1;2.401384354E0
1.451024900E1;-4.393360138E0;-1.029027843E1;2.905363798E0
1.453144600E1;-3.877409697E0;-1.017056847E1;3.518279314E0
1.455026300E1;-3.369838953E0;-9.747992516E0;3.755305290E0
1.457016200E1;-3.254917145E0;-9.260771751E0;3.758896589E0
1.458030100E1;-3.274070740E0;-9.047688484E0;3.622427225E0
1.459049400E1;-3.215412855E0;-8.866926193E0;3.339911461E0
1.461108100E1;-3.101688385E0;-8.622717857E0;2.833537817E0
1.463023800E1;-3.118447781E0;-8.596381187E0;2.175132275E0
1.465019500E1;-2.967612982E0;-8.192957878E0;1.866280198E0
1.466045700E1;-2.986766577E0;-8.032546997E0;1.748964310E0
1.467054200E1;-2.956839085E0;-7.796717644E0;1.782483220E0
1.469035500E1;-2.885013103E0;-7.435193539E0;1.816002011E0
1.471026400E1;-2.749740601E0;-7.068880558E0;2.001552582E0
1.472037000E1;-2.735375404E0;-6.872556210E0;2.003946781E0
1.474027400E1;-2.656366825E0;-6.621164799E0;1.651999116E0
1.475047800E1;-2.697068214E0;-6.466738701E0;1.598129630E0
1.476151400E1;-2.772485495E0;-6.427234650E0;1.517923832E0
1.478143800E1;-2.767697096E0;-6.430825710E0;1.491587639E0
1.480070000E1;-2.853888512E0;-6.633135796E0;1.173158884E0
1.482028600E1;-3.139995575E0;-6.983886242E0;7.685387731E-1
1.483029000E1;-3.968389273E0;-7.333439827E0;6.619967818E-1
1.484077800E1;-4.489128113E0;-7.472303391E0;6.332663298E-1
1.486019700E1;-5.357026100E0;-7.523778915E0;6.392518282E-1
1.487027100E1;-5.617994308E0;-7.533355713E0;4.596867263E-1
1.488030800E1;-5.871779442E0;-7.541735172E0;3.878606856E-1
1.490010700E1;-5.889736176E0;-7.849390507E0;1.867477298E-1
1.491020600E1;-5.827486992E0;-8.689755440E0;-2.549824715E-1
1.492023300E1;-5.534197330E0;-9.464279175E0;-5.087678432E-1
1.493035300E1;-5.031414986E0;-1.048899746E1;-4.165911078E-1
1.494036300E1;-4.468777657E0;-1.143710136E1;-7.661445439E-2
1.496028700E1;-3.633201122E0;-1.271081638E1;7.481880188E-1
1.498043300E1;-3.651157618E0;-1.368645382E1;6.440402865E-1
1.499157100E1;-4.077325344E0;-1.432690334E1;4.764461517E-1
1.501064300E1;-4.282029629E0;-1.507269669E1;-7.182604820E-2
1.503022900E1;-3.531447411E0;-1.455794334E1;-1.580173075E-1
1.504054500E1;-3.338714361E0;-1.417487144E1;-1.304839998E-1
1.506028300E1;-3.338714361E0;-1.340872669E1;-7.302315533E-2
1.508022600E1;-3.623624325E0;-1.275630665E1;-1.472434103E-1
1.510001300E1;-4.498704910E0;-1.196382618E1;-6.045359373E-1
1.511053200E1;-5.082890034E0;-1.150413895E1;-6.033388376E-1
1.513020700E1;-6.295553207E0;-1.079545593E1;-1.482010841E0
1.514020800E1;-6.763619900E0;-1.028549004E1;-1.987187386E0
1.515022900E1;-7.058106422E0;-9.894038200E0;-2.689885616E0
1.517004500E1;-6.659471989E0;-9.421183586E0;-3.775655985E0
1.518019900E1;-5.866991043E0;-9.218873978E0;-3.774458885E0
1.519023000E1;-4.984727859E0;-9.066842079E0;-3.254917145E0
1.521007200E1;-3.276464939E0;-8.983044624E0;-1.274912357E0
1.523010800E1;-1.522712231E0;-8.759186745E0;4.010287821E-1
1.524024400E1;-1.374271750E0;-8.663418770E0;5.614402890E-1
1.526020700E1;-1.721431017E0;-8.554482460E0;5.985504389E-1
1.527027500E1;-1.957259893E0;-8.465897560E0;5.135562420E-1
1.529022700E1;-2.202665567E0;-8.315062523E0;1.747767180E-1
1.530030400E1;-2.290053844E0;-8.344989777E0;-8.379705995E-2
1.532014800E1;-2.321178436E0;-8.200140953E0;-2.310404629E-1
1.533022600E1;-2.402581453E0;-8.008605003E0;-2.226607651E-1
1.535017000E1;-2.634819031E0;-7.498639584E0;-4.944026470E-1
1.536021600E1;-2.806004286E0;-7.138312340E0;-5.339069963E-1
1.537025200E1;-2.952050686E0;-6.885724068E0;-7.170634270E-1
1.539025200E1;-3.089717388E0;-6.398504257E0;-6.153098345E-1
1.541024400E1;-3.003525972E0;-6.197391033E0;-6.967126727E-1
1.543020200E1;-2.679111719E0;-6.167463779E0;-1.532289088E-1
1.544036300E1;-2.564189911E0;-6.239289761E0;-2.394201607E-2
1.546030500E1;-2.518700123E0;-6.360196590E0;1.017535701E-1
1.548020400E1;-2.857479811E0;-6.209362030E0;3.711012751E-2
1.549081500E1;-3.021482468E0;-6.120776653E0;-2.501940727E-1
1.551019800E1;-3.144783974E0;-5.985504150E0;-5.003881454E-1
1.553068000E1;-3.289633036E0;-6.071695328E0;-2.346317619E-1
1.555021800E1;-3.305195332E0;-6.297947407E0;-8.619125932E-2
1.557032800E1;-3.362656355E0;-6.455965042E0;1.376665980E-1
1.558036400E1;-3.508702517E0;-6.556521416E0;1.663970202E-1
1.559999400E1;-3.427299738E0;-7.037755966E0;-3.567360640E-1
1.561072400E1;-3.298012733E0;-7.481880188E0;-5.949591398E-1
1.563026300E1;-3.359065056E0;-8.141483307E0;-3.232172430E-1
1.564028400E1;-3.183091164E0;-8.420407295E0;-2.525882721E-1
1.565044700E1;-3.075352192E0;-8.668207169E0;-1.939303428E-1
1.567046800E1;-2.788047791E0;-8.926780701E0;-8.259996027E-2
1.569010500E1;-2.403778553E0;-9.132682800E0;-4.333505034E-1
1.570072100E1;-2.138022184E0;-9.222464561E0;-6.703764796E-1
1.572022900E1;-1.941697598E0;-9.329007149E0;-1.628057212E-1
1.573046800E1;-2.090138197E0;-9.550470352E0;2.394201607E-2
1.575026200E1;-2.598906040E0;-9.886856079E0;7.062894851E-2
1.576035500E1;-3.141192675E0;-1.016817474E1;-3.555389643E-1
1.578040800E1;-4.270058632E0;-1.112106705E1;-1.910573006E0
1.580036000E1;-4.803965569E0;-1.206557941E1;-2.535459518E0
1.581054300E1;-4.613626480E0;-1.290833855E1;-1.501164436E0
1.583028000E1;-4.370615005E0;-1.308431244E1;2.274491638E-2
1.584044500E1;-4.317942619E0;-1.294066048E1;6.631938815E-1
1.586035900E1;-4.479551315E0;-1.266053867E1;1.555034041E0
1.588022200E1;-5.007472992E0;-1.263779354E1;1.437718153E0
1.589025800E1;-5.155913353E0;-1.258990955E1;1.167173386E0
1.590030700E1;-5.157110691E0;-1.241872406E1;8.678981066E-1
1.591062300E1;-5.093664169E0;-1.203924370E1;6.727706790E-1
1.593024000E1;-5.091269970E0;-1.054286766E1;1.115697980E0
1.594028400E1;-5.278017521E0;-9.647436142E0;1.240196466E0
1.595046800E1;-5.448006153E0;-8.726864815E0;1.102529883E0
1.597020100E1;-5.552153587E0;-7.418434143E0;3.675099611E-1
1.598021300E1;-5.400122166E0;-7.047332764E0;-1.436520964E-1
1.599050200E1;-5.255272865E0;-6.906075001E0;-3.615244627E-1
1.601421800E1;-4.420893669E0;-7.302315235E0;7.182604820E-2
1.603031900E1;-4.039018154E0;-7.888894558E0;9.959878922E-1
1.605057500E1;-3.776853085E0;-8.613141060E0;1.546654344E0
1.607022200E1;-3.489548922E0;-9.071630478E0;1.715445518E0
1.609056000E1;-3.415328741E0;-9.327810287E0;1.856703401E0
1.611160000E1;-3.390189648E0;-9.324218750E0;2.324769735E0
1.613023100E1;-3.331531763E0;-9.361329079E0;2.819172382E0
1.614030200E1;-3.272873640E0;-9.358934402E0;3.025073767E0
1.616016000E1;-3.101688385E0;-9.333795547E0;3.283647537E0
1.617023400E1;-3.095702887E0;-9.313444138E0;3.220201254E0
1.619025500E1;-3.143586874E0;-9.186552048E0;3.101688385E0
1.621023400E1;-3.664325714E0;-8.608352661E0;2.825158119E0
1.622070600E1;-3.884592295E0;-8.243236542E0;2.613271236E0
1.624072500E1;-4.277241230E0;-7.483077526E0;2.296039343E0
1.626025800E1;-4.373009205E0;-6.839036942E0;1.935712099E0
1.628022900E1;-4.209006786E0;-6.330269337E0;1.412579060E0
1.629023900E1;-4.001908302E0;-6.149507046E0;1.413776159E0
1.630038900E1;-3.770867586E0;-6.070498466E0;1.450886250E0
1.632025100E1;-3.347094059E0;-5.999869347E0;1.490390539E0
1.633051400E1;-3.211821556E0;-6.007051945E0;1.376665950E0
1.635024700E1;-3.396175146E0;-6.101623058E0;1.015141487E0
1.636041200E1;-3.593696833E0;-6.247669220E0;7.601590157E-1
1.638019900E1;-3.964797974E0;-6.777985096E0;5.231330991E-1
1.639026900E1;-3.989937067E0;-7.156269073E0;4.465186298E-1
1.641144500E1;-3.262099743E0;-8.224082947E0;1.643619418E0
1.643030300E1;-3.448847532E0;-9.126696587E0;2.655169725E0
1.645016000E1;-3.641580820E0;-1.031781197E1;2.464830637E0
1.646048000E1;-3.790021181E0;-1.099776554E1;2.135627985E0
1.647048600E1;-3.985148668E0;-1.171842003E1;1.793257117E0
1.648060200E1;-4.226963043E0;-1.250371838E1;1.459265947E0
1.650066200E1;-4.610035419E0;-1.430056667E1;4.848258495E-1
1.652020000E1;-4.918887615E0;-1.625543213E1;1.628057212E-1
1.654032800E1;-4.689043999E0;-1.763329506E1;4.740519226E-1
1.656025400E1;-4.382586002E0;-1.775300598E1;8.511387110E-1
1.657032600E1;-3.859453201E0;-1.685039139E1;1.054645896E0
1.658042400E1;-3.365050554E0;-1.570835781E1;9.385270476E-1
1.659255900E1;-2.686294317E0;-1.441069984E1;7.601590157E-1
1.660641500E1;-5.422866940E-1;-1.189439392E1;2.585737705E-1
1.662034500E1;5.027823523E-2;-1.142752457E1;1.053448766E-1
1.664029600E1;-3.363853395E-1;-1.075116253E1;1.999158412E-1
1.666025000E1;-1.717839718E0;-9.939528465E0;-4.752490520E-1
1.668020300E1;-3.501519918E0;-9.150638580E0;-1.964442492E0
1.669023400E1;-4.179079056E0;-8.893261909E0;-2.767697096E0
1.671025100E1;-4.754884720E0;-8.535328865E0;-3.760093689E0
1.672050300E1;-4.757278919E0;-8.544905663E0;-3.804386616E0
1.674030300E1;-3.473986626E0;-8.814253807E0;-3.007117271E0
1.676025500E1;-1.431732655E0;-9.410409927E0;-1.381454349E0
1.677034500E1;-5.889736414E-1;-9.738415718E0;-3.160346150E-1
1.679030400E1;3.172317147E-1;-1.014183807E1;2.018311977E0
1.681047800E1;-3.112462163E-2;-9.891644478E0;1.576581836E0
1.683028500E1;-5.925649405E-1;-9.089587212E0;5.841852427E-1
1.684052500E1;-8.810662031E-1;-8.775946617E0;2.597708702E-1
1.685082000E1;-1.003170490E0;-8.529343605E0;7.422025502E-2
1.686184900E1;-1.182735682E0;-8.517372131E0;-1.197100878E-1
1.688025100E1;-1.353921056E0;-8.404845238E0;-1.077390760E-1
1.690015900E1;-1.550245643E0;-8.256404877E0;-3.351882398E-1
1.691019300E1;-1.454477549E0;-8.109161377E0;-5.686228871E-1
1.693021500E1;-1.227028370E0;-7.651868820E0;-8.463503122E-1
1.694025000E1;-1.277306557E0;-7.416039944E0;-9.852139950E-1
1.695025600E1;-1.541865945E0;-7.248445511E0;-1.018732786E0
1.696037800E1;-1.480813742E0;-6.970718384E0;-1.173158884E0
1.697047900E1;-1.565807939E0;-6.780379295E0;-1.313219666E0
1.699053900E1;-1.941697598E0;-6.536170483E0;-1.132457376E0
1.700073700E1;-1.976413488E0;-6.472724438E0;-1.071405292E0
1.701567600E1;-2.009932280E0;-6.446388245E0;-1.031900883E0
1.703073300E1;-2.078166962E0;-6.385335922E0;-9.085995555E-1
1.705024400E1;-2.085349798E0;-6.206967831E0;-7.852981687E-1
1.706031800E1;-2.056619167E0;-6.104017258E0;-9.050082564E-1
1.707074700E1;-2.038662672E0;-6.076483727E0;-1.094150186E0
1.709020600E1;-2.074575663E0;-6.019022942E0;-1.136048675E0
1.710026400E1;-2.163161278E0;-6.136339188E0;-1.165976286E0
1.711119700E1;-2.208651066E0;-6.133944988E0;-1.207874775E0
1.713019500E1;-2.308010340E0;-6.351817131E0;-1.084573388E0
1.715025300E1;-2.562992811E0;-6.290764809E0;-7.230489254E-1
1.716031400E1;-2.732981205E0;-6.129156113E0;-5.614402890E-1
1.718017500E1;-2.995146275E0;-5.791574001E0;-6.153098345E-1
1.719044600E1;-2.862268209E0;-5.493495941E0;-9.301473498E-1
1.721081300E1;-2.282871246E0;-5.406107426E0;-1.582567334E0
1.723002600E1;-1.976413488E0;-5.527014732E0;-1.387439847E0
1.724024800E1;-2.002749681E0;-5.781997204E0;-1.464054346E0
1.726026200E1;-2.402581453E0;-6.643909931E0;-1.674744129E0
1.728035000E1;-3.436876535E0;-8.446743965E0;-2.592920542E0
1.730020900E1;-3.708618402E0;-1.094748688E1;-3.184288263E0
1.731025300E1;-3.493140221E0;-1.210508347E1;-3.270479441E0
1.733026700E1;-3.040636063E0;-1.396896935E1;-3.064578056E0
1.735027700E1;-3.032256365E0;-1.552280712E1;-2.315192938E0
1.737048600E1;-3.417722940E0;-1.733521652E1;-1.922544003E0
1.738062700E1;-4.623203278E0;-1.922184753E1;-1.647210717E0
1.740023300E1;-5.542576790E0;-2.002989197E1;-1.260547161E0
1.741033600E1;-5.007472992E0;-2.026691818E1;-9.708487988E-1
1.743033300E1;-3.592499733E0;-1.957499313E1;-4.668693244E-2
1.744096600E1;-3.788824081E0;-1.857062531E1;1.030703783E0
1.746024500E1;-4.460397720E0;-1.530014610E1;2.519897223E0
1.748101600E1;-4.965574265E0;-1.155202293E1;1.849520802E0
1.750021300E1;-5.322310448E0;-8.530540466E0;1.268926859E-1
1.751031800E1;-5.157110691E0;-7.329848289E0;-6.177040339E-1
1.753029500E1;-4.929661274E0;-6.008249283E0;-1.964442492E0
1.754031600E1;-4.930858612E0;-6.063315868E0;-2.421735048E0
1.756034100E1;-5.233725071E0;-6.554127216E0;-3.296815634E0
1.758038100E1;-4.264073372E0;-7.881711960E0;-4.103661537E0
1.759083400E1;-3.750516891E0;-8.306682587E0;-3.313575268E0
1.761050200E1;-2.755726099E0;-9.180566788E0;-1.022324085E0
1.762051500E1;-2.352303267E0;-9.457097054E0;3.962403834E-1
1.763073700E1;-1.969230890E0;-9.470264435E0;1.746570110E0
1.765053100E1;-1.491587639E0;-9.209297180E0;3.375824451E0
1.767019900E1;-1.535880446E0;-8.878896713E0;3.276464939E0
1.769080600E1;-1.400607944E0;-9.230844498E0;1.661576033E0
1.771045500E1;-1.340752959E0;-1.003649330E1;9.792284966E-1
1.773031400E1;-1.387439847E0;-1.018373680E1;1.824381709E0
1.774033500E1;-1.572990537E0;-1.013465595E1;2.318784237E0
1.775063600E1;-1.850717902E0;-9.836577415E0;2.644395828E0
1.777028000E1;-2.566584110E0;-8.626308441E0;1.933317900E0
1.778042400E1;-2.755726099E0;-8.310274124E0;1.644816518E0
1.779058400E1;-2.867056608E0;-8.084021568E0;1.600523829E0
1.781079100E1;-3.333925962E0;-8.487444878E0;1.596932530E0
1.783069600E1;-3.162740469E0;-8.710105896E0;1.855506301E0
1.785032500E1;-2.998737574E0;-8.719682693E0;2.167949677E0
1.786042300E1;-2.929305792E0;-8.554482460E0;2.294842243E0
1.788004400E1;-2.833537817E0;-8.097189903E0;2.357091665E0
1.789077200E1;-2.834734917E0;-7.738059998E0;2.023100376E0
1.791027600E1;-2.956839085E0;-7.097610950E0;1.316810966E0
1.792045700E1;-3.070563793E0;-6.883329868E0;9.720458984E-1
1.794032100E1;-3.229778051E0;-6.672640324E0;8.403648138E-1
1.796024000E1;-3.414131641E0;-6.801927090E0;1.247379065E0
1.797051000E1;-3.904942989E0;-7.016208172E0;1.715445518E0
1.799046300E1;-4.317942619E0;-6.664260387E0;1.829170108E0
1.801049400E1;-4.408922195E0;-5.977124691E0;1.181538582E0
1.802115400E1;-4.231751442E0;-5.785588264E0;8.547300100E-1
1.803120800E1;-4.090493679E0;-5.644330502E0;5.925649405E-1
1.804999100E1;-3.891774893E0;-5.513846397E0;9.457096457E-1
1.806131100E1;-3.870227098E0;-5.656301498E0;1.572990537E0
1.808025800E1;-3.805583715E0;-6.258443356E0;2.698265314E0
1.810024100E1;-4.273650169E0;-6.868964672E0;2.434903145E0
1.811050000E1;-4.753687382E0;-7.126341343E0;1.312022567E0
1.813015900E1;-5.680243492E0;-7.709329605E0;-2.008735180E0
1.814019600E1;-5.615600109E0;-8.255207062E0;-3.424905539E0
1.815027100E1;-5.424064159E0;-9.099164009E0;-4.493916512E0
1.817019500E1;-3.312378168E0;-1.192073059E1;-3.199850559E0
1.818023100E1;-2.658761024E0;-1.279700851E1;-2.227804661E0
1.819050700E1;-2.287659645E0;-1.357751751E1;-1.302445769E0
1.821028500E1;-2.250549555E0;-1.481891155E1;-2.202665508E-1
1.823018200E1;-2.133233786E0;-1.531211662E1;-4.908113480E-1
1.824022600E1;-1.918952703E0;-1.524507904E1;-8.020575643E-1
1.826040100E1;-1.231816769E0;-1.431972027E1;-7.350199223E-1
1.828020700E1;-7.493851185E-1;-1.323035812E1;-6.607996821E-1
1.829055400E1;-7.457938194E-1;-1.283411789E1;-8.990227580E-1
1.831028500E1;-1.276109457E0;-1.258871269E1;-9.433154464E-1
1.832030000E1;-1.665167332E0;-1.236126328E1;-1.783680320E-1
1.834019500E1;-2.735375404E0;-1.188721180E1;1.632845521E0
1.836034100E1;-4.546588898E0;-1.073799419E1;5.829881430E-1
1.838024600E1;-5.056553841E0;-1.056680965E1;-1.248576164E0
1.840014700E1;-5.031414986E0;-1.095347309E1;-2.645592928E0
1.841024800E1;-4.793191910E0;-1.117134476E1;-2.972401381E0
1.843023500E1;-3.896563292E0;-1.110789871E1;-2.207453966E0
1.845021700E1;-3.032256365E0;-1.078587818E1;-8.319851160E-1
1.846063200E1;-2.828749418E0;-1.055962658E1;-1.735796183E-1
1.848025800E1;-2.862268209E0;-9.981427193E0;6.787561774E-1
1.850039800E1;-2.831143618E0;-9.666589737E0;6.715735793E-1
1.852015900E1;-2.731784105E0;-9.561244011E0;3.112462163E-1
1.853030200E1;-2.697068214E0;-9.467870712E0;2.932897210E-1
1.855018300E1;-2.729389906E0;-9.259574890E0;1.616086215E-1
1.856018600E1;-2.810792685E0;-8.892065048E0;-5.027823523E-2
1.858021200E1;-3.179499865E0;-8.115146637E0;-7.015010715E-1
1.859056300E1;-3.357867956E0;-7.642292023E0;-1.102529883E0
1.861027600E1;-3.460818529E0;-7.097610950E0;-2.047042370E0
1.862036500E1;-3.459621429E0;-6.925228596E0;-1.786074519E0
1.864030100E1;-3.415328741E0;-6.975506783E0;-1.192312479E0
1.866108200E1;-3.244143248E0;-6.902483463E0;-4.955997467E-1
1.868027700E1;-3.070563793E0;-6.775590897E0;-4.213795066E-1
1.870038800E1;-3.083731890E0;-6.787561893E0;-4.752490520E-1
1.872023100E1;-3.155557871E0;-6.570886612E0;-4.297592044E-1
1.874015600E1;-2.964021683E0;-6.218938828E0;-7.613561153E-1
1.875052600E1;-2.601300240E0;-6.045359135E0;-5.482721925E-1
1.877019400E1;-2.372653961E0;-5.846640587E0;-3.076549172E-1
1.879047500E1;-1.983596087E0;-5.674258232E0;-4.740519226E-1
1.881044300E1;-1.551442742E0;-5.540182590E0;-8.140285611E-1
1.883024800E1;-1.316810966E0;-5.351040840E0;-8.631097078E-1
1.884035100E1;-1.301248670E0;-5.394136429E0;-8.750807047E-1
1.886031300E1;-1.140837073E0;-5.720944881E0;-7.338228226E-1
1.888028600E1;-8.463503122E-1;-5.859808445E0;-4.022258818E-1
1.889054600E1;-8.511387110E-1;-5.840654850E0;-1.460463107E-1
1.891028800E1;-1.383848548E0;-5.658695698E0;3.591302410E-2
1.893025600E1;-2.226607561E0;-5.760449409E0;-4.213795066E-1
1.895054200E1;-2.644395828E0;-7.594407558E0;-1.173158884E0
1.896063300E1;-2.734178305E0;-8.667010307E0;-7.697358727E-1
1.898028000E1;-2.980781078E0;-1.083974838E1;8.978256583E-2
1.899067500E1;-3.198653460E0;-1.198896503E1;5.027823448E-1
1.901020600E1;-3.785232782E0;-1.448252583E1;8.906430602E-1
1.902022300E1;-4.186261654E0;-1.561857510E1;7.625532150E-1
1.903049600E1;-4.697423935E0;-1.687074280E1;3.112462163E-2
1.905022800E1;-4.976348400E0;-1.865083122E1;-1.440112352E0
1.907018000E1;-4.760869980E0;-1.990180206E1;-1.570596337E0
1.909020500E1;-4.254496574E0;-1.983835602E1;9.911994934E-1
1.910021800E1;-3.914519787E0;-1.887588692E1;2.675520420E0
1.911046200E1;-3.861847401E0;-1.754351234E1;4.062960148E0
1.913001600E1;-4.132391930E0;-1.455674648E1;4.140771866E0
1.914020900E1;-4.375403404E0;-1.327824306E1;3.055001259E0
1.916025400E1;-4.209006786E0;-1.020528507E1;-1.042674899E0
1.918021600E1;-4.431667328E0;-8.707711220E0;-2.893392801E0
1.919025600E1;-4.655525208E0;-7.970297337E0;-3.428496838E0
1.921026500E1;-5.486313343E0;-7.077260017E0;-4.005499363E0
1.923001000E1;-5.844246387E0;-7.107187748E0;-3.579331636E0
1.924002000E1;-5.807136059E0;-7.641094685E0;-3.195062160E0
1.925028700E1;-5.371391296E0;-8.051700592E0;-2.303221941E0
1.927054100E1;-4.334702015E0;-9.453505516E0;-3.052607179E-1
1.929018600E1;-3.843890905E0;-9.724050522E0;2.064998865E0
1.930040900E1;-3.983951569E0;-9.624691010E0;2.802412987E0
1.932015700E1;-4.368220806E0;-9.317035675E0;2.944868088E0
1.933049000E1;-4.411316395E0;-9.161413193E0;2.507926226E0
1.935019800E1;-3.594893932E0;-9.232041359E0;1.155202270E0
1.936025400E1;-3.215412855E0;-9.387664795E0;1.282094955E0
1.938022200E1;-2.585737944E0;-9.727641106E0;2.053027868E0
1.940031400E1;-2.246958256E0;-9.769539833E0;2.881421804E0
1.941076500E1;-2.093729496E0;-9.708487511E0;2.981978178E0
1.943025200E1;-2.303221941E0;-9.239224434E0;3.135207176E0
1.945018200E1;-2.943670988E0;-8.585607529E0;3.068169594E0
1.946019200E1;-3.178302765E0;-8.303091049E0;3.005920172E0
1.947026500E1;-3.324349165E0;-8.145073891E0;2.914940596E0
1.948054000E1;-3.365050554E0;-8.009801865E0;2.968810081E0
1.950037600E1;-3.406949043E0;-8.099584579E0;2.826355219E0
1.952014900E1;-3.216609955E0;-8.136694908E0;2.699462414E0
1.953050400E1;-3.211821556E0;-8.052897453E0;3.011905670E0
1.955023500E1;-3.377021551E0;-7.599195957E0;2.670732021E0
1.956033500E1;-3.345896959E0;-7.388506413E0;2.371456861E0
1.958020100E1;-3.271676540E0;-6.995857239E0;1.716642618E0
1.959030800E1;-3.262099743E0;-6.727706909E0;1.544260144E0
1.961022800E1;-3.211821556E0;-6.387730122E0;1.175553083E0
1.962028700E1;-3.189076662E0;-6.178237438E0;1.161187768E0
1.964020100E1;-3.118447781E0;-5.910087109E0;9.349357486E-1
1.965023100E1;-3.093308687E0;-5.819107056E0;8.858546019E-1
1.967018600E1;-3.084928989E0;-5.747281075E0;8.882488012E-1
1.968020200E1;-3.013102770E0;-5.723339081E0;8.379706144E-1
1.969027100E1;-2.948459387E0;-5.816712856E0;7.781155705E-1
1.971020800E1;-2.827552319E0;-6.046556473E0;8.451532125E-1
1.972031800E1;-2.728192806E0;-6.203376770E0;7.445967197E-1
1.973044700E1;-2.543839216E0;-6.333860397E0;5.051765442E-1
1.975048200E1;-2.537853718E0;-6.750451565E0;5.051765442E-1
1.977044700E1;-2.999934673E0;-7.779958248E0;3.782838583E-1
1.979018000E1;-2.822763920E0;-9.414001465E0;2.956839204E-1
1.980061200E1;-2.704250813E0;-1.040041256E1;4.896142483E-1
1.982017800E1;-2.278082848E0;-1.190516758E1;1.086967587E0
1.983068500E1;-2.245761156E0;-1.252766037E1;9.313444495E-1
1.985146800E1;-3.312378168E0;-1.380616379E1;-1.197100878E-1
1.987023900E1;-4.395754337E0;-1.485003567E1;-1.259350061E0
1.988059600E1;-4.859032154E0;-1.532528496E1;-1.629254222E0
1.990015200E1;-5.073313236E0;-1.567364120E1;-1.637633920E0
1.991026200E1;-4.715380192E0;-1.538394260E1;-1.028309584E0
1.993022900E1;-3.254917145E0;-1.351766300E1;1.388636976E-1
1.994024000E1;-3.065775394E0;-1.322556973E1;-2.992752194E-2
1.995029000E1;-2.470816135E0;-1.275870132E1;-9.935937077E-2
1.997020900E1;-1.224634171E0;-1.227626896E1;3.734954596E-1
1.998032500E1;-8.678981066E-1;-1.225113010E1;9.157821536E-1
2.000023100E1;-2.014720678E0;-1.264856720E1;3.089717388E0
2.001196700E1;-3.039438963E0;-1.269764900E1;3.898957491E0
2.003026600E1;-5.099649429E0;-1.215536213E1;2.981978178E0
2.005023700E1;-6.221333027E0;-1.112465858E1;-6.596025825E-1
2.006032100E1;-6.211756229E0;-1.038963795E1;-2.412158251E0
2.008021200E1;-5.716156483E0;-9.167398453E0;-5.183446884E0
2.009023300E1;-5.143942356E0;-8.781931877E0;-5.772420406E0
2.011029100E1;-3.560178041E0;-8.640673637E0;-4.589684486E0
2.013019800E1;-1.375468850E0;-8.949525833E0;-2.609679997E-1
2.015035300E1;-4.884171486E-1;-9.108740807E0;9.121908545E-1
2.016037200E1;-2.394201756E-1;-9.259574890E0;9.277531505E-1
2.018016600E1;-3.088520169E-1;-9.392453194E0;7.134721279E-1
2.019026800E1;-6.619967818E-1;-9.378087997E0;6.368576288E-1
2.021094800E1;-1.452083349E0;-8.643068314E0;2.238578647E-1
2.023020600E1;-2.009932280E0;-7.874529362E0;-4.453215301E-1
2.025025600E1;-2.573766708E0;-7.489062786E0;-1.060631394E0
2.026026900E1;-2.353500366E0;-7.175422668E0;-1.189918280E0
2.027035700E1;-2.164358377E0;-6.937199593E0;-1.194706678E0
2.028449900E1;-2.127248287E0;-6.907271862E0;-1.233013868E0
2.030044600E1;-1.985990286E0;-6.484695435E0;-1.144428372E0
2.032030300E1;-2.103306293E0;-6.357802391E0;-1.680729628E0
2.034063100E1;-2.268506050E0;-6.676231384E0;-1.655590534E0
2.036029100E1;-2.561795712E0;-6.898892403E0;-1.493981838E0
2.037998000E1;-2.685097218E0;-6.926425457E0;-1.454477549E0
2.039002300E1;-2.709039211E0;-6.892906666E0;-1.357512355E0
2.040998400E1;-2.831143618E0;-7.006631374E0;-1.112106681E0
2.042013300E1;-2.852691412E0;-7.155071735E0;-9.265560508E-1
2.043997400E1;-2.791639090E0;-7.343016624E0;-4.656722248E-1
2.046005100E1;-2.560598612E0;-7.460332394E0;-2.094926536E-1
2.047021400E1;-2.431311846E0;-7.450755596E0;-1.149216816E-1
2.048023900E1;-2.243366957E0;-7.419631004E0;-7.541735470E-2
2.050007200E1;-1.874659896E0;-7.147889137E0;-1.951274425E-1
2.051012700E1;-1.715445518E0;-7.032967567E0;-4.716577232E-1
2.053015500E1;-1.995567083E0;-6.610390663E0;-1.029506698E-1
2.054084800E1;-2.145204782E0;-6.415263653E0;4.429273307E-2
2.056159400E1;-2.158372879E0;-6.019022942E0;1.304839998E-1
2.058109900E1;-2.001552582E0;-5.582081318E0;-5.626374111E-2
2.060021700E1;-1.958456993E0;-5.521028996E0;9.576806799E-3
2.061140100E1;-1.927332401E0;-5.613205910E0;2.837128937E-1
2.063020300E1;-2.217030764E0;-6.421248913E0;2.980781198E-1
2.064040300E1;-2.466027737E0;-7.015010834E0;1.508347094E-1
2.066025300E1;-3.318363667E0;-8.807070732E0;-2.741360962E-1
2.068020900E1;-3.987542868E0;-1.093791008E1;-5.602431893E-1
2.069022700E1;-4.261679173E0;-1.171722317E1;-4.309563041E-1
2.071023200E1;-5.237316132E0;-1.346738434E1;-8.750807047E-1
2.072023500E1;-6.042964935E0;-1.576581860E1;-1.829170108E0
2.074031700E1;-5.774814606E0;-1.801397324E1;-2.568978310E0
2.076039500E1;-4.667496204E0;-1.951394081E1;-2.129642487E0
2.078057100E1;-4.425682068E0;-1.867597008E1;-1.065419763E-1
2.080021500E1;-5.500678539E0;-1.610459709E1;6.835445762E-1
2.081025800E1;-6.272808552E0;-1.485961246E1;2.944868207E-1
2.083023100E1;-7.006631374E0;-1.205480576E1;-4.656722248E-1
2.085023300E1;-7.435193539E0;-1.046146393E1;-1.837549806E0
2.086034600E1;-7.455543995E0;-9.700108528E0;-2.245761156E0
2.088039600E1;-7.562086105E0;-7.854178905E0;-2.473210335E0
2.090052400E1;-7.770381451E0;-6.713341713E0;-2.461239338E0
2.092013300E1;-7.716512203E0;-7.557297707E0;-2.582146645E0
2.093049200E1;-7.267599106E0;-8.251616478E0;-2.029085875E0
2.095021000E1;-6.312312603E0;-9.263166428E0;-3.387795389E-1
2.096035600E1;-5.981913090E0;-9.555258751E0;3.830722570E-1
2.098018900E1;-5.619191170E0;-9.773131371E0;1.478419542E0
2.100016400E1;-5.299565315E0;-9.467870712E0;1.533486247E0
2.101153200E1;-5.115211964E0;-9.276334763E0;1.353921056E0
2.103027500E1;-4.541800499E0;-8.802282333E0;1.086967587E0
2.105023800E1;-3.782838583E0;-8.361749649E0;1.161187768E0
2.106074200E1;-3.573346138E0;-8.343792915E0;1.332373261E0
2.108016100E1;-3.159149170E0;-8.364143372E0;1.740584612E0
2.109018700E1;-2.926911592E0;-8.377311707E0;1.895010591E0
2.110044200E1;-2.736572504E0;-8.304288864E0;2.032677174E0
2.112083900E1;-2.732981205E0;-7.984662533E0;1.483207941E0
2.114024400E1;-3.058592558E0;-7.830236435E0;1.021126986E0
2.115027300E1;-3.222595453E0;-7.836222172E0;1.089361787E0
2.116184400E1;-3.353079557E0;-7.862558365E0;1.339555860E0
2.118028900E1;-3.552995205E0;-7.941566944E0;2.491166830E0
2.120018100E1;-3.774458885E0;-7.971494675E0;3.642777920E0
2.121141800E1;-3.834314108E0;-7.981071472E0;3.895366192E0
2.123126100E1;-4.150348663E0;-7.976283073E0;3.866635799E0
2.125030900E1;-4.367023945E0;-8.057685852E0;3.373430252E0
2.127012200E1;-4.562151432E0;-8.249221802E0;2.995146275E0
2.128030600E1;-4.516661644E0;-8.252813339E0;2.961627483E0
2.130019200E1;-4.364629745E0;-8.297105789E0;2.627636433E0
2.132041300E1;-4.444835663E0;-7.916428089E0;2.371456861E0
2.134038100E1;-4.332307816E0;-7.532158375E0;1.971625090E0
2.135066400E1;-4.203021049E0;-7.360973358E0;1.818396211E0
2.137020900E1;-3.709815502E0;-7.062894821E0;1.419761658E0
2.139019400E1;-3.525461912E0;-6.639121532E0;1.672349930E0
2.140066800E1;-3.481169224E0;-6.505045891E0;1.678335428E0
2.141104800E1;-3.404554844E0;-6.335057735E0;1.595735431E0
2.143027100E1;-3.271676540E0;-5.924452305E0;1.200692177E0
2.145010900E1;-3.143586874E0;-5.325901508E0;8.403648138E-1
2.146032100E1;-3.130418777E0;-5.167884350E0;6.607996821E-1
2.148021200E1;-2.875436306E0;-4.869806290E0;5.255272985E-1
2.149043200E1;-2.758120298E0;-4.787206173E0;6.272808313E-1
2.151022600E1;-2.264914751E0;-4.911705017E0;-5.231330991E-1
2.153025800E1;-2.123656988E0;-5.140350819E0;-1.286883354E0
2.155047100E1;-2.317587137E0;-5.814318657E0;-9.337386489E-1
2.157029700E1;-3.429693937E0;-7.100005150E0;3.615244627E-1
2.159022100E1;-4.795586109E0;-8.291120529E0;1.812410712E0
2.161031500E1;-6.212953568E0;-9.631873131E0;1.385045648E0
2.163021100E1;-7.592013359E0;-1.163462353E1;-7.900865674E-1
2.164081000E1;-7.724891663E0;-1.215416527E1;-1.640028119E0
2.166020800E1;-7.489062786E0;-1.375109768E1;-3.734954596E0
2.168020300E1;-7.013813972E0;-1.541147614E1;-4.627991676E0
2.170064300E1;-7.838616371E0;-1.737951088E1;-1.221042871E0
2.172034800E1;-8.713697433E0;-1.625782585E1;1.057040095E0
2.174020100E1;-9.979032516E0;-1.395580196E1;-4.776432514E-1
2.176020500E1;-9.594763756E0;-1.212782860E1;-3.251325846E0
2.177058000E1;-8.373720169E0;-1.174834728E1;-4.352658749E0
2.179020800E1;-5.734113216E0;-1.155800915E1;-3.049015760E0
2.180021300E1;-4.871003151E0;-1.166814232E1;-1.314416766E0
2.181051100E1;-4.516661644E0;-1.172440529E1;1.173158810E-1
2.183061300E1;-5.225345135E0;-1.084693050E1;1.874659896E0
2.185016300E1;-6.600813866E0;-9.127894402E0;1.144428372E0
2.186027000E1;-6.907271862E0;-8.410830498E0;-1.735796183E-1
2.188035500E1;-6.709750175E0;-7.819462776E0;-3.507505417E0
2.190012800E1;-4.388571739E0;-7.447164536E0;-5.519832134E0
2.191024800E1;-3.640383720E0;-7.665036678E0;-4.474762917E0
2.193029100E1;-2.803610086E0;-8.525752068E0;-1.091755986E0
2.195031600E1;-2.381033659E0;-9.623494148E0;2.097320795E0
2.196065300E1;-1.977610588E0;-9.807847023E0;3.145981073E0
2.198016800E1;-1.176750183E0;-9.618705750E0;3.664325714E0
2.199025500E1;-8.726865053E-1;-9.344569206E0;3.302801132E0
2.200026000E1;-6.943184733E-1;-9.078812599E0;2.729389906E0
2.201706700E1;-5.674257874E-1;-8.716091156E0;2.005143881E0
2.203046800E1;-6.200982332E-1;-8.644265175E0;1.671152830E0
2.205059100E1;-1.069011092E0;-8.487444878E0;1.364694953E0
2.206166000E1;-1.294066072E0;-8.306682587E0;1.121683478E0
2.208102800E1;-1.666364431E0;-7.594407558E0;5.303156972E-1
2.210021500E1;-2.248155355E0;-6.678625584E0;-9.337386489E-2
2.212047000E1;-2.622848034E0;-6.527791023E0;2.298433632E-1
2.213059900E1;-2.771288395E0;-6.555324078E0;6.584054828E-1
2.215082600E1;-2.984372377E0;-6.678625584E0;1.163581967E0
2.217017200E1;-3.035847664E0;-6.663063526E0;7.589619160E-1
2.219023700E1;-3.362656355E0;-6.564900875E0;2.322375625E-1
2.221024800E1;-3.853467703E0;-6.527791023E0;-2.717418969E-1
2.222026000E1;-4.050989151E0;-6.540958881E0;-6.548141837E-1
2.224018400E1;-4.141968727E0;-6.695384979E0;-8.774749041E-1
2.225065800E1;-4.141968727E0;-6.871358871E0;-7.924807668E-1
2.227020500E1;-4.161122322E0;-7.122750282E0;-3.830722570E-1
2.228029800E1;-4.118026733E0;-7.236474514E0;-5.746084079E-2
2.230063900E1;-3.503914118E0;-7.309497833E0;3.830722570E-1
2.232014100E1;-3.059789658E0;-7.266402245E0;3.603273630E-1
2.233046900E1;-2.770091295E0;-7.224503517E0;2.310404629E-1
2.235017000E1;-2.343923569E0;-7.028179169E0;1.819593310E-1
2.237031000E1;-2.064998865E0;-6.631938934E0;4.668693244E-1
2.239024800E1;-1.892616391E0;-5.963956356E0;9.038111567E-1
2.241054200E1;-1.946485996E0;-5.012261391E0;7.589619160E-1
2.243034700E1;-2.060210466E0;-4.243722439E0;2.358288616E-1
2.244042800E1;-2.274491549E0;-4.307168961E0;8.978256583E-2
2.245049100E1;-2.619256735E0;-4.610035419E0;-1.544260085E-1
2.247053900E1;-3.372233152E0;-6.129156113E0;-8.188169599E-1
2.249024100E1;-4.185064793E0;-8.935160637E0;-1.993172884E0
2.251130900E1;-4.286818027E0;-1.131978607E1;-1.927332401E0
2.253023000E1;-4.984727859E0;-1.396418095E1;-1.273715258E0
2.255052200E1;-5.781997204E0;-1.675821495E1;-7.936778665E-1
2.257018900E1;-5.604825974E0;-1.899440002E1;-2.477998734E-1
2.258022100E1;-5.534197330E0;-1.988624001E1;7.900865376E-2
2.259022600E1;-5.572504520E0;-2.042254066E1;7.505822182E-1
2.261019500E1;-5.853823185E0;-2.008376122E1;2.291250944E0
2.262024200E1;-6.331466198E0;-1.927811241E1;2.851494312E0
2.263025000E1;-6.936002254E0;-1.833000755E1;3.023876667E0
2.265032300E1;-7.849390507E0;-1.551921558E1;2.093729496E0
2.267024300E1;-8.200140953E0;-1.200811863E1;1.328781992E-1
2.269020300E1;-7.229291916E0;-7.569268703E0;-3.035847664E0
2.271022100E1;-5.627571106E0;-5.839457989E0;-3.611653328E0
2.273023500E1;-4.097676277E0;-5.742492676E0;-2.816778183E0
2.275118800E1;-2.930502892E0;-6.279991150E0;-1.274912357E0
2.277016100E1;-2.701856613E0;-7.231686115E0;-8.595184088E-1
2.278021500E1;-2.723404408E0;-7.507019520E0;-3.938461840E-1
2.279025300E1;-2.876633406E0;-7.629123688E0;2.059013397E-1
2.280029300E1;-3.202244759E0;-7.687781811E0;9.433154464E-1
2.281044800E1;-3.616441727E0;-7.818265438E0;1.563413739E0
2.283018900E1;-4.320336819E0;-7.835024834E0;3.242946148E0
2.284023800E1;-4.746504784E0;-7.872135162E0;4.019864559E0
2.286041400E1;-5.248090267E0;-7.987056732E0;4.994304657E0
2.288076400E1;-5.634753704E0;-8.547300339E0;4.723760128E0
2.290044400E1;-5.589263916E0;-8.804677010E0;4.351461411E0
2.292029600E1;-5.752069473E0;-9.082404137E0;3.549403906E0
2.294020500E1;-5.996278286E0;-9.627084732E0;2.786850691E0
2.296024400E1;-5.832275391E0;-9.939528465E0;3.172317266E0
2.298018900E1;-5.565321922E0;-9.962273598E0;4.098873138E0
2.299020700E1;-5.371391296E0;-9.866505623E0;4.367023945E0
2.300186900E1;-5.197812080E0;-9.643844604E0;4.508281708E0
2.302047100E1;-4.896142483E0;-9.027337074E0;4.055777550E0
2.304043500E1;-4.695029736E0;-8.433575630E0;3.177105665E0
2.305204000E1;-4.627991676E0;-8.178592682E0;2.765302896E0
2.307024500E1;-4.599261284E0;-7.594407558E0;2.412158251E0
2.309021200E1;-4.316745758E0;-7.256825447E0;2.546233416E0
2.310026100E1;-4.114435673E0;-7.068880558E0;2.583343744E0
2.311046900E1;-3.867832899E0;-6.891709805E0;2.494758129E0
2.313020600E1;-3.418920040E0;-6.366182327E0;2.566584110E0
2.314025300E1;-3.128024578E0;-6.215347767E0;2.494758129E0
2.315029300E1;-2.815581083E0;-6.050147533E0;2.421735048E0
2.317021400E1;-2.258929253E0;-5.783194065E0;2.225410461E0
2.319020100E1;-1.962048292E0;-5.329493046E0;2.090138197E0
2.320025600E1;-1.993172884E0;-5.081693172E0;2.005143881E0
2.321050300E1;-2.085349798E0;-4.900930882E0;1.775300503E0
2.322998300E1;-2.237381458E0;-4.772840977E0;1.255758762E0
2.324003700E1;-2.327163935E0;-4.800374508E0;1.066616893E0
2.326081600E1;-2.528276920E0;-5.058948040E0;6.380547285E-1
2.328039800E1;-3.099294186E0;-6.562506676E0;4.572925270E-1
2.330096700E1;-3.476380825E0;-8.159439087E0;6.452373862E-1
2.332014300E1;-3.983951569E0;-9.405621529E0;1.009155989E0
2.333016900E1;-4.294000626E0;-9.935936928E0;1.088164687E0
2.334044700E1;-4.614823818E0;-1.058476543E1;1.001973391E0
2.336017000E1;-5.448006153E0;-1.199135876E1;1.759738177E-1
2.337077400E1;-5.998672485E0;-1.284130096E1;-3.351882398E-1
2.339026300E1;-6.944382191E0;-1.413177586E1;-8.379706144E-1
2.341022100E1;-7.217320919E0;-1.544619274E1;-1.370680451E0
2.343044300E1;-6.251260757E0;-1.540668774E1;-1.045069098E0
2.344053200E1;-6.458359241E0;-1.515290260E1;-7.852981687E-1
2.346041900E1;-6.449979305E0;-1.378581333E1;-1.104924083E0
2.348051000E1;-5.143942356E0;-1.334288597E1;-1.521515131E0
2.349057400E1;-4.636371613E0;-1.340393829E1;-9.756371975E-1
2.351143700E1;-4.343081951E0;-1.333929443E1;1.849520802E0
2.353033800E1;-5.554547787E0;-1.241872406E1;4.453215122E0
2.355017800E1;-6.916848660E0;-1.097142887E1;4.548983097E0
2.356046100E1;-7.451952934E0;-1.046266174E1;3.298012733E0
2.358021600E1;-7.600393295E0;-9.557653427E0;5.698199868E-1
2.359027500E1;-7.438784599E0;-9.193734169E0;-5.877765417E-1
2.361029800E1;-6.574477673E0;-8.531737328E0;-2.506729126E0
2.363022200E1;-5.463568211E0;-8.149862289E0;-3.155557871E0
2.364060700E1;-4.800374508E0;-8.124723434E0;-2.840720415E0
2.366023700E1;-3.155557871E0;-8.273163795E0;-7.038952708E-1
2.367023800E1;-2.938882589E0;-8.305485725E0;1.149216816E-1
2.369051500E1;-2.643198729E0;-8.145073891E0;1.045069098E0
2.371019500E1;-2.503137827E0;-7.844601631E0;1.040280581E0
2.372023200E1;-2.547430515E0;-7.644686222E0;7.302315235E-1
2.373024800E1;-2.553416014E0;-7.433996201E0;3.830722570E-1
2.374051300E1;-2.542642117E0;-7.311892033E0;1.556231081E-2
2.376023300E1;-2.592920542E0;-7.327454090E0;-1.843535304E-1
2.378026700E1;-2.608482838E0;-7.268796444E0;1.640028208E-1
2.380013800E1;-2.837129116E0;-7.098807812E0;5.099649429E-1
2.382016000E1;-3.055001259E0;-6.708553314E0;4.740519226E-1
2.383025300E1;-3.084928989E0;-6.549338818E0;3.339911401E-1
2.385024100E1;-3.131615877E0;-6.224924564E0;3.351882473E-2
2.387017000E1;-3.110068083E0;-5.983109951E0;-7.182605099E-3
2.388031300E1;-3.180696964E0;-5.998672485E0;-2.633621916E-2
2.390034500E1;-3.150769472E0;-6.154295444E0;-2.813186944E-1
2.391052600E1;-3.095702887E0;-6.167463779E0;-2.789244950E-1
2.393049300E1;-3.125630379E0;-6.222530365E0;-3.399766386E-1
2.395020300E1;-3.187879562E0;-6.318298340E0;-4.740519226E-1
2.396021800E1;-3.049015760E0;-6.414066315E0;-7.038952708E-1
2.398022000E1;-2.832340717E0;-6.386533260E0;-6.967126727E-1
2.399026500E1;-2.772485495E0;-6.438008308E0;-5.817909837E-1
2.400041700E1;-2.655169725E0;-6.410475254E0;-4.572925270E-1
2.401131400E1;-2.439691544E0;-6.436811447E0;-4.740519226E-1
2.403064100E1;-2.281674147E0;-6.514622688E0;-1.364694983E-1
2.405000800E1;-2.353500366E0;-6.430825710E0;2.573766708E-1
2.406027100E1;-2.181117773E0;-6.343437195E0;1.891419291E-1
2.408006700E1;-1.816002011E0;-6.380547523E0;1.556231081E-1
2.409036200E1;-1.748964310E0;-6.348225594E0;2.561795712E-1
2.411031700E1;-1.677138329E0;-6.053739071E0;5.805938840E-1
2.413020500E1;-1.922544003E0;-5.811924458E0;5.781996846E-1
2.414021600E1;-2.073378563E0;-5.892130375E0;2.873041928E-1
2.415022500E1;-2.487575531E0;-6.318298340E0;1.675941236E-2
2.416049300E1;-2.874239206E0;-6.919242859E0;-2.861070931E-1
2.418011000E1;-4.179079056E0;-9.263166428E0;-9.804255962E-1
2.419017300E1;-4.402936935E0;-1.073081207E1;-1.073799491E0
2.421017500E1;-4.659116745E0;-1.415930843E1;-1.033097982E0
2.422023600E1;-4.596867085E0;-1.533845329E1;-8.200140595E-1
2.423049000E1;-5.029020786E0;-1.668279839E1;-1.262941360E0
2.425013400E1;-6.852205276E0;-1.923501587E1;-3.766079187E0
2.426035900E1;-7.237671852E0;-1.955823326E1;-4.144362926E0
2.428028100E1;-6.696582317E0;-1.956900787E1;-2.923320293E0
2.430026900E1;-5.724536419E0;-1.915361404E1;-1.640028208E-1
2.431031100E1;-5.634753704E0;-1.856224632E1;1.119289279E0
2.432049900E1;-5.104437828E0;-1.739267731E1;2.236184359E0
2.433134000E1;-5.166687489E0;-1.599805546E1;2.767697096E0
2.435050700E1;-5.753266811E0;-1.327824306E1;2.190694571E0
2.437025000E1;-6.521805286E0;-1.023760605E1;2.825157940E-1
2.438077800E1;-7.080851555E0;-8.826224327E0;-7.338228226E-1
2.440010100E1;-7.708132267E0;-6.106411457E0;-2.193088770E0
2.441117100E1;-7.966706276E0;-5.165490150E0;-2.917334795E0
2.443024100E1;-7.930793285E0;-4.286818027E0;-3.684676409E0
2.445074300E1;-6.982689381E0;-5.692214489E0;-2.661155224E0
2.446999600E1;-6.354211330E0;-6.906075001E0;-1.092953086E0
2.448019900E1;-6.019022942E0;-7.317877293E0;-3.447650373E-1
2.449026100E1;-5.796362400E0;-7.665036678E0;9.696517140E-2
2.451027100E1;-5.505466938E0;-7.969100475E0;9.792284966E-1
2.453026600E1;-5.008669853E0;-8.394071579E0;1.067813993E0
2.455027500E1;-4.061763287E0;-8.590395927E0;1.256955862E0
2.456028300E1;-3.591302633E0;-8.524555206E0;1.545457244E0
2.458029300E1;-3.020285368E0;-8.412027359E0;2.043451071E0
2.459030200E1;-2.967612982E0;-8.457517624E0;2.080561161E0
2.461025500E1;-3.246537447E0;-9.075222015E0;1.477222443E0
2.462051400E1;-3.483563423E0;-9.244012833E0;1.268926859E0
2.464021200E1;-3.919308186E0;-9.074024200E0;1.628057122E0
2.465027200E1;-4.149151325E0;-9.097966194E0;1.842338204E0
2.467021200E1;-4.480748653E0;-9.447520256E0;2.352303267E0
2.468027800E1;-4.341884613E0;-9.430760384E0;2.674323320E0
2.470025900E1;-4.335899353E0;-9.447520256E0;3.429693937E0
2.471033300E1;-4.304774761E0;-9.351752281E0;3.566163540E0
2.473036600E1;-4.024652958E0;-9.113529205E0;3.379415751E0
2.475021900E1;-4.209006786E0;-9.182960510E0;2.890998602E0
2.476032200E1;-4.589684486E0;-9.531316757E0;2.516305923E0
2.478042300E1;-4.604049683E0;-9.750386238E0;1.878251195E0
2.480019800E1;-4.425682068E0;-9.572018623E0;1.434126854E0
2.481026100E1;-4.322731018E0;-9.361329079E0;1.316810966E0
2.483046000E1;-4.302380562E0;-8.927978516E0;1.301248670E0
2.485017500E1;-3.842693806E0;-8.348581314E0;1.458068848E0
2.486020800E1;-3.473986626E0;-8.101978302E0;1.570596337E0
2.487093900E1;-3.119644880E0;-7.916428089E0;1.578976035E0
2.489048700E1;-2.620453835E0;-7.417236805E0;1.853112102E0
2.491023200E1;-2.172738075E0;-6.994660378E0;1.929726601E0
2.493021400E1;-1.744175911E0;-6.623558998E0;1.679532528E0
2.494032600E1;-1.578976035E0;-6.457161903E0;1.387439847E0
2.496021400E1;-1.572990537E0;-6.070498466E0;4.273650050E-1
2.498030100E1;-1.798045516E0;-5.427655220E0;-1.592144072E-1
2.499233500E1;-1.787271619E0;-5.255272865E0;-3.507505357E-1
2.500741300E1;-1.454477549E0;-5.073313236E0;-5.758054852E-1
2.502037200E1;-1.297657371E0;-4.985925198E0;-5.542576909E-1
2.503051200E1;-1.962048292E0;-5.187037945E0;-9.097966552E-2
2.505105200E1;-3.457227230E0;-5.081693172E0;6.404489279E-1
2.507007600E1;-5.239710331E0;-5.388150692E0;7.900865376E-2
2.508017600E1;-5.991489887E0;-5.643133640E0;-7.254431248E-1
2.509031700E1;-6.569689274E0;-5.999869347E0;-1.746570110E0
2.511026300E1;-7.309497833E0;-6.719326973E0;-3.213018656E0
2.513030500E1;-7.813477039E0;-7.748833656E0;-3.931279182E0
2.515015700E1;-8.026560783E0;-9.232041359E0;-4.124012470E0
2.516035600E1;-7.872135162E0;-9.631873131E0;-3.817554712E0
2.518007600E1;-7.699752808E0;-1.112465858E1;-3.278859138E0
2.519022400E1;-7.558494568E0;-1.204882050E1;-2.974795580E0
2.520034900E1;-7.325059891E0;-1.298136139E1;-2.473210335E0
2.521049900E1;-6.926425457E0;-1.349731255E1;-1.853112102E0
2.522996000E1;-5.967547894E0;-1.417367363E1;-6.105214357E-1
2.524000600E1;-5.210979939E0;-1.397974396E1;-2.837128937E-1
2.525001400E1;-5.222950935E0;-1.393305683E1;-1.472434103E-1
2.526015900E1;-5.560533524E0;-1.395580196E1;-9.576806799E-3
2.527016300E1;-6.305130005E0;-1.408987713E1;-9.935937077E-2
2.528036700E1;-7.214926720E0;-1.424909115E1;-6.057330370E-1
2.530014500E1;-7.777564049E0;-1.261863995E1;-1.485602140E0
2.531028600E1;-7.882909298E0;-1.167173290E1;-1.784877419E0
2.533107200E1;-8.462306023E0;-1.044590187E1;-1.130063176E0
2.535022100E1;-9.240421295E0;-1.008437729E1;4.752490520E-1
2.536037700E1;-9.337387085E0;-9.923966408E0;7.158663273E-1
2.538016900E1;-8.323442459E0;-9.488221169E0;-3.938461840E-1
2.539082900E1;-7.515398979E0;-9.532513618E0;-1.341950059E0
2.541026500E1;-5.509057999E0;-9.622296333E0;-1.995567083E0
2.543023600E1;-3.751713991E0;-9.928754807E0;2.837128937E-1
2.544031100E1;-3.671508312E0;-9.891644478E0;9.804255962E-1
2.545047200E1;-3.709815502E0;-9.809044838E0;1.365892053E0
2.547019800E1;-3.609259129E0;-9.271546364E0;1.283292055E0
2.548025400E1;-3.567360640E0;-8.884882927E0;7.218518257E-1
2.550030800E1;-3.543418407E0;-8.325836182E0;-4.668693244E-1
2.551100900E1;-3.483563423E0;-8.221688271E0;-8.271966577E-1
2.553122000E1;-3.224989653E0;-8.213309288E0;-1.319205165E0
2.555029200E1;-3.025073767E0;-7.954735279E0;-1.517923832E0
2.557021100E1;-3.019088268E0;-7.249642849E0;-1.209071875E0
2.558041400E1;-3.033453465E0;-6.971915245E0;-1.274912357E0
2.560028200E1;-2.944868088E0;-6.641515732E0;-1.155202270E0
2.562024200E1;-2.955641985E0;-6.533776283E0;-6.596025825E-1
2.563062200E1;-2.841917515E0;-6.564900875E0;-6.679822803E-1
2.565027800E1;-2.531868219E0;-6.852205276E0;-1.029506683E0
2.567032800E1;-2.449268341E0;-6.883329868E0;-7.589619160E-1
2.569026300E1;-2.652775526E0;-6.961141586E0;-6.991068721E-1
2.571031700E1;-2.832340717E0;-7.058106422E0;-7.457938194E-1
2.573025500E1;-3.150769472E0;-7.007828236E0;-5.901707411E-1
2.574025700E1;-3.198653460E0;-7.013813972E0;-5.315127969E-1
2.576027300E1;-3.094505787E0;-7.489062786E0;-8.080430627E-1
2.578039900E1;-2.888604403E0;-7.939172745E0;-4.141969085E-1
2.580068100E1;-2.725798607E0;-8.058882713E0;2.274491638E-1
2.582020300E1;-1.900996208E0;-7.717709064E0;1.939303428E-1
2.583025900E1;-1.721431017E0;-7.570465565E0;2.513911724E-1
2.585035500E1;-1.710657120E0;-7.212532520E0;4.501099288E-1
2.586039400E1;-1.829170108E0;-6.927622795E0;4.884171486E-1
2.588074900E1;-2.117671490E0;-6.491878033E0;1.017535701E-1
2.590020400E1;-2.493561029E0;-6.354211330E0;-5.518634915E-1
2.591030500E1;-2.616862535E0;-6.212953568E0;-5.901707411E-1
2.593018900E1;-3.045424461E0;-6.232107162E0;-5.817909837E-1
2.594033100E1;-3.151966572E0;-6.235698223E0;-5.051765442E-1
2.596030900E1;-3.143586874E0;-6.129156113E0;-2.082955539E-1
2.598017600E1;-2.865859509E0;-5.908889771E0;2.154781520E-1
2.599025400E1;-2.759317398E0;-5.801150799E0;4.944026470E-1
2.600139000E1;-2.730587006E0;-5.677849293E0;7.481880188E-1
2.602023500E1;-3.712209702E0;-6.355408192E0;1.699883193E-1
2.604093700E1;-4.590881824E0;-8.034940720E0;-4.908113480E-1
2.606026600E1;-5.438429356E0;-1.019331360E1;-1.477222443E0
2.608023700E1;-6.088454723E0;-1.202368069E1;-2.242169857E0
2.610026400E1;-7.204153061E0;-1.466927338E1;-2.798821688E0
2.611034500E1;-7.758410454E0;-1.657266426E1;-3.020285368E0
2.613020800E1;-8.816647530E0;-2.070625305E1;-1.716642618E0
2.614023700E1;-8.386888504E0;-2.175611115E1;-2.896983922E-1
2.616044600E1;-6.664260387E0;-2.055541801E1;3.602076530E0
2.618033900E1;-5.567716122E0;-1.864005661E1;4.942829609E0
2.620028900E1;-5.048174381E0;-1.599805546E1;4.841075897E0
2.622014800E1;-3.539827108E0;-1.187164879E1;3.066972494E0
2.623024900E1;-3.031059265E0;-1.061708736E1;1.478419542E0
2.625025100E1;-2.127248287E0;-7.837419033E0;-2.188300371E0
2.626053200E1;-1.766920805E0;-6.574477673E0;-3.646369219E0
2.628026000E1;-1.772906303E0;-5.130774021E0;-4.656722069E0
2.629062600E1;-1.944091797E0;-4.733336926E0;-4.331110954E0
2.631031400E1;-2.260126352E0;-4.619612217E0;-3.550601006E0
2.633026900E1;-2.445677042E0;-5.357026100E0;-2.953247786E0
2.635021300E1;-3.028665066E0;-7.230489254E0;-2.111685991E0
2.636032100E1;-2.886210203E0;-7.948749542E0;-1.037886381E0
2.637034200E1;-2.762908697E0;-8.599972725E0;1.675941199E-1
2.639021100E1;-2.588132143E0;-9.248801231E0;2.426523447E0
2.640138100E1;-2.902969599E0;-9.388861656E0;3.567360640E0
2.642027100E1;-4.096478939E0;-9.941922188E0;3.420117140E0
2.643029400E1;-4.206612587E0;-9.961075783E0;3.253720045E0
2.645048100E1;-4.062960148E0;-9.911994934E0;2.870647907E0
2.647018000E1;-4.015076160E0;-9.546878815E0;3.123236179E0
2.648023200E1;-4.028244495E0;-9.524134636E0;2.906560898E0
2.649033100E1;-3.878606796E0;-9.510966301E0;2.642001629E0
2.651029100E1;-3.253720045E0;-9.392453194E0;2.640804529E0
2.653019600E1;-2.673126221E0;-9.309853554E0;3.057395458E0
2.654047400E1;-2.215833664E0;-9.193734169E0;2.693476915E0
2.656017300E1;-1.959654093E0;-8.608352661E0;2.523488522E0
2.657018300E1;-2.246958256E0;-8.560467720E0;2.319981337E0
2.658032300E1;-2.455253839E0;-8.433575630E0;2.176329374E0
2.660011700E1;-2.557007313E0;-8.224082947E0;2.053027868E0
2.661021500E1;-2.402581453E0;-7.867346764E0;2.218227863E0
2.662024400E1;-2.280477047E0;-7.745242596E0;2.351106167E0
2.663026300E1;-2.121262789E0;-7.608773232E0;2.444479942E0
2.665014400E1;-2.142810583E0;-7.456741333E0;2.650381327E0
2.666042900E1;-2.260126352E0;-7.608773232E0;2.547430515E0
2.668033100E1;-2.132036686E0;-7.910442352E0;2.257732153E0
2.670041000E1;-2.062604666E0;-8.228871346E0;2.159569979E0
2.672018700E1;-2.138022184E0;-8.248024940E0;2.188300371E0
2.674020000E1;-2.560598612E0;-8.230068207E0;2.189497471E0
2.676027600E1;-2.902969599E0;-8.091204643E0;1.896207690E0
2.678053200E1;-3.213018656E0;-7.933187485E0;1.656787634E0
2.680081200E1;-3.280056238E0;-7.430405140E0;1.243787766E0
2.682024500E1;-3.469198227E0;-6.993463039E0;1.357512355E0
2.683109600E1;-3.600879431E0;-6.766014099E0;1.461660147E0
2.685055000E1;-4.101267338E0;-6.543353081E0;1.501164436E0
2.687017600E1;-4.584896088E0;-6.247669220E0;1.667561531E0
2.688078000E1;-4.914099216E0;-6.208165169E0;1.799242616E0
2.690023400E1;-5.330689907E0;-5.963956356E0;1.702277422E0
2.692022300E1;-5.480327606E0;-5.819107056E0;1.303642869E0
2.693060000E1;-5.617994308E0;-5.875370979E0;1.278503656E0
2.695050200E1;-5.876567841E0;-6.151901245E0;1.709460020E0
2.697158900E1;-5.716156483E0;-6.375759125E0;1.622071624E0
2.699023400E1;-5.515043736E0;-6.635529995E0;1.168370485E0
2.700026200E1;-4.881777287E0;-7.703343868E0;3.399766386E-1
2.701081500E1;-4.673481941E0;-8.561665535E0;2.394201700E-3
2.703024900E1;-4.404133797E0;-1.017176628E1;4.237737060E-1
2.705031100E1;-4.271255970E0;-1.146942329E1;1.371877551E0
2.707004400E1;-4.594472885E0;-1.261265469E1;5.650315881E-1
2.708022800E1;-4.799177170E0;-1.334767437E1;-3.208230138E-1
2.709025500E1;-4.932055473E0;-1.417247677E1;-1.005564690E0
2.711052300E1;-4.738125324E0;-1.558984470E1;-1.371877551E0
2.713023800E1;-4.191050053E0;-1.655351067E1;-1.060631394E0
2.715022700E1;-4.323928356E0;-1.642063141E1;-4.908113554E-2
2.716167100E1;-4.898536682E0;-1.596333981E1;4.082113802E-1
2.718016200E1;-5.932831764E0;-1.450048256E1;4.034229815E-1
2.719021300E1;-6.059724331E0;-1.248456478E1;2.896983922E-1
2.720029400E1;-5.623979568E0;-1.145745182E1;3.495534360E-1
2.722015200E1;-4.384980202E0;-9.646238327E0;8.930372596E-1
2.723996500E1;-4.181473255E0;-8.881291389E0;1.580173135E0
2.724999300E1;-4.161122322E0;-8.720879555E0;1.829170108E0
2.726003100E1;-4.129997730E0;-8.621520042E0;1.420958757E0
2.727015500E1;-4.121618271E0;-8.633491516E0;4.752490520E-1
2.728017500E1;-3.713406801E0;-8.334216118E0;-4.381389022E-1
2.729046700E1;-3.230975151E0;-8.098387718E0;-1.340752959E0
2.731019000E1;-2.421735048E0;-7.909245491E0;-2.001552582E0
2.733017700E1;-1.740584612E0;-8.137891769E0;-1.231816769E0
2.734022200E1;-1.367089152E0;-8.358158112E0;-6.153098345E-1
2.736026100E1;-6.907271743E-1;-8.926780701E0;7.242460251E-1
2.738023500E1;-8.738836050E-1;-9.382876396E0;1.909375906E0
2.740020600E1;-1.732204914E0;-9.053673744E0;1.438915253E0
2.741026000E1;-1.871068597E0;-8.963891029E0;1.085770488E0
2.742037000E1;-2.013523579E0;-9.040505409E0;9.457096457E-1
2.744025800E1;-1.920149803E0;-9.595960617E0;9.588778019E-1
2.746029300E1;-1.599326730E0;-1.004128170E1;1.249773264E0
2.747033000E1;-1.531091928E0;-1.005445004E1;1.527500629E0
2.748053800E1;-1.461660147E0;-9.915586472E0;1.638831019E0
2.750044600E1;-1.531091928E0;-9.428366661E0;1.333570361E0
2.751058600E1;-1.674744129E0;-9.105149269E0;9.804255962E-1
2.753016600E1;-1.899798989E0;-8.787917137E0;2.549824715E-1
2.754021400E1;-1.843535304E0;-8.682572365E0;7.541735470E-2
2.755045500E1;-1.770512104E0;-8.634688377E0;-5.386953801E-2
2.757030200E1;-1.632845521E0;-8.437167168E0;-1.496376097E-1
2.758031900E1;-1.511938334E0;-7.890091896E0;-1.340752989E-1
2.760016700E1;-1.259350061E0;-7.463923931E0;-4.704606235E-1
2.761022000E1;-1.229422569E0;-7.337030888E0;-4.728548229E-1
2.763023100E1;-1.158793569E0;-7.162254333E0;-4.094084799E-1
2.765021000E1;-1.113303781E0;-6.895300865E0;-1.244984865E-1
2.766032400E1;-1.134851575E0;-6.707355976E0;-8.020575345E-2
2.768041000E1;-1.159990668E0;-6.432023048E0;-3.794809580E-1
2.770024100E1;-1.376665950E0;-6.411672115E0;-6.129156351E-1
2.771142400E1;-1.498770237E0;-6.393715858E0;-5.051765442E-1
2.773024300E1;-1.911770105E0;-6.482301235E0;-2.657563984E-1
2.775032300E1;-2.039859772E0;-6.376956463E0;-4.788403213E-2
2.777017000E1;-2.104503393E0;-6.174646378E0;1.628057212E-1
2.778020000E1;-2.177526474E0;-5.910087109E0;3.806780577E-1
2.779053800E1;-2.122459888E0;-5.789179802E0;3.687070608E-1
2.780063600E1;-1.996764183E0;-5.632359505E0;5.027823448E-1
2.782021400E1;-1.710657120E0;-5.542576790E0;5.039794445E-1
2.783026100E1;-1.549048543E0;-5.426458359E0;7.015010715E-1
2.784041800E1;-1.363497853E0;-5.373785496E0;7.003039718E-1
2.786029800E1;-1.312022567E0;-5.424064159E0;8.786720037E-1
2.788041500E1;-1.680729628E0;-5.855020046E0;8.032546639E-1
2.790024600E1;-2.021903276E0;-6.439205647E0;9.900023937E-1
2.792017600E1;-3.068169594E0;-7.771578789E0;4.991910458E-1
2.793032100E1;-3.442862034E0;-8.619126320E0;-6.584054977E-2
2.794034100E1;-3.767276287E0;-9.612719536E0;-6.464344859E-1
2.796025400E1;-3.873818398E0;-1.135450172E1;-1.079784989E0
2.798019100E1;-4.327519417E0;-1.362181091E1;-1.255758762E0
2.800493200E1;-5.066130638E0;-1.586517715E1;-2.191891670E0
2.802028600E1;-5.419275761E0;-1.876695061E1;-2.766499996E0
2.803032700E1;-5.436035156E0;-1.996405029E1;-2.577358246E0
2.805021500E1;-4.936843872E0;-2.083075142E1;-1.323993564E0
2.806038700E1;-4.746504784E0;-2.049915504E1;-2.944868207E-1
2.808017200E1;-5.212177277E0;-1.850837708E1;1.568202138E0
2.809027900E1;-5.768828869E0;-1.713530159E1;1.851915002E0
2.811033600E1;-5.592854977E0;-1.372715569E1;9.684545994E-1
2.813017500E1;-5.448006153E0;-1.053089619E1;-2.358288616E-1
2.814022800E1;-5.637147903E0;-9.275136948E0;-1.133654475E0
2.816021500E1;-6.368576527E0;-7.316680431E0;-2.270900249E0
2.818018200E1;-7.566874504E0;-5.981913090E0;-3.533841610E0
2.819027500E1;-7.611167431E0;-5.899312973E0;-3.517082214E0
2.821023600E1;-6.866570473E0;-6.534973621E0;-3.252522945E0
2.822024400E1;-6.137536049E0;-7.326257229E0;-2.813186884E0
2.824022700E1;-4.340687752E0;-8.784325600E0;-5.363011956E-1
2.826070400E1;-2.806004286E0;-9.573215485E0;1.661576033E0
2.828032500E1;-2.493561029E0;-9.545681953E0;3.172317266E0
2.829033900E1;-2.774879694E0;-9.440337181E0;3.459621429E0
2.831031400E1;-3.517082214E0;-9.463082314E0;3.664325714E0
2.833018700E1;-4.065354347E0;-9.616311073E0;3.544615507E0
2.834019800E1;-4.204218388E0;-9.768342972E0;3.309983969E0
2.835021300E1;-4.156333923E0;-9.913191795E0;3.039438963E0
2.836026200E1;-4.150348663E0;-1.008796883E1;3.105279684E0
2.837027000E1;-3.894169092E0;-1.067335129E1;3.568557739E0
2.839027800E1;-3.496731520E0;-1.105043793E1;4.201824188E0
2.841006200E1;-3.523067713E0;-1.100255394E1;4.857835293E0
2.842020000E1;-3.700238705E0;-1.073799419E1;5.084087372E0
2.843026200E1;-3.997119665E0;-1.044111347E1;5.091269970E0
2.845033100E1;-4.410119534E0;-9.750386238E0;4.699818134E0
2.847022900E1;-4.508281708E0;-9.411606789E0;4.041412354E0
2.848032800E1;-4.349067211E0;-9.378087997E0;3.883395195E0
2.850047800E1;-3.866635799E0;-9.232041359E0;3.653551817E0
2.852064200E1;-3.446453333E0;-8.925583839E0;3.211821556E0
2.854025900E1;-3.199850559E0;-8.488641739E0;2.555810213E0
2.855069800E1;-3.184288263E0;-8.216899872E0;2.300827742E0
2.857023100E1;-3.353079557E0;-7.486668587E0;1.532289028E0
2.858041100E1;-3.294421434E0;-7.234080315E0;1.405396342E0
2.860054400E1;-3.126827478E0;-6.819883347E0;1.424550056E0
2.861140800E1;-3.034650564E0;-6.545747280E0;1.631648421E0
2.863103900E1;-2.901772499E0;-6.080075264E0;1.976413488E0
2.865022900E1;-2.699462414E0;-5.521028996E0;2.012326479E0
2.867021400E1;-2.647987127E0;-5.088875771E0;1.624465823E0
2.868023700E1;-2.784456491E0;-5.002684593E0;1.352723956E0
2.869027900E1;-2.911349297E0;-4.959589005E0;1.030703783E0
2.871026800E1;-3.404554844E0;-4.890156746E0;8.762778044E-1
2.873023200E1;-3.749319792E0;-5.181052685E0;7.529764175E-1
2.874036600E1;-3.910928488E0;-5.499481201E0;6.931213737E-1
2.876025600E1;-4.982333660E0;-6.659471989E0;1.218648672E0
2.878023100E1;-5.391742229E0;-7.841010571E0;1.012747288E0
2.880039600E1;-5.591658115E0;-9.099164009E0;2.442085743E-1
2.881068000E1;-5.736507416E0;-9.697713852E0;-1.604115069E-1
2.883020800E1;-5.841852188E0;-1.110071659E1;-1.011550188E0
2.884032800E1;-6.027402878E0;-1.198417664E1;-1.248576164E0
2.885049400E1;-6.153098583E0;-1.271919632E1;-1.422155857E0
2.886055600E1;-6.197391033E0;-1.328901672E1;-1.412579060E0
2.888041500E1;-6.078877926E0;-1.416768837E1;-1.392228246E0
2.889047600E1;-5.409698963E0;-1.410065079E1;-1.289277673E0
2.890061800E1;-4.583699226E0;-1.397016716E1;-1.115697980E0
2.892016300E1;-3.281253338E0;-1.311304283E1;4.082113802E-1
2.893021600E1;-3.169923067E0;-1.263180828E1;1.529894829E0
2.894023700E1;-3.230975151E0;-1.231816769E1;2.203862667E0
2.896025200E1;-2.573766708E0;-1.183932781E1;2.655169725E0
2.898025200E1;-2.476801634E0;-1.189439392E1;2.278082848E0
2.899062400E1;-2.940079689E0;-1.192073059E1;1.865083098E0
2.900067600E1;-3.594893932E0;-1.186566353E1;1.191115379E0
2.901314700E1;-4.259284973E0;-1.169208431E1;2.238578647E-1
2.903030000E1;-5.483919144E0;-1.097382355E1;-2.068590164E0
2.905025400E1;-5.980715752E0;-9.877279282E0;-3.344699860E0
2.906149000E1;-6.025008678E0;-9.433155060E0;-3.408146143E0
2.908005300E1;-5.697002888E0;-9.376891136E0;-2.458845139E0
2.909019600E1;-4.882974148E0;-9.465476036E0;-1.447294950E0
2.910021300E1;-4.157531261E0;-9.665391922E0;-6.093243361E-1
2.911028200E1;-3.521870613E0;-9.757569313E0;2.094926536E-1
2.913019100E1;-2.794033289E0;-9.710882187E0;1.442506552E0
2.914019800E1;-2.658761024E0;-9.592369080E0;1.561019540E0
2.915029000E1;-2.622848034E0;-9.343372345E0;6.655880809E-1
2.917023600E1;-2.955641985E0;-9.174580574E0;-1.783680320E-1
2.919021000E1;-3.064578056E0;-8.567650795E0;-2.980781198E-1
2.921030200E1;-3.307589531E0;-7.921216488E0;-9.576806799E-3
2.923032200E1;-3.531447411E0;-7.395689011E0;5.746084079E-2
2.924997000E1;-3.556586742E0;-7.247248650E0;-3.327940404E-1
2.925999900E1;-3.484760523E0;-7.274781704E0;-7.062895298E-1
2.927015700E1;-3.404554844E0;-7.260416508E0;-8.690952063E-1
2.928042500E1;-3.331531763E0;-7.232883453E0;-9.540894032E-1
2.930017700E1;-3.466804028E0;-7.202955723E0;-9.062053561E-1
2.931027900E1;-3.597288132E0;-7.076063156E0;-7.098808289E-1
2.932066700E1;-3.709815502E0;-6.927622795E0;-5.817909837E-1
2.934024000E1;-3.819948912E0;-6.745663166E0;-6.200982332E-1
2.936023100E1;-3.470395327E0;-6.760028362E0;-7.649474144E-1
2.938032400E1;-3.228580952E0;-6.809109688E0;-4.788403511E-1
2.939033500E1;-3.094505787E0;-6.781576157E0;-2.717418969E-1
2.941021100E1;-3.276464939E0;-6.720524311E0;2.106897533E-1
2.943027300E1;-3.433285236E0;-6.590040207E0;1.975216419E-1
2.945017100E1;-3.339911461E0;-6.581660271E0;-8.379705995E-2
2.946023900E1;-3.253720045E0;-6.555324078E0;-1.436520964E-1
2.948020600E1;-3.141192675E0;-6.447585106E0;-2.549824715E-1
2.949031600E1;-3.098097086E0;-6.345831394E0;-2.585737705E-1
2.951023400E1;-2.838326216E0;-6.228515625E0;-3.794809580E-1
2.952042800E1;-2.671929121E0;-6.210559368E0;-3.806780577E-1
2.954030300E1;-2.318784237E0;-6.147112846E0;-2.059013397E-1
2.955033800E1;-1.966836691E0;-6.048950672E0;-4.309562966E-2
2.957018500E1;-1.750161409E0;-6.057330132E0;2.513911724E-1
2.958064400E1;-1.595735431E0;-6.005855083E0;5.147533417E-1
2.960044300E1;-1.754949808E0;-5.947196960E0;8.607155085E-1
2.962037700E1;-2.422932148E0;-6.222530365E0;6.033388376E-1
2.963077100E1;-2.766499996E0;-6.696582317E0;3.483563364E-1
2.965020200E1;-3.309983969E0;-8.464699745E0;-6.464344263E-2
2.966022800E1;-3.573346138E0;-9.494206429E0;-1.675941199E-1
2.968075600E1;-4.023456097E0;-1.134013653E1;-5.817909837E-1
2.970017500E1;-4.622006416E0;-1.310466290E1;-1.389834046E0
2.971023300E1;-4.928464413E0;-1.412219906E1;-1.844732404E0
2.973055400E1;-5.258863926E0;-1.664927864E1;-2.282871246E0
2.975051900E1;-6.356605530E0;-1.923741150E1;-1.662773132E0
2.977045200E1;-6.742072105E0;-1.852992439E1;-5.291185975E-1
2.979020900E1;-6.955155849E0;-1.657625580E1;1.197100850E-3
2.980022200E1;-7.046135426E0;-1.529296303E1;9.097966552E-2
2.981030400E1;-7.000645638E0;-1.419163036E1;2.142810524E-1
2.983017800E1;-6.581660271E0;-1.226788998E1;6.272808313E-1
2.984018000E1;-6.283582211E0;-1.079784966E1;1.362300754E0
2.985024500E1;-6.157886982E0;-9.295488358E0;1.871068597E0
2.987015000E1;-7.250839710E0;-6.840234280E0;2.041056871E0
2.988017800E1;-7.659051418E0;-6.115988255E0;1.667561531E0
2.989046100E1;-8.208520889E0;-6.066906929E0;1.121683478E0
2.991052900E1;-8.426392555E0;-6.171054840E0;2.154781520E-1
2.993048700E1;-8.118738174E0;-6.872556210E0;-8.379705995E-2
2.995022000E1;-7.255628109E0;-8.632294655E0;3.950432688E-2
2.997016600E1;-5.506663799E0;-9.985017776E0;1.092953086E0
2.998020900E1;-4.505887508E0;-1.047822380E1;2.292448044E0
2.999023800E1;-3.599682331E0;-1.083615685E1;3.707421303E0
3.001032300E1;-2.395398855E0;-1.112944698E1;6.296750546E0
3.002033000E1;-2.154781580E0;-1.108994198E1;7.115567684E0
3.003055400E1;-2.116474390E0;-1.097023201E1;7.532158375E0
3.005018800E1;-2.497152328E0;-1.065659142E1;6.739677906E0
3.006062100E1;-2.772485495E0;-1.056561184E1;5.787982464E0
3.008024100E1;-3.517082214E0;-1.048061752E1;4.265270233E0
3.010018400E1;-3.813963413E0;-1.050455952E1;3.139995575E0
3.011032100E1;-3.818751812E0;-1.038484955E1;2.794033289E0
3.013026000E1;-3.983951569E0;-1.004008484E1;3.104082584E0
3.014026600E1;-4.305971622E0;-9.525331497E0;3.560178041E0
3.016029300E1;-4.600458622E0;-8.948328972E0;4.031835556E0
3.018057400E1;-4.638765812E0;-8.413225174E0;3.652354717E0
3.020067800E1;-4.333505154E0;-8.073247910E0;3.166331768E0
3.022018000E1;-3.711012602E0;-7.945158482E0;2.766499996E0
3.023022600E1;-3.402160645E0;-7.878120899E0;2.730587006E0
3.024023000E1;-3.208230257E0;-7.873332500E0;2.851494312E0
3.026021000E1;-2.940079689E0;-7.777564049E0;3.405751944E0
3.028019100E1;-2.652775526E0;-7.469909191E0;3.647566319E0
3.029022900E1;-2.542642117E0;-7.271190643E0;3.477577925E0
3.030024800E1;-2.608482838E0;-7.080851555E0;3.290830135E0
3.031032400E1;-2.609679937E0;-6.854599476E0;3.011905670E0
3.033052900E1;-2.608482838E0;-6.453570843E0;2.527079821E0
3.035019500E1;-2.276885748E0;-6.089652061E0;2.849100113E0
3.036037400E1;-2.032677174E0;-5.880159378E0;3.080140591E0
3.037058300E1;-1.847126603E0;-5.610811710E0;3.292027235E0
3.039197100E1;-1.721431017E0;-4.990713596E0;3.393780947E0
3.041028400E1;-2.116474390E0;-4.218583584E0;3.013102770E0
3.042050800E1;-2.506729126E0;-3.952826977E0;2.420537949E0
3.044016700E1;-3.155557871E0;-3.630806923E0;6.452373862E-1
3.045030700E1;-3.564966440E0;-3.600879431E0;-3.950432688E-2
3.047019600E1;-4.569334030E0;-4.139574528E0;-5.973533392E-1
3.048033800E1;-4.683058739E0;-4.371812344E0;-2.932897210E-1
3.050015700E1;-5.323507309E0;-5.146336555E0;1.169567585E0
3.051022800E1;-5.798756599E0;-5.671864033E0;2.414552450E0
3.053049000E1;-7.647080421E0;-6.892906666E0;3.890577793E0
3.055017000E1;-8.149862289E0;-7.489062786E0;1.350329757E0
3.056017900E1;-8.379706383E0;-8.103176117E0;-5.207388401E-1
3.058049000E1;-7.963114738E0;-8.835801125E0;-3.877409697E0
3.060019100E1;-7.603984833E0;-1.023521233E1;-5.222950935E0
3.061047900E1;-7.376535416E0;-1.090917969E1;-5.182249546E0
3.063023600E1;-6.822277546E0;-1.250611305E1;-3.859453201E0
3.065018800E1;-6.185420036E0;-1.435204220E1;-1.643619418E0
3.066025800E1;-5.998672485E0;-1.505713463E1;-3.687070608E-1
3.068019100E1;-5.665878296E0;-1.575504398E1;1.556231141E0
3.069022400E1;-5.464765549E0;-1.559822369E1;1.847126603E0
3.070042300E1;-5.078101635E0;-1.503678417E1;1.648407817E0
3.072015600E1;-4.545392036E0;-1.347456741E1;4.333505034E-1
3.073016200E1;-4.420893669E0;-1.184770679E1;3.483563364E-1
3.074027100E1;-4.240131378E0;-1.119648457E1;2.106897533E-1
3.075060700E1;-4.054580688E0;-1.063863564E1;5.626374111E-2
3.077016600E1;-4.238934040E0;-1.047942066E1;-5.650315881E-1
3.078019300E1;-4.581305027E0;-1.074278259E1;-9.959878922E-1
3.079024300E1;-4.886565685E0;-1.094868469E1;-1.349132657E0
3.081020400E1;-5.810727596E0;-1.153167248E1;-1.941697598E0
3.082053100E1;-6.181828976E0;-1.171602631E1;-2.029085875E0
3.084021400E1;-5.968744755E0;-1.134253025E1;-1.296460271E0
3.086018200E1;-5.182249546E0;-1.057997704E1;2.633621916E-2
3.088017300E1;-4.041412354E0;-9.761159897E0;1.429338455E0
3.089048100E1;-3.552995205E0;-9.533711433E0;1.881842494E0
3.091026700E1;-2.694674015E0;-9.226056099E0;2.324769735E0
3.093058400E1;-1.811213613E0;-9.198522568E0;1.606509328E0
3.095079100E1;-1.460463047E0;-9.185355186E0;1.006761789E0
3.097029700E1;-1.793257117E0;-8.728062630E0;8.259995580E-1
3.099022100E1;-2.308010340E0;-8.086416245E0;4.800374508E-1
3.100027800E1;-2.457648039E0;-7.724891663E0;3.914519846E-1
3.101072200E1;-2.773682594E0;-7.418434143E0;2.573766708E-1
3.102079500E1;-3.102885485E0;-7.097610950E0;1.508347094E-1
3.104022200E1;-3.567360640E0;-6.732495308E0;-1.376665980E-1
3.105024400E1;-3.635595322E0;-6.576871872E0;-1.987187415E-1
3.106032900E1;-3.599682331E0;-6.475118637E0;-3.351882398E-1
3.108660500E1;-3.378218651E0;-6.171054840E0;-4.788403511E-1
3.110025100E1;-3.368641853E0;-5.838260651E0;-3.268085420E-1
3.111030600E1;-3.409343243E0;-5.844246387E0;-2.130839527E-1
3.113019600E1;-3.220201254E0;-5.961562157E0;1.999158412E-1
3.114038600E1;-3.094505787E0;-6.047753334E0;3.196259141E-1
3.116032100E1;-2.730587006E0;-6.293159008E0;6.332663298E-1
3.117224500E1;-2.762908697E0;-6.379350662E0;7.852981687E-1
3.119019600E1;-2.913743496E0;-6.443994045E0;1.018732786E0
3.121059600E1;-2.946065187E0;-6.375759125E0;7.110779285E-1
3.123017600E1;-2.913743496E0;-6.435614109E0;4.704606235E-1
3.125000200E1;-2.857479811E0;-6.482301235E0;4.908113480E-1
3.126010200E1;-2.862268209E0;-6.416460514E0;4.967968464E-1
3.128011100E1;-2.823961020E0;-6.144718647E0;3.722983599E-1
3.129020800E1;-2.779668093E0;-6.007051945E0;3.854664862E-1
3.130037100E1;-2.658761024E0;-5.793968201E0;4.967968464E-1
3.132022100E1;-2.608482838E0;-5.206191540E0;1.000776291E0
3.134022800E1;-2.750937700E0;-5.172672749E0;8.487445116E-1
3.135024000E1;-2.794033289E0;-5.419275761E0;6.607996821E-1
3.137026400E1;-2.879027605E0;-6.148310184E0;6.368576288E-1
3.139022700E1;-2.895787001E0;-6.879738808E0;4.165911078E-1
3.141026400E1;-3.371036053E0;-7.880515099E0;-2.669534981E-1
3.143024500E1;-4.843470097E0;-9.629479408E0;-7.721300721E-1
3.145050300E1;-5.766434669E0;-1.147062016E1;-1.440112352E0
3.147017800E1;-5.815515995E0;-1.370800209E1;-1.248576164E0
3.148045500E1;-5.549759388E0;-1.475546551E1;-6.787561774E-1
3.150011400E1;-5.501875401E0;-1.721550751E1;-3.399766386E-1
3.151047800E1;-5.477933407E0;-1.949718094E1;-7.433996201E-1
3.152057300E1;-5.038597584E0;-1.969589996E1;-3.447650373E-1
3.154027400E1;-4.927267075E0;-1.825698471E1;1.632845521E0
3.156047300E1;-6.179434776E0;-1.544738960E1;3.588908434E0
3.158017400E1;-6.848613739E0;-1.248097324E1;3.800795317E0
3.159025000E1;-6.817489147E0;-1.110909557E1;3.463212729E0
3.160030000E1;-6.628347397E0;-9.853337288E0;2.786850691E0
3.162019800E1;-5.425261021E0;-7.803900242E0;8.379706144E-1
3.163021400E1;-4.790797710E0;-7.059303761E0;-1.340752989E-1
3.164030700E1;-4.112041473E0;-6.470330238E0;-9.576807022E-1
3.166019000E1;-3.175908566E0;-5.955576897E0;-1.613691926E0
3.168035900E1;-3.511096716E0;-6.465541840E0;-1.073799491E0
3.169049800E1;-3.801992416E0;-6.788758755E0;-4.704606235E-1
3.171032700E1;-4.722562790E0;-7.754819393E0;7.673416734E-1
3.173021900E1;-5.006275654E0;-8.175002098E0;1.273715258E0
3.174022400E1;-4.991910458E0;-8.274360657E0;1.862688899E0
3.176021200E1;-4.797980309E0;-8.500613213E0;3.239354849E0
3.177022100E1;-4.999093056E0;-8.936357498E0;3.748122692E0
3.178059400E1;-5.675455093E0;-9.932345390E0;3.933673382E0
3.180019000E1;-5.737704277E0;-1.129584408E1;4.454412460E0
3.181020600E1;-5.584475517E0;-1.173039150E1;4.630385876E0
3.183026300E1;-5.276820660E0;-1.189319706E1;4.674678802E0
3.185020500E1;-5.067327976E0;-1.146224022E1;4.425682068E0
3.187017900E1;-4.841075897E0;-1.088404083E1;4.152742863E0
3.188024500E1;-4.648342609E0;-1.061229897E1;3.881000996E0
3.189025500E1;-4.402936935E0;-1.037407589E1;3.652354717E0
3.190047800E1;-3.800795317E0;-1.007240677E1;3.512293816E0
3.192019500E1;-3.462015629E0;-1.020049667E1;3.908534288E0
3.193024100E1;-3.224989653E0;-1.029506683E1;3.985148668E0
3.195028500E1;-2.890998602E0;-9.971850395E0;4.485537052E0
3.196029600E1;-2.928108692E0;-9.776722908E0;4.560954094E0
3.198022200E1;-3.120841980E0;-9.248801231E0;4.247313976E0
3.199048400E1;-3.201047659E0;-8.991424561E0;3.989937067E0
3.201052000E1;-3.177105665E0;-8.701725960E0;3.329137564E0
3.203033200E1;-3.167528868E0;-8.511386871E0;2.907757998E0
3.205021600E1;-3.001131773E0;-8.172607422E0;2.730587006E0
3.206027900E1;-2.877830505E0;-7.914033890E0;2.577358246E0
3.208001100E1;-2.820369720E0;-7.201758862E0;2.063801765E0
3.209003200E1;-2.952050686E0;-6.757634163E0;1.912967205E0
3.210016000E1;-3.387795448E0;-5.960365295E0;1.799242616E0
3.211034300E1;-3.478775024E0;-5.613205910E0;1.751358509E0
3.213019300E1;-3.442862034E0;-5.140350819E0;1.508347034E0
3.214022400E1;-3.325546265E0;-5.007472992E0;1.249773264E0
3.215035000E1;-3.128024578E0;-4.904522419E0;1.108515382E0
3.217045200E1;-2.905363798E0;-4.827907562E0;1.203086376E0
3.219021800E1;-2.839523315E0;-4.878185749E0;1.455674648E0
3.220030600E1;-2.831143618E0;-4.908113480E0;1.400607944E0
3.222016100E1;-2.926911592E0;-4.914099216E0;1.157596469E0
3.223024000E1;-3.040636063E0;-4.893748283E0;9.337386489E-1
3.225019100E1;-3.399766445E0;-4.952406406E0;2.896983922E-1
3.226024500E1;-3.481169224E0;-5.000290394E0;1.675941236E-2
3.228050900E1;-3.350685358E0;-5.294776917E0;2.166752517E-1
