"Time (s)";"Gyroscope x (rad/s)";"Gyroscope y (rad/s)";"Gyroscope z (rad/s)"
8.347749400E-2;8.144937456E-4;-1.470149122E-2;-1.242090948E-3
1.409055540E-1;-7.737619802E-3;-6.760242395E-3;1.769473031E-2
1.745210840E-1;-8.348485455E-3;1.791871153E-3;3.052290156E-2
1.964038490E-1;-7.126756012E-3;5.457062274E-3;3.907501325E-2
2.124912310E-1;-5.905024707E-3;5.457062274E-3;4.212934151E-2
2.256534220E-1;-2.239834517E-3;2.402735874E-3;3.663155437E-2
2.371915180E-1;2.036280930E-4;-4.927646834E-3;2.685770951E-2
2.476765660E-1;-3.461563960E-3;-7.981972769E-3;1.891646162E-2
2.581115900E-1;-9.570216760E-3;-9.203704074E-3;1.525127050E-2
2.681401020E-1;-8.959351107E-3;-9.203704074E-3;1.341867447E-2
2.786733580E-1;-3.461563960E-3;-7.981972769E-3;1.341867447E-2
2.887934860E-1;1.425359398E-3;-6.149377674E-3;1.219694410E-2
3.085448320E-1;2.036280930E-4;3.624466248E-3;9.142617695E-3
3.188887230E-1;-4.072375596E-4;4.235331900E-3;1.036434807E-2
3.385351410E-1;-2.850698307E-3;3.624466248E-3;1.219694410E-2
3.583962450E-1;-2.300925180E-2;-1.873320900E-3;1.647300087E-2
3.782682710E-1;-4.255694151E-2;-6.760242395E-3;2.258165181E-2
3.882769420E-1;-4.072434455E-2;5.701398477E-4;2.074905671E-2
4.087356960E-1;-1.690059900E-2;-4.316781648E-3;1.769473031E-2
4.282881340E-1;5.701415241E-3;1.217658073E-2;1.341867447E-2
4.481912440E-1;2.036217973E-2;2.378301881E-2;4.866560921E-3
4.582829290E-1;1.547525823E-2;2.256128937E-2;4.255695269E-3
4.683177710E-1;9.366605431E-3;1.034398377E-2;8.531752974E-3
4.783616920E-1;5.090549588E-3;-1.873320900E-3;1.341867447E-2
4.983281330E-1;2.036280930E-4;-4.927646834E-3;1.158607844E-2
5.182699930E-1;1.119920239E-2;1.095484942E-2;1.647300087E-2
5.382357080E-1;8.144874126E-3;1.034398377E-2;2.319251746E-2
5.582301370E-1;-4.683293402E-3;1.278744452E-2;2.869030461E-2
5.682938750E-1;-1.079194620E-2;7.900523022E-3;2.991203591E-2
5.882141790E-1;-5.294159055E-3;1.339831017E-2;3.846414760E-2
5.984928960E-1;-4.072429612E-3;1.889609732E-2;3.602068871E-2
6.182591840E-1;2.036225051E-3;3.050253727E-2;3.357722610E-2
6.382170060E-1;1.547525823E-2;2.928080596E-2;2.441424876E-2
6.482698100E-1;1.242093369E-2;2.133955806E-2;1.891646162E-2
6.682174130E-1;-2.850698307E-3;-2.484186087E-3;8.531752974E-3
6.782530130E-1;-5.294159055E-3;-1.714495197E-2;4.866560921E-3
6.882728130E-1;-4.683293402E-3;-2.264273912E-2;4.866560921E-3
7.082361630E-1;1.058833674E-2;-9.814568795E-3;3.033964895E-3
7.182608880E-1;1.852958649E-2;4.846196622E-3;-2.463822253E-3
7.282742510E-1;1.791872084E-2;1.462004147E-2;-6.129014306E-3
7.482515230E-1;8.144937456E-4;9.733118117E-3;-1.101593580E-2
7.683063410E-1;-1.873319596E-2;1.217658073E-2;4.866560921E-3
7.783654770E-1;-2.423098311E-2;2.011782862E-2;1.891646162E-2
7.982568290E-1;-1.628973335E-2;3.111340292E-2;2.685770951E-2
8.182804170E-1;-2.423098311E-2;3.416772932E-2;3.907501325E-2
8.381978140E-1;-9.570216760E-3;4.149810970E-2;4.823799431E-2
8.581796640E-1;1.119920239E-2;3.294599801E-2;4.151847586E-2
8.684561390E-1;2.219477668E-2;2.317215316E-2;3.907501325E-2
8.882512450E-1;4.235332832E-2;3.172426671E-2;5.434664711E-2
8.983634290E-1;7.228572667E-2;8.120435476E-2;7.572692633E-2
9.184448170E-1;1.749110967E-1;2.217033505E-1;1.129897088E-1
9.285137150E-1;2.219477147E-1;2.742377520E-1;1.062701941E-1
9.482606390E-1;2.207259983E-1;3.096679449E-1;7.511606067E-2
9.583056260E-1;1.944587827E-1;2.956180573E-1;5.740097165E-2
9.782003670E-1;2.268346399E-1;3.145548701E-1;4.029674456E-2
9.981985520E-1;3.667227626E-1;4.373387992E-1;5.129231885E-2
1.018233848E0;2.848668098E-1;2.534683347E-1;4.884885997E-2
1.038271672E0;1.370374411E-1;1.703906655E-1;3.235549852E-2
1.048417143E0;2.024000287E-1;2.589661479E-1;6.595308334E-2
1.068286996E0;1.950696409E-1;2.479705513E-1;1.044375971E-1
1.088409459E0;1.046615839E-1;1.453451961E-1;5.862270296E-2
1.098511036E0;7.472918928E-2;1.209105924E-1;3.907501325E-2
1.118292469E0;4.479679093E-2;1.514538527E-1;3.479895741E-2
1.128381541E0;4.785111919E-2;1.997122020E-1;3.479895741E-2
1.150978095E0;7.717265189E-2;3.530393839E-1;-5.866342038E-2
1.168234614E0;7.717265189E-2;3.530393839E-1;-5.866342038E-2
1.178341614E0;8.877909184E-2;3.811391890E-1;1.525127050E-2
1.188518614E0;1.022181213E-1;4.672711790E-1;9.527461976E-2
1.210212614E0;1.810197383E-1;6.083810329E-1;1.722436398E-1
1.228547614E0;1.388700455E-1;4.965927005E-1;1.759088337E-1
1.238875614E0;4.968371615E-2;3.823609054E-1;2.064520866E-1
1.249308614E0;2.036280930E-4;3.115005493E-1;2.284432352E-1
1.268755614E0;-4.683293402E-3;2.766812146E-1;2.168367952E-1
1.288351614E0;5.334890261E-2;3.560937047E-1;2.308866978E-1
1.308188614E0;1.547525376E-1;4.361170530E-1;2.595973611E-1
1.328245614E0;2.317215651E-1;4.336735904E-1;2.376062274E-1
1.348186614E0;1.400917768E-1;2.931745946E-1;1.245961487E-1
1.358192614E0;6.373360753E-2;2.229250818E-1;9.222029150E-2
1.368199614E0;2.463823929E-2;1.703906655E-1;1.111571118E-1
1.378222614E0;4.296419397E-2;1.697798073E-1;2.473800629E-1
1.388372614E0;8.816821873E-2;1.984904706E-1;2.956384122E-1
1.408251614E0;1.553634107E-1;2.504140139E-1;2.999144495E-1
1.428251614E0;3.661119044E-1;2.864550650E-1;3.640553057E-1
1.438593614E0;5.475388765E-1;3.328808248E-1;4.385808706E-1
1.458575614E0;6.703228354E-1;7.360519171E-1;4.819523096E-1
1.478553614E0;3.337360322E-1;7.971383929E-1;2.944166660E-1
1.498155614E0;1.290961951E-1;6.279287338E-1;7.939212024E-2
1.508724614E0;7.778351009E-2;6.383134723E-1;-4.907283001E-3
1.528643614E0;-3.033963405E-2;8.411207199E-1;-7.026986033E-2
1.548207614E0;-1.683951765E-1;8.930442333E-1;-1.712458581E-2
1.568586614E0;-2.588032484E-1;6.896261573E-1;1.575828791E-1
1.588549614E0;-2.068796903E-1;5.448510647E-1;2.742581069E-1
1.608215614E0;-3.095049970E-2;2.656856477E-1;3.426750302E-1
1.628470614E0;4.724025354E-2;1.520647109E-1;4.062049985E-1
1.648370614E0;-3.705915064E-2;2.027665377E-1;6.102340221E-1
1.668708614E0;-1.323541254E-1;2.357532531E-1;7.146919370E-1
1.688499614E0;-2.068796903E-1;1.367930770E-1;4.159788489E-1
1.708809614E0;-1.757255644E-1;8.486954868E-2;1.569720060E-1
1.718887614E0;-1.042543352E-1;5.127195269E-2;8.916596323E-2
1.738171614E0;9.427687526E-2;-9.167051315E-2;3.968587890E-2
1.748315614E0;1.559742689E-1;-1.307658851E-1;3.418809175E-2
1.768226614E0;7.778351009E-2;-8.556185663E-2;2.211128622E-1
1.788356614E0;-7.615453005E-2;2.107077837E-1;5.650299788E-1
1.808178614E0;-1.635082513E-1;4.104607105E-1;7.519547343E-1
1.828223614E0;-2.093231529E-1;5.491271019E-1;6.780400276E-1
1.838242614E0;-2.331468910E-1;5.106425881E-1;5.925189257E-1
1.848453614E0;-2.887356579E-1;4.825428128E-1;5.234911442E-1
1.868204614E0;-3.150028586E-1;4.104607105E-1;4.788979888E-1
1.878218614E0;-2.404772788E-1;2.766812146E-1;5.179933310E-1
1.898667614E0;-2.545271255E-2;-1.808568388E-1;6.401664019E-1
1.908667614E0;6.984226406E-2;-4.245920777E-1;6.688770652E-1
1.928531614E0;1.315396577E-1;-5.974669456E-1;7.543982267E-1
1.948158614E0;-3.889174759E-2;-3.952705562E-1;8.588561416E-1
1.958170614E0;-1.940515190E-1;-2.914234400E-1;8.802364469E-1
1.970099614E0;-4.884885848E-1;-2.077349126E-1;8.881776929E-1
1.988688614E0;-6.161593795E-1;-2.352238446E-1;9.785857201E-1
2.008720614E0;-5.752314329E-1;-2.883691192E-1;1.029287577E0
2.028634614E0;-5.294165611E-1;-4.404745698E-1;9.565945864E-1
2.048492614E0;-5.343034267E-1;-4.423071742E-1;8.765712380E-1
2.059091614E0;-5.642358661E-1;-4.227594733E-1;8.753495216E-1
2.078234614E0;-7.010696530E-1;-2.321695238E-1;1.068382978E0
2.088980614E0;-7.591018677E-1;-5.196426809E-2;1.162456274E0
2.108335614E0;-7.688757181E-1;2.033773959E-1;1.182003975E0
2.119078614E0;-6.900740862E-1;1.795536578E-1;1.121528268E0
2.140015614E0;-2.447533309E-1;3.023375571E-1;8.411410451E-1
2.158312614E0;1.272636056E-1;1.001411751E-1;5.613647699E-1
2.168968614E0;4.113159701E-2;-1.014443561E-1;5.601430535E-1
2.188212614E0;-1.396845132E-1;-1.643634886E-1;6.059579253E-1
2.198308614E0;-1.769472957E-1;-1.613091528E-1;6.358903646E-1
2.218484614E0;-7.310020179E-2;3.294599801E-2;6.694879532E-1
2.238185614E0;8.144937456E-4;2.168164253E-1;6.963660121E-1
2.248280614E0;-2.728530765E-2;2.345315218E-1;7.226331830E-1
2.268247614E0;-5.721770599E-2;5.432628095E-2;7.898283601E-1
2.288555614E0;-1.323540695E-2;-1.344310790E-1;8.674082756E-1
2.308146614E0;2.585996687E-2;-1.344310790E-1;8.991732597E-1
2.328478614E0;1.022181213E-1;9.403252602E-2;8.564127088E-1
2.348323614E0;6.312274933E-2;2.797355652E-1;8.197607994E-1
2.368248614E0;-2.239834517E-3;4.666603208E-1;7.030855417E-1
2.378736614E0;-2.667444199E-2;4.171802402E-1;6.615467072E-1
2.398133614E0;-8.348491043E-2;2.198707610E-1;5.601430535E-1
2.408672614E0;-1.189150959E-1;7.448484004E-2;4.990565181E-1
2.428287614E0;7.534012198E-3;-1.833003014E-1;4.245309830E-1
2.448208614E0;1.877392679E-1;4.394157231E-2;4.226983786E-1
2.458224614E0;1.895718575E-1;1.447343379E-1;4.086484611E-1
2.468288614E0;1.529199481E-1;2.357532531E-1;3.860464692E-1
2.488293614E0;2.891429141E-2;2.919528484E-1;3.524488807E-1
2.508314614E0;-5.294165015E-2;1.349604875E-1;2.791450322E-1
2.518484614E0;-4.072434455E-2;6.226753443E-2;2.205019891E-1
2.538322614E0;-4.988732189E-2;2.744821273E-2;1.777414232E-1
2.558139614E0;-9.753480554E-2;1.105258837E-1;1.441438347E-1
2.568717614E0;-6.088289618E-2;1.386256814E-1;1.282613426E-1
2.588145614E0;4.296419397E-2;1.997122020E-1;1.197092310E-1
2.598154614E0;5.457063392E-2;1.936035454E-1;1.129897088E-1
2.608373614E0;3.013602272E-2;1.453451961E-1;1.032158658E-1
2.628329614E0;-3.950261325E-2;2.866994031E-2;5.740097165E-2
2.648665614E0;-4.561126605E-2;-5.501859635E-2;1.158607844E-2
2.658687614E0;-5.355251580E-2;-8.250752836E-2;1.812234521E-3
2.678199614E0;-6.943501532E-2;-3.730350733E-2;-1.852956600E-3
2.688375614E0;-8.043058217E-2;3.477859497E-2;2.423100173E-3
2.708220614E0;-1.042543352E-1;1.740558594E-1;1.158607844E-2
2.718332614E0;-7.798711956E-2;1.587842405E-1;-4.907283001E-3
2.728582614E0;-1.995492540E-2;5.127195269E-2;-3.056362271E-2
2.739002614E0;6.251187623E-2;-1.380962729E-1;-5.011130869E-2
2.758156614E0;1.999565661E-1;-4.447506368E-1;-6.660467386E-2
2.778328614E0;1.242092699E-1;-3.940488100E-1;-9.898053110E-2
2.798305614E0;5.640323088E-2;-3.042516112E-1;-6.721553952E-2
2.818236614E0;6.434448063E-2;-3.464013338E-1;-9.794204496E-3
2.828354614E0;7.900524139E-2;-3.531208336E-1;-1.284853090E-2
2.848149614E0;1.388700455E-1;-2.871474028E-1;-5.866342038E-2
2.858242614E0;1.376483142E-1;-2.040697187E-1;-4.644611850E-2
2.868450614E0;1.022181213E-1;-1.063312739E-1;-2.873102576E-2
2.888449614E0;-5.905029923E-2;1.129693463E-1;-7.350743748E-3
2.908568614E0;-2.123774737E-1;1.264083683E-1;1.158607844E-2
2.928871614E0;-2.569706440E-1;1.278744452E-2;8.611164242E-2
2.948579614E0;-3.449352384E-1;-2.162870318E-1;2.363844961E-1
2.968549614E0;-3.650937974E-1;-5.088914633E-1;4.013181031E-1
2.980030614E0;-3.547090888E-1;-5.528737903E-1;4.972239435E-1
2.998471614E0;-3.119485378E-1;-5.840278864E-1;6.065688133E-1
3.018222614E0;-2.752965987E-1;-7.123095989E-1;5.412062407E-1
3.028239614E0;-2.972877622E-1;-7.727852464E-1;4.972239435E-1
3.048728614E0;-3.137811124E-1;-7.165856361E-1;4.269744456E-1
3.068328614E0;-3.076724708E-1;-4.478049576E-1;3.548923433E-1
3.088216614E0;-2.801835239E-1;-2.230065465E-1;3.310685754E-1
3.098293614E0;-2.093231529E-1;-1.295441538E-1;2.944166660E-1
3.108312614E0;-1.464040279E-1;-5.685119331E-2;2.486017942E-1
3.128274614E0;-5.171991885E-2;7.815002650E-2;1.417003721E-1
3.148184614E0;-7.126756012E-3;7.900523022E-3;-3.483967856E-2
3.158313614E0;1.791872084E-2;-3.974696621E-2;-9.775879979E-2
3.168815614E0;4.296419397E-2;-3.180571645E-2;-1.539583951E-1
3.188262614E0;1.138245612E-1;4.821763188E-2;-2.132123262E-1
3.198279614E0;1.364265829E-1;4.943936318E-2;-2.510859966E-1
3.218221614E0;1.327613890E-1;1.343496293E-1;-3.207246363E-1
3.228472614E0;1.113810986E-1;1.771101952E-1;-3.732590377E-1
3.238674614E0;9.488774836E-2;1.954361498E-1;-4.300695062E-1
3.258269614E0;9.977467358E-2;1.514538527E-1;-5.192558169E-1
3.278254614E0;1.388700455E-1;1.441234648E-1;-6.127182245E-1
3.298193614E0;1.119919717E-1;1.508429796E-1;-6.951850057E-1
3.318244614E0;8.267043531E-2;2.479705513E-1;-6.957958937E-1
3.328246614E0;5.273803696E-2;1.942144185E-1;-7.104566693E-1
3.348299614E0;-7.554366440E-2;-1.448157877E-1;-7.019045353E-1
3.368547614E0;-1.525126845E-1;-1.112181991E-1;-6.005008817E-1
3.388144614E0;-2.007710338E-1;-7.517714798E-2;-4.850473702E-1
3.398179614E0;-1.830559373E-1;-4.585561901E-2;-3.726481795E-1
3.408621614E0;-1.286889464E-1;-6.515905261E-4;-2.413121313E-1
3.428385614E0;1.730785519E-2;6.067927927E-3;-2.140064538E-2
3.438831614E0;7.961611450E-2;-2.997312136E-2;5.617924407E-2
3.459748614E0;1.510873437E-1;-1.307658851E-1;1.893478632E-1
3.478363614E0;2.048434913E-1;-1.225803047E-2;3.958202899E-1
3.498191614E0;2.188933939E-1;2.711834311E-1;6.236730218E-1
3.518215614E0;2.787581682E-1;4.837645292E-1;8.038783073E-1
3.528570614E0;3.691662252E-1;3.279938996E-1;1.178338766E0
3.548251614E0;5.237151384E-1;1.584177092E-2;1.432458639E0
3.558575614E0;6.269513965E-1;6.532185525E-2;1.569292545E0
3.578189614E0;6.257296801E-1;5.472945571E-1;1.506373405E0
3.588435614E0;4.369722605E-1;7.244454622E-1;1.497821212E0
3.608657614E0;6.251187623E-2;7.048977613E-1;1.453228116E0
3.628297614E0;-2.111557424E-1;1.569516361E-1;1.090374112E0
3.648602614E0;-3.486004472E-1;1.331278980E-1;8.704625964E-1
3.668452614E0;-3.119485378E-1;1.954361498E-1;7.495113015E-1
3.688561614E0;-4.420628250E-1;2.791246772E-1;1.238814354E0
3.708158614E0;1.058833674E-2;9.846740365E-1;1.502708197E0
3.728449614E0;3.819943964E-1;1.138001204E0;2.180157661E0
3.748276614E0;1.969022453E-1;5.711182952E-1;2.352421522E0
3.768771614E0;1.364265829E-1;2.931745946E-1;2.222307444E0
3.788302614E0;2.476040572E-1;2.687399685E-1;2.208257437E0
3.808170614E0;3.734422922E-1;-4.288681448E-1;2.260791779E0
3.828294614E0;4.748459160E-1;-1.284690380E0;2.456268787E0
3.838436614E0;3.276273906E-1;-5.730323195E-1;2.530794382E0
3.858179614E0;9.494882226E-1;7.708712220E-1;2.291945934E0
3.868329614E0;9.042842388E-1;1.111123204E0;2.357308626E0
3.888982614E0;1.016683459E0;1.196033478E0;2.214366198E0
3.908309614E0;1.121141315E0;7.403279543E-1;2.201537848E0
3.928270614E0;1.246368766E0;-7.269703746E-1;2.968784571E0
3.948387614E0;1.316618204E0;-2.285287619E0;3.177089691E0
3.968244614E0;7.821111679E-1;-3.429438114E0;3.105007648E0
3.988168614E0;1.431460857E0;-3.657901764E0;2.275452614E0
3.998247614E0;1.868229508E0;-2.945022106E0;1.872892499E0
4.018150614E0;1.733228326E0;-1.385483146E0;2.176492453E0
4.028878614E0;1.548136234E0;-3.824423850E-1;2.584550381E0
4.048189614E0;1.291572809E0;1.483995169E-1;2.890594006E0
4.058545614E0;1.173675776E0;1.954361498E-1;2.778194666E0
4.078158614E0;1.177340984E0;-5.510411859E-1;2.164275169E0
4.088291614E0;1.179784417E0;-9.890315533E-1;1.930924773E0
4.108268614E0;1.204219103E0;-1.244373202E0;1.992011189E0
4.118558614E0;1.735671759E0;-1.274305582E0;2.406788588E0
4.138231614E0;1.626326919E0;3.701436222E-1;2.583939552E0
4.148802614E0;1.506597400E0;6.535850763E-1;2.278506994E0
4.168663614E0;1.372817874E0;8.502836823E-1;1.301733494E0
4.188285614E0;1.983072162E0;4.843754172E-1;7.379048467E-1
4.208259614E0;3.237178564E0;-1.753590554E-1;4.544633627E-1
4.218306614E0;3.738087893E0;-3.909944892E-1;3.329011798E-1
4.228451614E0;4.003203869E0;-5.070588589E-1;2.950275242E-1
4.248183614E0;3.890193462E0;-8.222653270E-1;6.412048638E-2
4.258680614E0;3.920736551E0;-8.289848566E-1;-1.961081028E-1
4.278463614E0;3.910962820E0;-5.986886621E-1;-9.896220565E-1
4.298200614E0;3.919514894E0;-2.804278731E-1;-1.489309788E0
4.308414614E0;3.881641388E0;-2.193413526E-1;-1.596822023E0
4.320148614E0;3.761911631E0;-6.671055555E-1;-1.724492908E0
4.339146614E0;3.585371733E0;-1.022629142E0;-1.957232594E0
4.349596614E0;3.386840343E0;-1.033624768E0;-2.131329298E0
4.368193614E0;2.852333307E0;-1.471615076E0;-2.346353769E0
4.378364614E0;2.455881834E0;-1.073941827E0;-2.331693172E0
4.398152614E0;2.137010098E0;4.581082165E-1;-1.625532746E0
4.408571614E0;1.763771653E0;1.722599268E0;-1.555283189E0
4.428541614E0;8.438085318E-1;1.073860407E0;-1.973115087E0
4.438949614E0;2.311107069E-1;5.888333917E-1;-2.133161783E0
4.458212614E0;-5.801183581E-1;1.789427847E-1;-2.004880190E0
4.481112614E0;-8.727228045E-1;1.783319265E-1;-1.909585118E0
4.493772114E0;-1.949678183E0;2.619349480E0;-1.863159299E0
4.508277614E0;-1.949678183E0;2.619349480E0;-1.863159299E0
4.528190614E0;-3.341840267E0;3.214943171E0;-1.413562536E0
4.538950614E0;-3.669874907E0;2.971207857E0;-1.155166507E0
4.558485614E0;-3.966755390E0;2.309640646E0;-5.595729351E-1
4.580724614E0;-3.891618967E0;1.712214589E0;-1.289129257E-1
4.598197614E0;-3.433470011E0;1.709160209E0;6.167703122E-2
4.618244614E0;-2.825048208E0;1.652960658E0;5.862270296E-2
4.638151614E0;-2.230065584E0;1.408003688E0;-5.072217435E-2
4.648297614E0;-1.867211461E0;1.270558953E0;-7.637851685E-2
4.668768614E0;-1.060258389E0;1.079358101E0;1.525127050E-2
4.688249614E0;-4.597779214E-1;1.146553278E0;1.563611478E-1
4.708288614E0;-1.512909532E-1;1.437325239E0;4.630154669E-1
4.718549614E0;-1.250237525E-1;1.711603642E0;5.082195401E-1
4.738186614E0;-6.576982141E-2;2.033529758E0;4.831740260E-1
4.748194614E0;-1.018103212E-3;2.078122854E0;3.640553057E-1
4.768182614E0;2.903645933E-1;1.964501858E0;2.296649665E-1
4.778217614E0;3.881030381E-1;1.758640289E0;2.394388169E-1
4.788264614E0;4.210897684E-1;1.489859581E0;2.540995777E-1
4.798727614E0;4.388048649E-1;1.221078873E0;2.938058078E-1
4.818238614E0;5.066109300E-1;9.333613515E-1;4.226983786E-1
4.829031614E0;4.974479377E-1;7.226128578E-1;4.587394297E-1
4.848776614E0;3.764966130E-1;5.546249151E-1;5.680842996E-1
4.868363614E0;3.722205460E-1;9.119811058E-1;5.564778447E-1
4.888228614E0;4.333070815E-1;1.066529989E0;5.485365987E-1
4.908299614E0;6.410012841E-1;6.260961294E-1;6.047362089E-1
4.918665614E0;7.815002799E-1;5.081991553E-1;6.939225197E-1
4.938578614E0;9.042842388E-1;2.888985276E-1;8.014348149E-1
4.958387614E0;6.831510067E-1;2.858442068E-1;7.971587777E-1
4.968851614E0;5.628105402E-1;3.939673603E-1;7.715024352E-1
4.988211614E0;6.141232252E-1;7.818667889E-1;9.217752814E-1
4.998222614E0;7.277441621E-1;1.108068824E0;9.840835333E-1
5.008641614E0;8.199847937E-1;1.311486959E0;9.877487421E-1
5.028215614E0;7.198029160E-1;1.150829434E0;9.724770784E-1
5.048231614E0;4.302527606E-1;5.698965192E-1;1.003020406E0
5.058964614E0;2.769255638E-1;2.962289155E-1;9.785857201E-1
5.078266614E0;-1.121955812E-1;2.320880592E-1;6.248947978E-1
5.098268614E0;-1.427388340E-1;4.672711790E-1;3.988746405E-1
5.118412614E0;-1.079194620E-2;2.339206636E-1;4.917261600E-1
5.138131614E0;-4.744385928E-2;7.692829520E-2;4.862283468E-1
5.148271614E0;-4.744385928E-2;3.966551274E-2;4.196440578E-1
5.168196614E0;-1.445713826E-2;-2.205630839E-1;3.383989632E-1
5.178301614E0;2.647086978E-3;-4.539135993E-1;4.000963569E-1
5.198209614E0;2.463823929E-2;-1.001248837E0;5.473148823E-1
5.218175614E0;-8.287404478E-2;-1.181454062E0;8.759604096E-1
5.228551614E0;-1.616756618E-1;-1.310346723E0;9.376577735E-1
5.248237614E0;-2.948442996E-1;-1.140526175E0;1.087319851E0
5.258603614E0;-2.655227482E-1;-7.007031441E-1;1.139243364E0
5.278318614E0;-4.866559058E-2;5.799147487E-2;1.182003975E0
5.298201614E0;2.873102725E-1;1.532864422E-1;9.095579982E-1
5.308476614E0;2.946406603E-1;1.111367494E-1;7.953261733E-1
5.328275614E0;8.328130841E-2;-5.467651486E-1;6.065688133E-1
5.338894614E0;-6.515895575E-2;-8.497542739E-1;4.978348017E-1
5.358249614E0;-2.007710338E-1;-9.358862638E-1;3.011361957E-1
5.378239614E0;-1.793907434E-1;-7.721744180E-1;-2.036150545E-5
5.388264614E0;-1.103629768E-1;-6.842098236E-1;-1.130304337E-1
5.398436614E0;-6.393722445E-2;-6.982597113E-1;-2.345926166E-1
5.408574614E0;-1.018108726E-1;-8.845735788E-1;-3.634851873E-1
5.428630614E0;-3.180571795E-1;-1.535145044E0;-6.041660905E-1
5.440803614E0;-3.675372601E-1;-1.822251797E0;-6.628091931E-1
5.458422614E0;-4.029674530E-1;-1.830193043E0;-7.654345036E-1
5.479122614E0;-4.530583918E-1;-1.403198242E0;-7.678779960E-1
5.498260614E0;-3.235549629E-1;-1.036068201E0;-5.394144058E-1
5.509230614E0;-2.777400613E-1;-1.213219166E0;-4.563367069E-1
5.528996614E0;-1.073086560E-1;-1.668313742E0;-2.150449306E-1
5.548212614E0;1.565851271E-1;-1.764219522E0;1.158607844E-2
5.558386614E0;1.804088801E-1;-1.570575237E0;2.388279438E-1
5.568859614E0;1.816306114E-1;-1.213829994E0;3.420641720E-1
5.588226614E0;1.852958053E-1;-8.564738035E-1;1.679675877E-1
5.608245614E0;1.565851271E-1;-5.321043730E-1;-4.954320788E-1
5.628411614E0;1.468112916E-1;-4.520810246E-1;-7.336695194E-1
5.648340614E0;1.999565661E-1;-3.971031308E-1;-4.428976774E-1
5.668310614E0;2.903645933E-1;-4.710178375E-1;-3.665395081E-1
5.688376614E0;3.239621818E-1;-1.246572360E-1;-3.347745240E-1
5.708204614E0;4.192571640E-1;6.654358655E-2;-2.914030850E-1
5.718219614E0;3.942117095E-1;6.287840009E-2;-2.846835852E-1
5.728415614E0;3.172426820E-1;-5.501859635E-2;-3.188920319E-1
5.748911614E0;3.563381359E-2;-6.029646993E-1;-3.219463527E-1
5.768233614E0;-2.484185249E-1;-9.517687559E-1;-2.229861766E-1
5.778285614E0;-2.966769040E-1;-9.218363762E-1;-1.808364689E-1
5.798342614E0;-1.470149010E-1;-3.922162056E-1;-2.468099147E-1
5.808614614E0;-2.056579106E-2;-1.484809816E-1;-2.712445557E-1
5.828337614E0;2.616539299E-1;8.511388674E-3;-2.284839600E-1
5.848303614E0;6.715445518E-1;-2.877582610E-1;-9.042841941E-2
5.868342614E0;8.914560676E-1;-5.119457841E-1;3.296636045E-2
5.888285614E0;8.083783388E-1;-3.262427747E-1;-1.228042692E-1
5.908187614E0;5.640322566E-1;2.766812146E-1;-1.057000458E-1
5.928374614E0;1.907935888E-1;2.840116024E-1;-1.686191708E-1
5.948349614E0;-2.178752571E-1;1.361822188E-1;-4.031914473E-1
5.968211614E0;-2.160426676E-1;-2.019927837E-2;-3.469918370E-1
5.988611614E0;7.350745797E-2;2.070425898E-1;-3.359962702E-1
6.008149614E0;1.730784923E-1;2.998940945E-1;-3.897523880E-1
6.018156614E0;2.866994143E-1;3.377677500E-1;-3.989153802E-1
6.028473614E0;3.752748668E-1;4.300084114E-1;-3.958610594E-1
6.048456614E0;3.807726502E-1;6.132679582E-1;-4.416759610E-1
6.058581614E0;3.752748668E-1;7.116172910E-1;-4.661105573E-1
6.078201614E0;4.070398808E-1;7.800341845E-1;-4.557258487E-1
6.088537614E0;4.583525360E-1;6.407569051E-1;-3.353853822E-1
6.108597614E0;4.479678273E-1;4.935383797E-1;-2.040493488E-1
6.128942614E0;5.114978552E-1;4.593299329E-1;-1.136412919E-1
6.149666614E0;5.628105402E-1;5.063665509E-1;-1.344107091E-1
6.168185614E0;5.585345030E-1;6.407569051E-1;-1.179173589E-1
6.178895614E0;5.634214282E-1;7.171150446E-1;-1.008131281E-1
6.198166614E0;5.420411229E-1;7.146716118E-1;-8.248716593E-2
6.208295614E0;5.041674972E-1;6.053267121E-1;-8.309803158E-2
6.218633614E0;4.473569691E-1;4.935383797E-1;-7.454591990E-2
6.238262614E0;3.997094929E-1;4.837645292E-1;-6.782640517E-2
6.258227614E0;3.636684418E-1;5.637878776E-1;-6.721553952E-2
6.268520614E0;3.612249792E-1;5.973854661E-1;-1.407026220E-2
6.288217614E0;3.984877467E-1;6.144897342E-1;1.148223057E-1
6.308239614E0;4.088724554E-1;6.212092042E-1;1.630806625E-1
6.328321614E0;4.528547525E-1;7.201693654E-1;1.160440370E-1
6.348610614E0;5.108869672E-1;6.615263224E-1;1.056593284E-1
6.368352614E0;5.353215933E-1;5.240816474E-1;7.755952328E-2
6.388231614E0;5.432628393E-1;4.465017617E-1;7.511606067E-2
6.398687614E0;5.041674972E-1;4.483343661E-1;9.893980622E-2
6.418187614E0;3.172426820E-1;4.917057753E-1;1.930130571E-1
6.428456614E0;2.164499313E-1;6.309830546E-1;2.333301604E-1
6.448199614E0;1.981239766E-1;1.061032176E0;2.712037861E-1
6.468607614E0;4.143702388E-1;1.179540038E0;1.997325718E-1
6.488249614E0;4.351396859E-1;7.091737986E-1;2.522669733E-1
6.498349614E0;4.858414829E-1;5.259142518E-1;2.919732034E-1
6.508388614E0;4.968370497E-1;4.159584939E-1;2.724255323E-1
6.528368614E0;4.797328413E-1;3.389894664E-1;3.487836719E-1
6.548181614E0;4.168137014E-1;2.840116024E-1;7.666155100E-1
6.568321614E0;3.667227626E-1;3.328808248E-1;1.364041805E0
6.588517614E0;-6.943501532E-2;6.028832793E-1;1.569903374E0
6.608210614E0;-6.021094918E-1;7.629299760E-1;1.366485238E0
6.618322614E0;-6.686937809E-1;6.102136374E-1;1.170397520E0
6.638285614E0;-4.194608033E-1;1.551190466E-1;9.761422873E-1
6.658642614E0;2.390519530E-1;-2.669888437E-1;9.040601850E-1
6.678205614E0;6.556621194E-2;-6.115168333E-1;7.281309962E-1
6.688325614E0;-4.133521020E-2;-4.710178375E-1;6.242839098E-1
6.709166614E0;-2.795726657E-1;-1.484809816E-1;3.304577172E-1
6.728300614E0;-1.763364226E-1;8.303695172E-2;1.001615375E-1
6.748282614E0;-6.515895575E-2;1.025846377E-1;-7.454591990E-2
6.769987614E0;-7.432193309E-2;1.154128090E-1;8.305731416E-2
6.788406614E0;-1.378519237E-1;-1.680286676E-1;-2.816292644E-1
6.808170614E0;-2.508620024E-1;-2.688214481E-1;-6.786916852E-1
6.818231614E0;-2.807943821E-1;-3.909944892E-1;-9.218160510E-1
6.828256614E0;-3.107267916E-1;-4.252029359E-1;-1.174714208E0
6.848201614E0;-3.229441047E-1;-4.264246821E-1;-1.540011644E0
6.868670614E0;-3.663155437E-1;-6.756576896E-1;-2.149044275E0
6.888157614E0;-1.032158613E0;-1.271006912E-1;-2.356127739E0
6.898261614E0;-1.620421886E0;5.589009523E-1;-2.335358381E0
6.918169614E0;-2.894686937E0;2.263215065E0;-2.130718470E0
6.928402614E0;-2.971655846E0;2.517945766E0;-1.875987530E0
6.948840614E0;-6.845762730E-1;1.371962667E0;-1.425168991E0
6.968706614E0;-7.682648301E-1;1.011552095E0;-1.034826040E0
6.988245614E0;-7.053456903E-1;-4.013791978E-1;-2.981226146E-1
7.008301614E0;-7.597126961E-1;9.036733210E-2;1.307048053E-1
7.028442614E0;-7.639887929E-1;1.868840307E-1;1.004242063E0
7.048330614E0;-1.552004933E0;-5.992995501E-1;5.876320004E-1
7.068362614E0;-3.595960140E-1;-4.334740162E0;-2.659116745E0
7.088190614E0;9.262753725E-1;-3.138666391E0;-8.570643067E-1
7.108243614E0;2.332487106E0;9.132028222E-1;-9.102095962E-1
7.118264614E0;2.725273371E0;1.893030643E0;-7.800952792E-1
7.131913614E0;2.791246891E0;1.874093890E0;-5.913379192E-1
7.149162614E0;1.962913632E0;9.431352019E-1;-9.566353559E-1
7.168820614E0;5.237151384E-1;-9.218363762E-1;-1.456323028E0
7.188191614E0;1.987348348E-1;-1.723291636E0;-1.615758896E0
7.198649614E0;2.812016308E-1;-2.116688728E0;-1.668904185E0
7.218197614E0;3.447316289E-1;-2.069652081E0;-1.659741163E0
7.228208614E0;3.502294123E-1;-1.451456547E0;-1.510079145E0
7.248337614E0;6.721554399E-1;-1.289332956E-1;-1.023219585E0
7.258959614E0;1.157793283E0;8.276816607E-1;-5.876727700E-1
7.278493614E0;9.519317150E-1;2.433035612E0;-3.854763508E-1
7.298256614E0;4.821762741E-1;3.575353622E0;-1.979406923E-1
7.308343614E0;3.887139261E-1;4.023728848E0;-2.187101245E-1
7.328218614E0;4.137593806E-1;4.434841156E0;-3.005660772E-1
7.338314614E0;2.170607895E-1;3.677978992E0;-5.436904430E-1
7.348323614E0;1.907935888E-1;2.508782864E0;-8.717250824E-1
7.368209614E0;3.319034576E-1;1.862487435E0;-1.072699666E0
7.378247614E0;2.072869539E-1;1.906469703E0;-1.006726265E0
7.398139614E0;-1.164716333E-1;2.040249109E0;-7.849822044E-1
7.408407614E0;-1.763364226E-1;1.960225821E0;-6.591439843E-1
7.428207614E0;-6.699155271E-2;1.904637098E0;-5.253644586E-1
7.448345614E0;2.805907726E-1;1.583932877E0;-5.394144058E-1
7.468209614E0;5.970190167E-1;1.506353021E0;-6.603657007E-1
7.478209614E0;6.941465735E-1;1.422664404E0;-7.312260866E-1
7.488457614E0;7.515679002E-1;1.437325239E0;-7.965886593E-1
7.509255614E0;7.326310873E-1;1.805676937E0;-8.546208739E-1
7.528183614E0;9.195558429E-1;1.178929210E0;-5.314731598E-1
7.548318614E0;7.332419157E-1;1.265061140E0;-1.588453203E-1
7.568290614E0;6.019059420E-1;1.473977089E0;7.755952328E-2
7.588219614E0;1.174897552E-1;1.993212461E0;1.435329765E-1
7.608155614E0;-2.917899787E-1;1.773911953E0;1.673567146E-1
7.628473614E0;-4.536692500E-1;1.604702234E0;2.235563248E-1
7.648164614E0;-3.272201419E-1;1.086688519E0;2.516561151E-1
7.658417614E0;-3.253875673E-1;7.631742954E-2;2.492126673E-1
7.678188614E0;-4.988732934E-1;-9.737599492E-1;1.936239153E-1
7.698213614E0;-8.153014779E-1;-2.105082273E0;2.363844961E-1
7.718196614E0;-1.073697448E0;-2.859500885E0;8.112086654E-1
7.738599614E0;-1.114625454E0;-3.001832485E0;1.243701339E0
7.748797614E0;-1.080416918E0;-2.973121881E0;1.321892023E0
7.768743614E0;-1.022384763E0;-2.136847258E0;1.278520584E0
7.788210614E0;-6.595308185E-1;-1.651820302E0;9.370468855E-1
7.798234614E0;-4.787147343E-1;-2.094086885E0;5.448714495E-1
7.818260614E0;-5.685119033E-1;-3.482583523E0;-3.323310614E-1
7.828673614E0;-8.519533873E-1;-3.764803171E0;-5.620164275E-1
7.848302614E0;-2.435316324E0;-2.543072701E0;-1.240260005E-1
7.868207614E0;-2.625295401E0;-2.033611059E0;4.391917288E-1
7.878248614E0;-2.346740723E0;-1.836912513E0;5.057760477E-1
7.888326614E0;-1.861713648E0;-1.601118565E0;4.837849140E-1
7.899480614E0;-1.125620961E0;-1.806980133E0;3.707748353E-1
7.918230614E0;2.353867441E-1;-1.649987817E0;5.192151070E-1
7.928263614E0;4.333070815E-1;-1.087991714E0;7.201897502E-1
7.948303614E0;2.262237817E-1;-4.856786132E-1;7.751676440E-1
7.958633614E0;9.000082314E-2;-4.722395539E-1;6.890355945E-1
7.978238614E0;5.640323088E-2;-8.821301460E-1;4.972239435E-1
7.988498614E0;6.984226406E-2;-1.109982848E0;3.799377978E-1
8.008173614E0;6.129014865E-2;-1.262699246E0;8.061385155E-2
8.018300614E0;1.608612388E-2;-1.177788973E0;-8.493062854E-2
8.038126614E0;-1.207476854E-1;-6.701598763E-1;-4.312912524E-1
8.048648614E0;-8.043058217E-2;-1.038878113E-1;-7.428325415E-1
8.068445614E0;2.848668098E-1;2.256128937E-2;-1.032382607E0
8.088311614E0;6.593272686E-1;-1.191594452E-1;-1.345756412E0
8.108172614E0;7.424049377E-1;-4.746830165E-1;-1.470983863E0
8.118413614E0;7.356854081E-1;-2.969212532E-1;-1.436164498E0
8.139287614E0;5.029457211E-1;4.092389941E-1;-8.026973009E-1
8.158237614E0;-2.416990101E-1;-7.202508450E-1;2.626516819E-1
8.168242614E0;-7.077891827E-1;-1.615168452E0;7.311853170E-1
8.188233614E0;-1.274061203E0;-1.919990182E0;9.627032280E-1
8.199161614E0;-7.926994562E-1;-1.068444014E0;7.055289745E-1
8.218212614E0;2.524909675E-1;4.379496574E-1;1.801848859E-1
8.228234614E0;5.652539730E-1;-2.004045248E-1;1.830559596E-2
8.238348614E0;1.002022624E0;-1.503380060E0;7.206173986E-2
8.258151614E0;8.548040986E-1;3.844378889E-2;6.108448505E-1
8.268181614E0;9.299405217E-1;-2.547715306E-1;4.300287664E-1
8.278191614E0;1.053946137E0;-3.323514163E-1;3.115209043E-1
8.288526614E0;1.014239907E0;5.860234052E-2;1.019941345E-1
8.308322614E0;7.210246325E-1;8.364781737E-2;-7.452759743E-1
8.318720614E0;6.104580164E-1;-5.058371425E-1;-1.179601073E0
8.338229614E0;4.840088785E-1;-7.746178508E-1;-1.293222070E0
8.348422614E0;6.141232252E-1;3.298265040E-1;-1.177157640E0
8.368338614E0;1.011796474E0;1.500244260E0;-9.841243029E-1
8.388281614E0;7.173594236E-1;1.209472418E0;-1.150890470E0
8.408142614E0;1.248201430E-1;2.111720324E0;-1.011613131E0
8.418549614E0;-1.873320043E-1;2.867971659E0;-9.254812002E-1
8.438186614E0;-1.572163463E0;5.976054192E0;-1.003061056E0
8.448195614E0;-1.449990392E0;6.132435799E0;-9.242594838E-1
8.468143614E0;-5.740096569E-1;4.725613117E0;-4.795495868E-1
8.478643614E0;-4.280129075E-1;4.573507786E0;-3.127833903E-1
8.488945614E0;-3.809762895E-1;4.514864445E0;-1.906103194E-1
8.508312614E0;-1.433497071E-1;3.803817034E0;-1.618996561E-1
8.518331614E0;6.556621194E-2;3.169739008E0;-1.344107091E-1
8.528401614E0;2.689843178E-1;2.616295099E0;-8.554149419E-2
8.548274614E0;6.629924178E-1;1.892419815E0;-1.557909995E-1
8.568225614E0;1.006909609E0;1.418999195E0;-5.394144058E-1
8.588224614E0;1.051502705E0;1.248567820E0;-6.426506042E-1
8.608153614E0;1.100982785E0;1.118453503E0;-2.816292644E-1
8.628657614E0;1.064330935E0;1.362799644E0;8.122471720E-2
8.648567614E0;5.689191818E-1;1.696332097E0;2.492126673E-1
8.668989614E0;-2.728530765E-2;1.750088215E0;1.985108405E-1
8.688177614E0;-2.545271814E-1;1.478253126E0;-2.437555939E-1
8.708346614E0;-4.872668386E-1;1.289495826E0;-4.716083407E-1
8.728304614E0;-3.553199470E-1;1.143499017E0;-1.460171491E-1
8.748832614E0;-1.354084611E-1;8.447859287E-1;3.402315676E-1
8.768282614E0;6.006842479E-2;-6.811555028E-1;5.607539415E-1
8.778736614E0;-1.201368272E-1;-1.472226024E0;4.605720341E-1
8.798663614E0;-6.833545566E-1;-2.963958979E0;3.658879101E-1
8.818188614E0;-1.071254015E0;-3.918130398E0;7.892175317E-1
8.838201614E0;-1.153109908E0;-4.144150257E0;1.808140755E0
8.848658614E0;-1.180598855E0;-3.354301691E0;2.004228592E0
8.868312614E0;-1.275282979E0;-1.637770414E0;1.990789533E0
8.879268614E0;-1.127453566E0;-1.577294827E0;1.605944395E0
8.898194614E0;-1.018108726E0;-3.433714390E0;-5.866342038E-2
8.908515614E0;-1.270396113E0;-4.132544041E0;-3.983045220E-1
8.928382614E0;-2.424931526E0;-3.627969503E0;2.082846910E-1
8.948205614E0;-2.807333231E0;-2.894320250E0;7.939212024E-2
8.968265614E0;-1.856215835E0;-2.322550297E0;3.316794634E-1
8.978907614E0;-1.051706314E0;-2.407460690E0;4.477438629E-1
8.998168614E0;4.436917901E-1;-2.328048229E0;7.012529373E-1
9.008519614E0;6.660467386E-1;-1.841799498E0;8.142629862E-1
9.028236614E0;5.371541977E-1;-5.589824319E-1;5.448714495E-1
9.038529614E0;4.992805421E-1;-4.600222707E-1;4.398025870E-1
9.058658614E0;3.013601899E-1;-9.163386226E-1;3.958202899E-1
9.068737614E0;2.152282000E-1;-1.232766747E0;3.121317625E-1
9.088472614E0;6.129014865E-2;-1.420302391E0;-3.056362271E-2
9.108685614E0;-1.628973931E-1;-9.841446280E-1;-4.636670947E-1
9.128180614E0;-1.549561471E-1;-3.415144086E-1;-8.967705369E-1
9.138532614E0;-6.699155271E-2;-4.280129075E-2;-1.097134352E0
9.158358614E0;4.711807072E-1;1.123584807E-1;-1.548563719E0
9.178626614E0;1.111367583E0;-3.799989223E-1;-1.858883262E0
9.198563614E0;1.078991652E0;-4.710178375E-1;-1.747094870E0
9.220753614E0;5.744169950E-1;6.786305308E-1;-2.987334728E-1
9.238222614E0;-2.490293831E-1;-5.663127899E-1;2.840319574E-1
9.248236614E0;-6.857980490E-1;-1.637770414E0;5.155498981E-1
9.258826614E0;-1.214807272E0;-2.128295183E0;7.030855417E-1
9.278211614E0;-9.118181467E-1;-1.497882366E0;3.396207094E-1
9.288230614E0;-4.671083093E-1;-6.939836740E-1;-1.590285823E-2
9.308201614E0;4.846198484E-2;-3.335731626E-1;-1.099761054E-1
9.318433614E0;5.231043100E-1;-4.991176426E-1;-2.431447357E-1
9.328468614E0;8.871799707E-1;-6.579425931E-1;-2.846835852E-1
9.348557614E0;6.581054926E-1;-5.296608806E-1;2.046194971E-1
9.368295614E0;1.192001700E0;-2.285043299E-1;2.119498849E-1
9.388465614E0;1.341052890E0;-5.125566721E-1;1.704110503E-1
9.408207614E0;1.031344175E0;-2.162870318E-1;-2.816292644E-1
9.419655614E0;7.540113330E-1;-6.438927054E-1;-1.122179747E0
9.429954614E0;7.240789533E-1;-2.019927837E-2;-1.405621290E0
9.448192614E0;8.224282861E-1;1.354858398E0;-8.717250824E-1
9.458496614E0;6.941465735E-1;1.192368269E0;-6.261572242E-1
9.478209614E0;3.752748668E-1;1.535063624E0;-8.808880448E-1
9.488257614E0;3.459533453E-1;2.120883465E0;-9.987850785E-1
9.508270614E0;-1.586213410E-1;3.062226772E0;-1.031160831E0
9.528250614E0;-9.234246016E-1;4.394524097E0;-1.109962463E0
9.538363614E0;-1.165327191E0;5.192924976E0;-1.172881603E0
9.558281614E0;-9.222028852E-1;5.415279865E0;-7.868148088E-1
9.568444614E0;-5.117014647E-1;4.902763844E0;-6.133290529E-1
9.588233614E0;-9.142616391E-2;4.333437443E0;-4.709974825E-1
9.598245614E0;3.868813440E-2;4.045720100E0;-3.830328882E-1
9.618201614E0;5.481497645E-1;2.822767496E0;-2.242079079E-1
9.628456614E0;6.617707014E-1;2.407379150E0;-3.579874039E-1
9.648131614E0;7.552331090E-1;1.489859581E0;-7.183979154E-1
9.663981614E0;7.173594236E-1;1.276667595E0;-7.684888244E-1
9.677378614E0;1.000190020E0;8.203513026E-1;-2.694119513E-1
9.689243614E0;1.000190020E0;8.203513026E-1;-2.694119513E-1
9.701039614E0;1.094263315E0;8.954877257E-1;-1.002022624E-1
9.711854614E0;1.006909609E0;1.191146493E0;5.495751277E-2
9.723406614E0;7.851654887E-1;1.641965032E0;2.198911309E-1
9.736251114E0;1.290961951E-1;1.903415322E0;1.252070069E-1
9.747235364E0;-8.470664173E-2;1.455651164E0;-4.155919701E-2
9.770473614E0;-4.408410788E-1;1.103792787E0;-2.645250261E-1
9.789584614E0;-5.587380528E-1;9.187005758E-1;-3.182811737E-1
9.811832614E0;-6.528112888E-1;2.632421851E-1;-7.454591990E-2
9.824918614E0;-8.360708952E-1;-4.685743749E-1;2.333301604E-1
9.835273114E0;-8.623380661E-1;-1.104485035E0;3.402315676E-1
9.845683864E0;-9.203702807E-1;-1.726345897E0;4.324722290E-1
9.863386614E0;-1.040099859E0;-2.186938286E0;5.894646049E-1
9.873395614E0;-1.223970294E0;-2.465492964E0;8.594670296E-1
9.883477614E0;-1.406008124E0;-2.591331005E0;1.229040504E0
9.894377114E0;-1.262454867E0;-2.348817587E0;2.367693186E0
9.909784614E0;-1.262454867E0;-2.348817587E0;2.367693186E0
9.923021614E0;-1.015054464E0;-2.164947271E0;2.665795565E0
9.949260614E0;-9.533569813E-1;-1.739174128E0;1.963911414E0
9.960351614E0;-1.025439143E0;-2.072706461E0;9.425446987E-1
9.975039614E0;-1.558113575E0;-3.209526777E0;-5.271970630E-1
9.994632614E0;-2.361401558E0;-4.262047291E0;-3.317202032E-1
1.001066961E1;-2.263052225E0;-3.974940777E0;-2.150449306E-1
1.002820861E1;-1.446325302E0;-3.152716160E0;-1.221934110E-1
1.004152861E1;-7.316129208E-1;-3.284052372E0;4.884885997E-2
1.005821961E1;3.294599950E-1;-2.767260313E0;1.740762293E-1
1.008155461E1;6.373360753E-1;-1.897388220E0;4.691241384E-1
1.009621261E1;5.438737273E-1;-1.000638008E0;4.581285715E-1
1.010734311E1;3.826052547E-1;-6.768794060E-1;2.980818748E-1
1.011825261E1;3.826052547E-1;-8.393695951E-1;2.980818748E-1
1.013940661E1;2.775364518E-1;-1.628607512E0;1.563611478E-1
1.015943361E1;-2.728531361E-1;-1.309124947E0;-1.655648351E-1
1.017893661E1;-4.157956243E-1;-1.169236779E0;-4.917668700E-1
1.018936561E1;-2.490293831E-1;-7.019249201E-1;-7.654345036E-1
1.020832461E1;4.113159701E-2;-1.409062557E-2;-9.890112281E-1
1.021924261E1;2.225585729E-1;3.023375571E-1;-1.124012351E0
1.023823561E1;6.183992624E-1;4.800993502E-1;-1.373245358E0
1.025101161E1;8.053240180E-1;3.829717636E-1;-1.428223252E0
1.026922161E1;9.122254848E-1;6.224309802E-1;-1.312769771E0
1.028828661E1;4.113159180E-1;8.221839070E-1;-4.636670947E-1
1.029885161E1;-3.705915064E-2;5.576792359E-1;-1.185282171E-1
1.031820161E1;-6.363179684E-1;-1.343333364E0;4.245309830E-1
1.032823261E1;-8.440121412E-1;-1.562633991E0;5.803015828E-1
1.033826561E1;-9.796242118E-1;-1.193060517E0;6.511619687E-1
1.035821561E1;-1.071864843E0;-1.589512110E0;3.793269396E-1
1.036838061E1;-5.300273895E-1;-8.124915361E-1;1.417003721E-1
1.038821761E1;8.352564573E-1;-7.639887929E-2;-1.820582002E-1
1.040818761E1;1.126639128E0;-2.297260612E-1;2.319251746E-2
1.041824361E1;9.397143722E-1;-4.759047627E-1;1.050484627E-1
1.043822861E1;1.230486274E0;-4.927646834E-3;-6.538294256E-2
1.045820361E1;1.592729330E0;1.526755840E-1;-4.038023055E-1
1.046822861E1;1.475443244E0;-2.462194264E-1;-4.618344903E-1
1.047911161E1;1.263472915E0;-7.123095989E-1;-4.551149905E-1
1.049823361E1;8.725191951E-1;-9.798685908E-1;-2.626924217E-1
1.050830561E1;6.159558296E-1;-8.943474293E-1;-1.234151423E-1
1.052821461E1;-8.531750739E-2;3.145548701E-1;4.274020717E-2
1.053822461E1;-2.166535258E-1;1.054312706E0;-2.506583557E-2
1.054830361E1;-1.934405975E-2;1.475809693E0;-4.392324984E-1
1.056821861E1;5.719735026E-1;1.808120370E0;-8.900510669E-1
1.058851261E1;-8.287404478E-2;3.254038334E0;-8.546208739E-1
1.059890161E1;-3.339396715E-1;3.754337072E0;-8.130820394E-1
1.061823761E1;-6.088290215E-1;3.916827202E0;-7.623801827E-1
1.062830661E1;-6.460917592E-1;4.331604958E0;-8.155254722E-1
1.064982161E1;-7.487171292E-1;5.249735355E0;-7.190087438E-1
1.066818661E1;-1.922189146E-1;4.440339088E0;-4.196847975E-1
1.067825261E1;7.106399536E-2;3.893003464E0;-3.616526127E-1
1.068855861E1;1.895718575E-1;3.545421124E0;-3.494352996E-1
1.070812461E1;1.797980070E-1;3.112317801E0;-3.787568212E-1
1.071828661E1;1.834632009E-1;2.782450438E0;-3.127833903E-1
1.073834161E1;2.958624065E-1;1.994434357E0;-3.017877936E-1
1.075824061E1;4.968370497E-1;1.638299823E0;-3.030095398E-1
1.077825061E1;6.177884340E-1;1.607145786E0;-3.427157700E-1
1.079434561E1;7.155268192E-1;1.567439437E0;-2.993443310E-1
1.080830961E1;7.393506169E-1;1.134335995E0;-2.034384906E-1
1.082827661E1;4.290310144E-1;1.097684145E0;-1.651372388E-2
1.084822261E1;5.090549588E-3;1.253454804E0;1.887370050E-1
1.085842961E1;-1.983275712E-1;1.343862772E0;1.820174903E-1
1.086857861E1;-3.663155437E-1;1.363410473E0;4.701626301E-2
1.088814861E1;-3.101159334E-1;9.419134855E-1;-2.981226146E-1
1.089815261E1;-2.783509195E-1;7.916406393E-1;-3.585982621E-1
1.090815461E1;-2.166535258E-1;7.232237458E-1;-3.213354945E-1
1.091826161E1;-8.043058217E-2;6.377025843E-1;-2.443664521E-1
1.092858661E1;2.280564234E-2;4.593299329E-1;-1.197499484E-1
1.094829061E1;-3.278309479E-2;-2.614910603E-1;1.862935424E-1
1.096028761E1;-4.781038761E-1;-1.350663781E0;4.294178784E-1
1.097820561E1;-7.963646054E-1;-1.841188550E0;5.021108985E-1
1.099820461E1;-1.296052456E0;-2.839342356E0;1.238814354E0
1.101824561E1;-1.247794032E0;-2.927306890E0;2.040880442E0
1.102828861E1;-1.124399304E0;-2.732440948E0;2.199705362E0
1.104839161E1;-9.948958158E-1;-1.525371194E0;2.210700989E0
1.106816261E1;-9.368636608E-1;-1.296907663E0;1.425739169E0
1.107823161E1;-1.021773934E0;-1.639603019E0;5.247128606E-1
1.108848461E1;-1.192816138E0;-2.133182049E0;-1.582344621E-1
1.110813561E1;-2.222124338E0;-2.815518618E0;-1.264694631E-1
1.111822461E1;-2.713870764E0;-3.327423811E0;-1.337998509E-1
1.112825761E1;-2.854369879E0;-3.539393902E0;-1.502932161E-1
1.113826261E1;-2.591086864E0;-3.664621353E0;-1.918320507E-1
1.114845861E1;-1.955786824E0;-3.930347681E0;-1.979406923E-1
1.116830361E1;-3.516547680E-1;-3.712268829E0;-4.217006266E-2
1.117846761E1;6.880379319E-1;-2.902261496E0;3.762726188E-1
1.119826261E1;7.497352958E-1;-1.799038887E0;5.448714495E-1
1.120867061E1;5.041674972E-1;-1.149078250E0;5.460931659E-1
1.123105061E1;2.164499313E-1;-3.189123869E-1;3.329011798E-1
1.124828661E1;2.341650277E-1;-9.749816656E-1;2.693712115E-1
1.125993361E1;1.333722621E-1;-1.178399801E0;1.820174903E-1
1.127868561E1;-9.997826815E-2;-1.188784480E0;-6.232861429E-2
1.128876361E1;-2.227621824E-1;-1.008579254E0;-2.217644453E-1
1.130819761E1;-2.459750623E-1;-6.371731758E-1;-5.632381439E-1
1.131825661E1;-1.097521186E-1;-4.026009142E-1;-7.434433699E-1
1.132924461E1;4.174246266E-2;-1.716938615E-1;-9.230377674E-1
1.134829661E1;4.186463058E-1;1.997122020E-1;-1.295665503E0
1.135929061E1;1.099150181E0;1.416800022E-1;-1.656075954E0
1.137938461E1;1.380759120E0;-2.230065465E-1;-1.729990721E0
1.139864661E1;9.213884473E-1;4.855971336E-1;-8.191906810E-1
1.141114661E1;4.455243945E-1;9.376374483E-1;-2.126014680E-1
1.142885061E1;-6.332635880E-1;-2.822604775E-1;5.546452403E-1
1.143905061E1;-1.279559016E0;-1.403809071E0;6.713205576E-1
1.145827361E1;-1.757866502E0;-2.872940063E0;7.317962050E-1
1.146827561E1;-7.517714500E-1;-1.514375687E0;3.982637525E-1
1.147843161E1;3.080796897E-1;-1.997936666E-1;4.151847586E-2
1.149827961E1;8.792387247E-1;-7.257486582E-1;3.644830547E-3
1.150831061E1;9.274970889E-1;-7.746178508E-1;1.991217136E-1
1.152825861E1;5.414302349E-1;-2.144544274E-1;7.220223546E-1
1.154828061E1;5.353215933E-1;3.182200491E-1;4.703458548E-1
1.156825761E1;1.347772360E0;-4.850677252E-1;-1.050891802E-1
1.158818261E1;7.570657134E-1;-1.093856022E-1;-3.549330831E-1
1.159821161E1;5.585345030E-1;-3.354057372E-1;-3.952502012E-1
1.160866161E1;4.950044453E-1;-4.765156209E-1;-4.031914473E-1
1.162863261E1;6.312274337E-1;8.435641527E-1;-3.543222249E-1
1.164824061E1;9.287188053E-1;1.023158550E0;-7.764301300E-1
1.166118461E1;9.336057305E-1;1.062864780E0;-1.102021217E0
1.167821961E1;5.377650857E-1;1.789794445E0;-1.035436869E0
1.168839361E1;1.969022453E-1;2.393329382E0;-9.297572970E-1
1.170868061E1;-7.145087123E-1;3.985244036E0;-9.352550507E-1
1.172824261E1;-1.179988027E0;5.369464874E0;-1.323154449E0
1.174822061E1;-6.008877754E-1;4.936361790E0;-1.142949224E0
1.176828561E1;-2.789618075E-1;4.539909840E0;-4.905451536E-1
1.178824661E1;7.595092058E-2;3.648046494E0;-1.869451255E-1
1.180058461E1;2.463823110E-1;3.239988565E0;-1.392976344E-1
1.181815561E1;6.978117824E-1;2.437311649E0;-1.521258056E-1
1.182823661E1;8.981755376E-1;2.138598442E0;-2.510859966E-1
1.184821861E1;9.775880575E-1;1.612032652E0;-5.497990847E-1
1.185853161E1;8.914560676E-1;1.513683319E0;-5.510208011E-1
1.187828561E1;9.769772291E-1;1.407392740E0;-2.645250261E-1
1.188831761E1;1.057000518E0;1.392732024E0;-1.289129257E-1
1.191175161E1;8.376998901E-1;1.469701052E0;2.076738179E-1
1.192866761E1;-1.995492540E-2;1.808731318E0;4.923370183E-1
1.194825361E1;-5.831726789E-1;1.968167067E0;1.771305650E-1
1.195835661E1;-6.619742513E-1;1.865541697E0;-1.411302388E-1
1.197835261E1;-2.734639943E-1;9.877283573E-1;-2.987334728E-1
1.199827061E1;2.463823929E-2;6.670241356E-1;4.579453170E-2
1.201325861E1;8.022697270E-2;4.373387992E-1;2.009543031E-1
1.202820061E1;-1.812233031E-2;-5.968560576E-1;4.355265498E-1
1.203824161E1;-2.435315996E-1;-1.196114898E0;4.165897369E-1
1.205840261E1;-8.721119165E-1;-2.320106983E0;3.451184928E-1
1.207839161E1;-1.386460423E0;-2.882102966E0;6.914790869E-1
1.209826761E1;-1.561167955E0;-2.816129446E0;1.418408751E0
1.210861561E1;-1.443881750E0;-2.723888874E0;1.752552032E0
1.212065261E1;-9.246463180E-1;-2.692734718E0;2.152057886E0
1.213823761E1;-6.540330052E-1;-2.745269060E0;2.231470346E0
1.214831461E1;-5.135340691E-1;-2.704952002E0;2.018889189E0
1.216032961E1;-4.261803329E-1;-3.116064310E0;3.561140597E-1
1.217346111E1;-1.289332867E0;-2.927917957E0;-3.683721125E-1
1.218827161E1;-2.247780561E0;-2.799636126E0;-2.003841549E-1
1.219836661E1;-3.006475210E0;-2.800857782E0;-9.042841941E-2
1.220900161E1;-3.230662823E0;-2.912646294E0;-1.026457250E-1
1.223041961E1;-2.221513271E0;-3.718988419E0;-2.229861766E-1
1.224834761E1;-6.467026472E-1;-4.017090321E0;-1.834631711E-2
1.225840261E1;-6.638067961E-2;-3.384234190E0;2.437148690E-1
1.227821761E1;3.984877467E-1;-1.675033212E0;4.782871008E-1
1.229822361E1;2.121738642E-1;-1.094711304E0;3.927659690E-1
1.231818361E1;1.211549491E-1;-6.414492130E-1;3.402315676E-1
1.232867161E1;7.045313716E-2;-7.477397919E-1;3.249599338E-1
1.234882361E1;-7.676538825E-2;-1.057448506E0;2.046194971E-1
1.236826861E1;-1.616756618E-1;-1.136860967E0;-3.323310614E-1
1.238847061E1;-1.659517139E-1;-8.045502305E-1;-7.336695194E-1
1.239848961E1;-1.305215359E-1;-5.760866404E-1;-9.438071847E-1
1.241822761E1;1.376483142E-1;-2.474411577E-1;-1.324376225E0
1.243838161E1;6.562729478E-1;2.256128937E-2;-1.703723431E0
1.245861561E1;1.217047215E0;-3.787771761E-1;-1.939517498E0
1.247893961E1;1.254920840E0;-1.973502040E-1;-1.546731114E0
1.249824561E1;4.027638137E-1;8.496728539E-1;-4.155919701E-2
1.250847761E1;-1.024217308E-1;4.721581042E-1;4.941696227E-1
1.251865161E1;-5.972225666E-1;-7.281920910E-1;7.879958153E-1
1.253815961E1;-1.764586091E0;-2.105693340E0;8.661865592E-1
1.254838761E1;-1.095688581E0;-1.857071042E0;4.190331697E-1
1.255851461E1;-2.013819069E-1;-4.050443769E-1;9.038769454E-2
1.257831461E1;7.143051028E-1;-5.773084164E-1;-1.423519552E-1
1.259818961E1;1.479719281E0;-2.865365446E-1;3.170186877E-1
1.260819561E1;1.003855228E0;-5.913583040E-1;5.766364336E-1
1.262878361E1;4.418591857E-1;5.656204820E-1;3.884899318E-1
1.264828761E1;1.328835607E0;-3.616729677E-1;-2.229861766E-1
1.266838261E1;1.279355526E0;-4.294790030E-1;-3.476026952E-1
1.268829261E1;1.055167913E0;-3.738902509E-1;-4.172413349E-1
1.270837761E1;8.841256499E-1;1.642820239E-1;-4.477846026E-1
1.272827361E1;8.627453446E-1;4.477235079E-1;-6.127182245E-1
1.273868561E1;9.849184752E-1;3.188309371E-1;-9.065443873E-1
1.274885661E1;6.794857979E-1;1.069584370E0;-1.067201853E0
1.276820761E1;2.506583631E-1;2.338351488E0;-7.745975256E-1
1.277960061E1;3.135775402E-2;3.037792206E0;-7.153435946E-1
1.279823461E1;-8.470664620E-1;4.426289082E0;-7.654345036E-1
1.280843961E1;-1.044375896E0;4.929642200E0;-8.949379325E-1
1.281887261E1;-7.823147178E-1;4.680408955E0;-1.062925816E0
1.283822961E1;-2.471967936E-1;3.880175352E0;-9.242594838E-1
1.284868161E1;-1.482366323E-1;3.765943527E0;-7.355021238E-1
1.286009161E1;-1.354084611E-1;3.842912436E0;-5.485773683E-1
1.287818761E1;8.633562922E-2;3.473949909E0;-2.022167593E-1
1.288848361E1;1.950696409E-1;3.192341089E0;-1.564018577E-1
1.290846461E1;3.887139261E-1;2.520389318E0;-1.845016629E-1
1.292849961E1;5.988515615E-1;1.887532830E0;-3.078964651E-1
1.293887561E1;6.300057173E-1;1.366464853E0;-4.813821912E-1
1.295833461E1;5.567018986E-1;1.269337296E0;-4.746626616E-1
1.296949461E1;5.548692942E-1;1.362799644E0;-4.392324984E-1
1.298831561E1;5.481497645E-1;1.625471711E0;-2.584163845E-1
1.300959461E1;4.650720656E-1;1.572326422E0;-3.685551696E-3
1.302928761E1;-2.343686223E-1;1.974886656E0;1.429221034E-1
1.304840661E1;-7.694865465E-1;2.218010902E0;-4.217006266E-2
1.306891661E1;-6.784676313E-1;1.465425014E0;-3.543222249E-1
1.308816561E1;-4.109086990E-1;8.796052337E-1;-7.515678555E-2
1.309824761E1;-2.484185249E-1;9.144245386E-1;1.960673779E-1
1.310842261E1;-8.837182820E-2;8.906008005E-1;3.982637525E-1
1.312870561E1;3.441208228E-2;3.966551274E-2;7.397374511E-1
1.314849761E1;-7.248933911E-1;-2.057434797E0;6.432207227E-1
1.316834261E1;-1.333926082E0;-3.262061119E0;8.411410451E-1
1.317861861E1;-1.476257682E0;-3.546724319E0;1.166732311E0
1.318864661E1;-1.398677707E0;-3.668897390E0;1.469110608E0
1.320825861E1;-9.845111370E-1;-3.424551249E0;1.802032113E0
1.322820161E1;-6.943501234E-1;-2.658526182E0;1.778208375E0
1.323843561E1;-6.583091021E-1;-2.591942072E0;1.509427667E0
1.325837561E1;-4.066326320E-1;-3.478307486E0;2.143933475E-1
1.326855361E1;-5.245296359E-1;-3.714712381E0;-2.785749137E-1
1.328825261E1;-1.800627112E0;-3.317039013E0;-1.564018577E-1
1.330836461E1;-3.038851023E0;-2.838120699E0;-4.705698416E-2
1.331852161E1;-3.109100580E0;-2.693345547E0;8.244644850E-2
1.333824261E1;-8.403469324E-1;-3.456927061E0;5.068145692E-2
1.335858861E1;3.752748668E-1;-2.848505259E0;2.253889143E-1
1.337826961E1;5.218825936E-1;-1.664648533E0;6.474967599E-1
1.338876361E1;7.411831617E-2;-1.117313266E0;6.273382306E-1
1.340931661E1;-5.123122931E-1;-1.875763535E-1;4.685132802E-1
1.342827161E1;-2.557489276E-1;-5.382130146E-1;2.461583316E-1
1.343834861E1;-8.715009689E-2;-9.377188683E-1;7.878125459E-2
1.345847961E1;4.601852223E-2;-1.153354287E0;-3.103399277E-1
1.346885361E1;-2.850698307E-3;-9.810903072E-1;-5.082602501E-1
1.348820961E1;9.855294228E-2;-5.815844536E-1;-8.937162161E-1
1.349821761E1;2.726495266E-1;-3.219667077E-1;-1.068423629E0
1.350949661E1;7.320201993E-1;-8.372925967E-2;-1.444716573E0
1.352821761E1;1.022792101E0;1.874949038E-1;-1.611482859E0
1.353823361E1;1.546303630E0;-3.852523491E-2;-1.792909861E0
1.354824861E1;1.590896726E0;-1.442049295E-1;-1.775805593E0
1.355868461E1;1.421076179E0;6.532185525E-2;-1.615148067E0
1.357826861E1;3.954334259E-1;1.029267192E0;-5.253644586E-1
1.358832161E1;-2.924008369E-1;7.830885053E-1;-2.995275706E-2
1.360843061E1;-1.419447184E0;-1.400143862E0;6.792618036E-1
1.361865461E1;-1.764586091E0;-2.042163134E0;8.154847026E-1
1.363824561E1;-1.384016991E0;-1.883949161E0;5.882428288E-1
1.365884361E1;5.176064968E-1;1.874949038E-1;-1.771712750E-1
1.367831061E1;1.105258822E0;-1.032402992E0;-2.144340575E-1
1.368854361E1;8.835147619E-1;-4.752939045E-1;6.106616557E-2
1.370882461E1;4.711807072E-1;-3.561751544E-1;2.486017942E-1
1.372869861E1;1.127250075E0;-1.470149122E-2;-7.210245728E-2
1.374847461E1;9.641489983E-1;-5.807292461E-2;-2.810183764E-1
1.375978561E1;9.384926558E-1;-4.184834361E-1;-4.166304767E-1
1.377819961E1;1.340441942E0;-4.221486151E-1;-5.424687266E-1
1.378838461E1;1.501710415E0;-1.057204083E-1;-4.312912524E-1
1.380877261E1;9.775880575E-1;2.033773959E-1;-4.245717227E-1
1.382825761E1;3.526728749E-1;4.727689624E-1;-8.790554404E-1
1.384857061E1;2.146173269E-1;2.245499849E0;-8.625621200E-1
1.385870261E1;2.188933939E-1;3.073833227E0;-7.770409584E-1
1.386918261E1;3.196861967E-2;3.955311775E0;-7.312260866E-1
1.389022661E1;-7.340563536E-1;5.489805698E0;-1.277339578E0
1.390822761E1;-8.488990664E-1;5.379239082E0;-1.378132343E0
1.391830061E1;-7.230607867E-1;5.288219929E0;-1.175935864E0
1.392860361E1;-4.939863682E-1;4.737830162E0;-7.110674977E-1
1.394827961E1;1.791872084E-2;3.392093897E0;-5.552968979E-1
1.396869561E1;1.871283948E-1;2.740300655E0;-3.390505910E-1
1.397908661E1;2.848668098E-1;2.440976858E0;-2.895705104E-1
1.400010061E1;5.231043100E-1;1.899750233E0;-4.074674845E-1
1.401828161E1;6.416121721E-1;1.391510248E0;-7.483302951E-1
1.402830461E1;5.005022883E-1;1.443433881E0;-7.843713760E-1
1.403844261E1;4.571308196E-1;1.455040336E0;-6.420397758E-1
1.405836461E1;6.617707014E-1;1.516737700E0;-1.386867762E-1
1.407828761E1;7.833328843E-1;1.486805320E0;2.119498849E-1
1.409826361E1;3.496185243E-1;1.709771037E0;4.758436382E-1
1.411819061E1;-4.927645624E-2;2.118439913E0;5.253237486E-1
1.412846961E1;-2.160426676E-1;1.860043883E0;8.916596323E-2
1.414825061E1;-1.464040279E-1;1.384179950E0;-2.260404974E-1
1.415988661E1;-1.598430574E-1;1.114788294E0;-2.773531973E-1
1.417822461E1;-2.270382345E-1;4.691037834E-1;-2.022167593E-1
1.418824361E1;-2.575815022E-1;1.453451961E-1;-7.821111381E-2
1.419828061E1;-3.278310299E-1;-1.765807867E-1;5.984443426E-2
1.420828561E1;-4.756604135E-1;-5.492085814E-1;2.327193022E-1
1.422829261E1;-9.790133238E-1;-1.387926579E0;6.444424391E-1
1.424822161E1;-1.412116766E0;-1.755667448E0;9.694227576E-1
1.426844061E1;-1.443881750E0;-1.878451347E0;1.418408751E0
1.427861361E1;-1.253291845E0;-2.053158760E0;1.678026557E0
1.429865161E1;-9.093747139E-1;-2.645087242E0;2.221085548E0
1.431859661E1;-8.696684837E-1;-2.453275442E0;1.364041805E0
1.433828461E1;-9.845111370E-1;-3.054367065E0;-2.492533773E-1
1.434846561E1;-1.357749820E0;-3.415999174E0;-5.033733249E-1
1.436817161E1;-2.677218914E0;-3.501520395E0;-2.254296392E-1
1.437817661E1;-3.111544132E0;-3.324980259E0;-2.565837801E-1
1.438831161E1;-3.200730324E0;-3.147829294E0;-2.339817435E-1
1.439942961E1;-2.832378626E0;-3.230296135E0;-6.293947995E-2
1.441817261E1;-1.024217367E0;-3.824667931E0;8.531752974E-3
1.442863061E1;-1.305215359E-1;-3.408668756E0;1.355917156E-1
1.444837661E1;8.700757623E-1;-2.226644516E0;4.972239435E-1
1.446853961E1;3.587815166E-1;-9.841446280E-1;6.707096696E-1
1.448870761E1;-3.968587816E-1;-4.893437922E-1;4.788979888E-1
1.449916461E1;-4.298455119E-1;-6.964271069E-1;4.141462743E-1
1.451820861E1;-1.769472957E-1;-1.434963226E0;6.717481464E-2
1.452824861E1;-1.769472957E-1;-1.376930952E0;-9.470447153E-2
1.453828661E1;-1.683951765E-1;-1.216273427E0;-2.486425191E-1
1.455827561E1;8.755736053E-2;-8.186001778E-1;-6.157725453E-1
1.457995461E1;3.502294123E-1;-2.956995070E-1;-9.651874900E-1
1.459855161E1;5.188282132E-1;3.554828465E-1;-1.323765278E0
1.460859361E1;6.355035305E-1;5.234707594E-1;-1.493585825E0
1.461872561E1;8.444194198E-1;3.463198543E-1;-1.649967313E0
1.463837461E1;9.336057305E-1;-1.509244442E-1;-1.696393132E0
1.466050261E1;2.689843178E-1;5.992180705E-1;-7.532172203E-1
1.467867861E1;-4.451171458E-1;9.036733210E-2;3.652770519E-1
1.469867961E1;-8.605054617E-1;-2.155784130E0;9.229969978E-1
1.470869061E1;-1.051095486E0;-2.252300978E0;8.069326282E-1
1.471950061E1;-7.774277925E-1;-2.232753277E0;5.021108985E-1
1.473890061E1;4.809545577E-1;-4.768821597E-2;-1.673974395E-1
1.474890461E1;6.684902310E-1;-7.544593215E-1;-2.168775201E-1
1.476823261E1;8.163195848E-1;-8.631933331E-1;4.866560921E-3
1.478819761E1;7.289658785E-1;-5.131675601E-1;5.088303685E-1
1.480849161E1;1.380148292E0;1.001411751E-1;7.206173986E-2
1.482823061E1;1.337998509E0;-1.653408632E-2;-1.985515654E-1
1.484870161E1;7.204137444E-1;4.483343661E-1;-3.708155751E-1
1.486826061E1;4.271984100E-1;7.448484004E-2;-3.195028901E-1
1.488875061E1;5.542584062E-1;-1.470149122E-2;-3.103399277E-1
1.490821761E1;6.947574019E-1;9.828414321E-1;-9.212051630E-1
1.491834261E1;8.853473663E-1;1.408003688E0;-1.100799441E0
1.493822861E1;6.501642466E-1;2.283984423E0;-9.181508422E-1
1.495818061E1;7.472918928E-2;3.420193672E0;-7.568824291E-1
1.496834061E1;-3.339396715E-1;3.760445833E0;-7.422216535E-1
1.498829761E1;-7.053456903E-1;4.650476456E0;-1.197927117E0
1.499830961E1;-7.255042791E-1;4.860614300E0;-1.328041315E0
1.500842361E1;-6.314310431E-1;4.797084332E0;-1.164329529E0
1.501853961E1;-4.542801380E-1;4.580838203E0;-8.729467988E-1
1.503812861E1;-1.103629768E-1;4.117191315E0;-5.388035178E-1
1.504827461E1;2.708169818E-2;3.878342628E0;-4.520606697E-1
1.506819461E1;3.319034576E-1;3.225938559E0;-3.280550241E-1
1.507828761E1;5.780821443E-1;2.739689827E0;-2.260404974E-1
1.508850161E1;7.851654887E-1;2.290704012E0;-1.612887830E-1
1.510824261E1;1.163291097E0;1.561941743E0;-6.750264764E-1
1.511989161E1;1.080213428E0;1.549113512E0;-8.136928678E-1
1.513907761E1;7.918850183E-1;1.585154533E0;-5.943922400E-1
1.515830361E1;8.987864256E-1;1.431827426E0;-1.484606117E-1
1.517819861E1;6.361143589E-1;1.516737700E0;3.322903216E-1
1.518822761E1;2.298889607E-1;1.510629058E0;4.379700124E-1
1.520026361E1;-2.551380396E-1;1.594317555E0;3.988746405E-1
1.521829761E1;-5.978334546E-1;1.364021420E0;-9.898053110E-2
1.523818861E1;-3.938044608E-1;1.086688519E0;-4.667214155E-1
1.524853761E1;-3.730350435E-1;1.188092113E0;-4.154087305E-1
1.525855861E1;-2.117666155E-1;1.011552095E0;-2.523077130E-1
1.527827461E1;-1.628973931E-1;3.505959213E-1;1.954565197E-1
1.529822861E1;-7.963646054E-1;-1.489330173E0;5.271563530E-1
1.530857861E1;-1.169603348E0;-2.086145639E0;5.583104491E-1
1.532823861E1;-1.681508422E0;-2.679295778E0;8.637430668E-1
1.534820161E1;-1.607593656E0;-2.717169285E0;1.508816838E0
1.536824561E1;-1.093855977E0;-2.791084051E0;2.186266184E0
1.538813061E1;-1.026660919E0;-2.130738735E0;2.199705362E0
1.539813961E1;-9.674069285E-1;-1.857681990E0;1.731782675E0
1.540821861E1;-8.495098948E-1;-1.959696412E0;9.669793248E-1
1.541858161E1;-8.256861567E-1;-2.481986284E0;1.594154686E-1
1.543810961E1;-1.492751002E0;-3.202807188E0;-1.576235890E-1
1.544819461E1;-2.175087690E0;-3.335365057E0;-1.887777150E-1
1.546825761E1;-2.820772171E0;-3.081855774E0;-1.582344621E-1
1.547826561E1;-2.637512684E0;-3.024434566E0;-5.255477130E-2
1.549889661E1;-7.395541668E-1;-3.026878119E0;1.991217136E-1
1.551819361E1;5.817473531E-1;-2.582168102E0;4.825631678E-1
1.552829461E1;8.737409711E-1;-2.000013590E0;5.631973743E-1
1.554865861E1;7.491244078E-1;-7.691200972E-1;4.251418412E-1
1.556821261E1;1.883501261E-1;-6.768794060E-1;3.072448373E-1
1.557825661E1;1.791872084E-2;-7.636222839E-1;2.602082193E-1
1.558827061E1;1.425359398E-3;-8.986235261E-1;1.612480581E-1
1.560841161E1;-4.133521020E-2;-1.241318941E0;-1.264694631E-1
1.562868661E1;-2.404772788E-1;-1.309124947E0;-4.581693113E-1
1.564814461E1;-3.040072620E-1;-8.802975416E-1;-7.868148088E-1
1.565819761E1;-2.337577641E-1;-5.107240677E-1;-9.865677953E-1
1.567816561E1;2.463823110E-1;1.068606973E-1;-1.375077963E0
1.568821861E1;5.957972407E-1;2.027665377E-1;-1.690284491E0
1.570821561E1;1.282409787E0;-1.409062557E-2;-1.687840939E0
1.571821561E1;1.115032673E0;3.328808248E-1;-1.285280824E0
1.572824161E1;7.136942744E-1;8.673878908E-1;-6.084421873E-1
1.574835661E1;-3.003420830E-1;4.281758070E-1;5.943515301E-1
1.576881661E1;-1.418225408E0;-1.474669456E0;9.168883562E-1
1.578829961E1;-1.662571549E0;-2.304224491E0;8.301454782E-1
1.580822261E1;3.630575836E-1;-3.427361250E-1;-4.094833136E-2
1.582823061E1;7.344636917E-1;-1.046452880E0;-1.735060960E-1
1.583827461E1;8.865691423E-1;-5.272174478E-1;4.884885997E-2
1.585817661E1;5.371541977E-1;-2.987538278E-1;7.043072581E-1
1.586856661E1;3.685553670E-1;1.410691440E-1;7.556199431E-1
1.588857861E1;1.345328927E0;-1.228246391E-1;-5.866342038E-2
1.590856261E1;9.867509604E-1;3.017266989E-1;-2.834618390E-1
1.592836761E1;8.083783388E-1;-1.985719353E-1;-5.552968979E-1
1.594827361E1;1.022181153E0;-8.556185663E-2;-3.689829707E-1
1.595836561E1;8.853473663E-1;2.449162304E-1;-3.989153802E-1
1.597819261E1;7.277441621E-1;5.008687973E-1;-7.562715411E-1
1.598832061E1;5.750278234E-1;9.938369989E-1;-8.650055528E-1
1.599866461E1;4.137593806E-1;1.459927201E0;-8.161363602E-1
1.601065361E1;2.195042521E-1;1.951673746E0;-6.921306849E-1
1.602846261E1;-3.376048505E-1;3.801984549E0;-6.169942617E-1
1.604823161E1;-6.265441179E-1;5.732318878E0;-7.636019588E-1
1.605896361E1;-7.529932261E-1;5.071973801E0;-1.020165324E0
1.607823361E1;-6.766350269E-1;4.564955711E0;-1.062925816E0
1.608823361E1;-5.526294112E-1;4.676743984E0;-6.108856201E-1
1.609823561E1;-2.331468910E-1;4.216762066E0;-4.245717227E-1
1.610824561E1;2.317215651E-1;3.447071791E0;-2.657467425E-1
1.612820861E1;6.245079041E-1;2.509393692E0;-1.014239937E-1
1.613881361E1;6.440556049E-1;2.353012085E0;-1.270803362E-1
1.615834561E1;9.513208270E-1;1.571104646E0;-2.345926166E-1
1.617908361E1;1.009963870E0;1.130670786E0;-3.561547995E-1
1.619821661E1;9.158906341E-1;9.406917691E-1;-6.237137914E-1
1.620831361E1;9.079493880E-1;9.761219025E-1;-6.365419626E-1
1.622821461E1;6.727662683E-1;1.459927201E0;-4.685540199E-1
1.624831161E1;6.220644712E-1;1.352414966E0;-2.486425191E-1
1.626833961E1;2.512692213E-1;1.619973898E0;4.212934151E-2
1.628845061E1;-4.145738780E-1;1.825835466E0;-1.912211776E-1
1.630822161E1;-3.876958191E-1;1.136779547E0;-3.726481795E-1
1.631892461E1;-4.316781163E-1;1.058588743E0;-3.170594275E-1
1.633851861E1;-1.445714384E-1;5.918877125E-1;2.869030461E-2
1.635831761E1;-9.936740994E-2;1.007520407E-1;4.043724239E-1
1.637824861E1;-2.514728606E-1;-1.235821128E0;5.088303685E-1
1.639829561E1;-7.963646054E-1;-2.549792290E0;4.850066304E-1
1.640836561E1;-1.039489031E0;-3.042149544E0;5.552561283E-1
1.642868061E1;-1.158607721E0;-3.795957327E0;1.011572480E0
1.643870561E1;-1.116458058E0;-3.870482922E0;1.354267955E0
1.645842161E1;-7.890342474E-1;-3.224187613E0;2.079364777E0
1.647820661E1;-7.474954128E-1;-1.492995381E0;1.811805964E0
1.649916861E1;-8.696684837E-1;-2.350039244E0;3.212947547E-1
1.651815761E1;-1.346143365E0;-3.099570990E0;-5.805255473E-2
1.652828761E1;-2.021149397E0;-2.985949993E0;-4.296417348E-3
1.654820861E1;-2.793283224E0;-3.103236198E0;-5.377650261E-2
1.656817561E1;-1.938682675E0;-3.888808966E0;2.869030461E-2
1.657822861E1;-1.272839546E0;-3.762970686E0;1.586213522E-2
1.659837961E1;2.647086978E-3;-3.192422390E0;4.520199001E-1
1.660950661E1;5.353215933E-1;-2.685404301E0;6.426098347E-1
1.662831561E1;3.783292174E-1;-1.464895606E0;9.120014310E-1
1.664832361E1;-5.642358661E-1;-6.487796307E-1;7.733350396E-1
1.665840561E1;-8.379034996E-1;-3.738902509E-1;7.898283601E-1
1.667819261E1;-8.287404478E-2;-8.454782367E-1;3.945985734E-1
1.668825561E1;-9.142616391E-2;-1.018353105E0;2.388279438E-1
1.670819161E1;-2.392555475E-1;-9.242798686E-1;-1.063109115E-1
1.672820961E1;-2.007710338E-1;-4.087095857E-1;-4.734409451E-1
1.673823161E1;-1.262454838E-1;-1.118290648E-1;-6.658635139E-1
1.674896761E1;-4.744385928E-2;1.978796124E-1;-8.613403440E-1
1.676820161E1;3.856595755E-1;6.273179054E-1;-1.298719883E0
1.677827361E1;7.381288409E-1;6.315939426E-1;-1.527794242E0
1.678917961E1;1.078991652E0;3.536502421E-1;-1.717773438E0
1.680835261E1;1.328224659E0;-2.895908654E-1;-1.736099362E0
1.682914461E1;1.024013758E0;2.717942894E-1;-9.407528639E-1
1.684820661E1;1.816306114E-1;2.827898860E-1;1.708386652E-2
1.685847361E1;-2.502511144E-1;-8.466999531E-1;3.292360008E-1
1.686864161E1;-1.126842737E0;-2.186327457E0;6.462750435E-1
1.688865261E1;-8.495098948E-1;-1.084326506E0;3.048013747E-1
1.690823661E1;2.372193485E-1;-2.474411577E-1;-9.898053110E-2
1.692879961E1;5.548692942E-1;7.692829520E-2;-3.176703155E-1
1.693886861E1;1.172454000E0;2.772921026E-1;-6.232861429E-2
1.695866861E1;7.796676755E-1;-8.106589317E-1;2.669277489E-1
1.697826361E1;8.376998901E-1;7.067303658E-1;-1.895718277E-2
1.698890461E1;8.908451796E-1;1.728341281E-1;-1.790038794E-1
1.700861661E1;8.096001148E-1;-2.297260612E-1;-3.280550241E-1
1.701887561E1;8.590801954E-1;-1.295441538E-1;-4.520606697E-1
1.703814861E1;1.078380823E0;-3.241658211E-2;-5.864509940E-1
1.705888061E1;8.627453446E-1;2.314772010E-1;-2.156557888E-1
1.706928961E1;4.736241996E-1;7.152824998E-1;-6.933524013E-1
1.708832961E1;7.479026914E-1;1.491081357E0;-1.117292881E0
1.710854861E1;3.972660303E-1;2.597969055E0;-9.603005648E-1
1.712102261E1;5.395976827E-2;3.395148277E0;-9.010466337E-1
1.713898961E1;-5.550728440E-1;5.014552116E0;-9.144856334E-1
1.715872961E1;-7.963646054E-1;5.024937153E0;-1.091636539E0
1.718007361E1;-5.159775019E-1;4.838623047E0;-8.888292909E-1
1.719820561E1;-4.145738780E-1;4.731111050E0;-5.589620471E-1
1.721845561E1;2.402736694E-1;3.517321348E0;-3.439375162E-1
1.722891161E1;4.088724554E-1;3.035348654E0;-2.742988765E-1
1.724818161E1;5.518149734E-1;2.529552221E0;-2.840727270E-1
1.725828461E1;8.822930455E-1;1.353025794E0;-4.111326933E-1
1.726850461E1;9.464339018E-1;8.765509129E-1;-5.607946515E-1
1.728822761E1;8.688540459E-1;7.146716118E-1;-6.872437596E-1
1.730840861E1;1.062498331E0;8.521162868E-1;-5.033733249E-1
1.732835361E1;1.160236716E0;9.571850896E-1;-2.950682938E-1
1.733853461E1;1.018516064E0;1.048814893E0;-2.162666619E-1
1.735836361E1;5.395976305E-1;1.426940441E0;7.920887321E-3
1.736851861E1;2.750929892E-1;1.638910770E0;7.389432937E-2
1.738842261E1;-3.131702542E-1;1.470311880E0;2.991203591E-2
1.739892161E1;-4.316781163E-1;1.158159733E0;-2.017891407E-2
1.741821061E1;-4.878777266E-1;5.198056102E-1;-9.287187457E-2
1.742830861E1;-5.361360312E-1;2.125403732E-1;-7.515678555E-2
1.743851561E1;-5.703445077E-1;-1.515353173E-1;1.201369800E-3
1.745907761E1;-7.212281823E-1;-1.832025647E0;3.377881050E-1
1.747822761E1;-1.128064513E0;-2.813686132E0;6.383337975E-1
1.748863161E1;-1.292387247E0;-3.119729519E0;8.759604096E-1
1.750831061E1;-1.303382754E0;-3.099570990E0;1.578455448E0
1.752847861E1;-8.782205582E-1;-2.729386568E0;2.323710918E0
1.754817261E1;-8.562294245E-1;-1.895555615E0;2.662741184E0
1.755828661E1;-8.971573710E-1;-1.675644040E0;2.155112267E0
1.756872061E1;-9.185376763E-1;-1.778880358E0;1.170397520E0
1.758821661E1;-1.328428268E0;-2.993280411E0;-4.648888409E-1
1.760827461E1;-2.489683151E0;-3.755640268E0;-2.235970348E-1
1.762834961E1;-3.263649464E0;-3.817948580E0;-1.509040743E-1
1.764820361E1;-2.505565643E0;-3.767857552E0;5.251405016E-2
1.765850561E1;-6.363179684E-1;-3.520457029E0;4.831740260E-1
1.767855661E1;5.273803473E-1;-2.255966187E0;8.588561416E-1
1.768885761E1;4.485787153E-1;-1.512543082E0;9.455990195E-1
1.770843161E1;-4.072434455E-2;-6.622186303E-1;8.032674193E-1
1.772834461E1;-5.721770599E-2;-1.735264659E-1;7.482895255E-1
1.773846661E1;1.119920239E-2;-4.691852331E-1;6.865921617E-1
1.775837861E1;6.617707014E-2;-1.118535042E0;3.383989632E-1
1.777823261E1;-1.995492540E-2;-1.147245646E0;-5.438736826E-2
1.778836361E1;-9.814567864E-2;-8.992343545E-1;-2.400904149E-1
1.780851561E1;4.785111919E-2;-2.963103652E-1;-6.591439843E-1
1.782845661E1;3.612249792E-1;2.204816192E-1;-1.084916949E0
1.783858561E1;7.601200342E-1;5.918877125E-1;-1.473427296E0
1.785848961E1;1.251255631E0;7.204137743E-2;-1.771529555E0
1.787903161E1;8.645779490E-1;2.559117973E-1;-1.531459451E0
1.789821561E1;-1.433497071E-1;1.025601983E0;-3.243898153E-1
1.790838061E1;-4.860451221E-1;4.489452243E-1;7.022914290E-2
1.792820661E1;-6.711372733E-1;-1.972524643E0;5.509800911E-1
1.793852761E1;-7.529932261E-1;-1.856460214E0;6.059579253E-1
1.795824961E1;-6.607525349E-1;-2.092254162E0;3.066339791E-1
1.796836761E1;1.071050465E-1;-1.449623942E0;4.518366605E-2
1.797855661E1;8.566367030E-1;-6.878749728E-1;-2.009950280E-1
1.798883461E1;1.064941764E0;-2.040697187E-1;-3.445483744E-1
1.800846461E1;7.747807503E-1;-3.354057372E-1;3.479895741E-2
1.802841361E1;3.031927645E-1;-6.054081917E-1;5.277671814E-1
1.804818461E1;1.604335785E0;-2.034588605E-1;-2.028276175E-1
1.805834261E1;1.737504363E0;-5.938017368E-1;-4.367890358E-1
1.807857261E1;1.233540535E0;-3.109711409E-1;-4.294586480E-1
1.808863461E1;8.480846286E-1;-2.938669026E-1;-4.215174019E-1
1.810840261E1;4.950044453E-1;-1.216029078E-1;-4.282369018E-1
1.811845961E1;1.645263880E-1;-7.151195407E-2;-3.372179866E-1
1.813822061E1;1.663589776E-1;1.068362594E0;-7.428325415E-1
1.814822961E1;7.784459591E-1;1.534452796E0;-9.945090413E-1
1.815969961E1;1.146186829E0;1.584543705E0;-1.031160831E0
1.817823561E1;7.057530284E-1;1.987714767E0;-8.979923129E-1
1.818858561E1;2.140064687E-1;2.492289543E0;-9.102095962E-1
1.819859861E1;-1.977167130E-1;3.191119194E0;-8.882184625E-1
1.820872661E1;-5.593489408E-1;3.916216373E0;-9.004357457E-1
1.822818061E1;-9.081529975E-1;5.097630024E0;-1.301774144E0
1.823824761E1;-4.854342639E-1;4.570453167E0;-1.158220768E0
1.825841861E1;-9.814567864E-2;4.052439690E0;-8.485121727E-1
1.827819361E1;3.752748668E-1;3.215553999E0;-6.603657007E-1
1.828832461E1;5.176064968E-1;2.801387310E0;-5.986683369E-1
1.830937461E1;8.199847937E-1;2.307808161E0;-4.202956557E-1
1.832819861E1;1.149852037E0;1.639521599E0;-5.003190041E-1
1.834832961E1;1.187114835E0;9.791762829E-1;-9.603005648E-1
1.835837061E1;1.051502705E0;1.150218487E0;-1.001839280E0
1.837817061E1;1.082046032E0;1.235739708E0;-6.231029034E-1
1.838883561E1;1.058222294E0;1.128227353E0;-4.062457681E-1
1.840830661E1;5.493714809E-1;1.189313889E0;-3.074687906E-3
1.842820261E1;-1.109738499E-1;1.662123561E0;2.168367952E-1
1.844820661E1;-5.373577476E-1;1.172820568E0;-4.355672896E-1
1.845836961E1;-5.037602186E-1;1.117231846E0;-4.874908328E-1
1.846857061E1;-3.650937974E-1;1.016439080E0;-4.514497817E-1
1.848867161E1;-5.538510904E-2;6.902369857E-1;-1.173064858E-1
1.850839961E1;-4.133521020E-2;1.538973153E-1;2.400496751E-1
1.852827361E1;-2.032144964E-1;-1.102652550E0;2.699820697E-1
1.854823461E1;-6.735807061E-1;-2.438614845E0;3.506162763E-1
1.855863061E1;-8.996008635E-1;-2.830179453E0;4.966130555E-1
1.857818261E1;-1.172046781E0;-3.124005556E0;1.048224449E0
1.858828461E1;-1.156164289E0;-3.180816174E0;1.416576147E0
1.860827261E1;-8.379034996E-1;-3.154548883E0;2.097690821E0
1.862818861E1;-8.495098948E-1;-2.386691332E0;2.726881981E0
1.863854561E1;-1.034602046E0;-1.677476645E0;2.033550024E0
1.865829461E1;-1.206255198E0;-2.386080265E0;3.479895741E-2
1.867814161E1;-2.044973373E0;-3.413555622E0;-4.019697011E-1
1.869825061E1;-3.212947607E0;-3.246178627E0;-1.618996561E-1
1.870832461E1;-3.254486561E0;-3.174096584E0;-1.570127308E-1
1.872826161E1;-2.093842506E0;-3.544280767E0;3.174463287E-2
1.874837061E1;-3.369939923E-1;-3.109955788E0;4.764545262E-1
1.875839261E1;3.795509338E-1;-2.565674782E0;7.824980021E-1
1.876886461E1;5.994624496E-1;-1.567520976E0;9.755313993E-1
1.878838961E1;1.278744638E-1;-6.964271069E-1;8.710734844E-1
1.880843861E1;-2.655227482E-1;-3.641164303E-1;8.026565313E-1
1.882844261E1;1.730784923E-1;-9.566556811E-1;4.281961620E-1
1.884839761E1;1.608611941E-1;-1.113037229E0;-1.242090948E-3
1.886845561E1;-7.126756012E-3;-7.630113959E-1;-3.793676794E-1
1.888845661E1;5.945755914E-2;-1.606982946E-1;-7.568824291E-1
1.890841261E1;3.343469203E-1;2.852333486E-1;-1.166772962E0
1.892826061E1;9.067276716E-1;5.112534761E-1;-1.624310970E0
1.894825461E1;1.363654852E0;-5.990552157E-2;-1.940739155E0
1.895866761E1;1.321505189E0;-2.126218379E-1;-1.863770127E0
1.897816661E1;6.012950540E-1;5.283576846E-1;-7.721540332E-1
1.899822461E1;-3.424917758E-1;-6.149377674E-3;4.941696227E-1
1.900831661E1;-8.177449107E-1;-1.075774431E0;9.034492970E-1
1.902840361E1;-1.165938139E0;-1.802704096E0;7.898283601E-1
1.904819161E1;1.162680238E-1;-1.997936666E-1;6.839654595E-2
1.905829061E1;2.854776978E-1;-7.306355834E-1;-1.002022624E-1
1.907824961E1;1.292183638E0;-3.464013338E-1;9.283115715E-2
1.908876261E1;1.337387681E0;-7.159748077E-1;3.866573274E-1
1.910830261E1;5.548692942E-1;6.590828896E-1;4.459112585E-1
1.913091461E1;7.643960714E-1;-4.478049576E-1;4.274020717E-2
1.914828861E1;8.468628526E-1;-1.225803047E-2;-3.335528076E-1
1.916868561E1;6.269513965E-1;1.923818290E-1;-5.449121594E-1
1.919073361E1;5.573127270E-1;1.655037552E-1;-3.402723074E-1
1.920840061E1;5.151630640E-1;3.988542855E-1;-5.320839882E-1
1.921862161E1;7.686721087E-1;9.406917691E-1;-1.087971330E0
1.923817461E1;8.010479808E-1;1.316984773E0;-1.197316170E0
1.924829861E1;4.858414829E-1;1.666399717E0;-1.110573292E0
1.926847661E1;-1.854993999E-1;3.028629065E0;-9.810699821E-1
1.928846261E1;-6.381505132E-1;4.260744572E0;-1.040934682E0
1.930835461E1;-8.153014779E-1;4.952244282E0;-1.136840582E0
1.932817161E1;-5.550728440E-1;4.809301376E0;-7.251174450E-1
1.933869561E1;-2.917899787E-1;4.415904522E0;-6.053878069E-1
1.935855161E1;-4.072429612E-3;3.833749533E0;-4.624453783E-1
1.937865961E1;2.604322135E-1;2.944940567E0;-3.366071284E-1
1.939818361E1;4.467461109E-1;2.194187164E0;-3.115616441E-1
1.940832261E1;5.567018986E-1;1.982827902E0;-3.842546046E-1
1.942838361E1;7.692829967E-1;1.489859581E0;-6.725829840E-1
1.944832661E1;7.894415259E-1;1.350582361E0;-5.009298921E-1
1.946832761E1;9.922487736E-1;1.326147676E0;-2.504751384E-1
1.947850161E1;1.126639128E0;1.410447121E0;-1.747278273E-1
1.949894861E1;8.816822171E-1;2.061018705E0;8.733336627E-2
1.951866361E1;4.052073136E-2;2.092172623E0;5.190318450E-2
1.953830461E1;-4.469497502E-1;1.222911477E0;-2.382578105E-1
1.955974561E1;-5.208644271E-1;8.545597196E-1;-2.089362741E-1
1.957845761E1;-5.092579722E-1;2.583552599E-1;5.129231885E-2
1.959825561E1;-4.347324371E-1;-1.007968307E0;1.563611478E-1
1.960891661E1;-7.224499583E-1;-2.345152378E0;4.000963569E-1
1.962821961E1;-1.132340550E0;-3.221744061E0;8.839016557E-1
1.963961861E1;-1.185485840E0;-3.467922688E0;1.295014024E0
1.965820861E1;-9.570221901E-1;-3.082466841E0;2.184433699E0
1.966842261E1;-8.684467077E-1;-2.541240215E0;2.456879616E0
1.968828361E1;-9.014334679E-1;-1.546140671E0;2.612650156E0
1.970901661E1;-1.099353790E0;-1.128919721E0;1.641374588E0
1.972836661E1;-1.201979160E0;-2.686015129E0;-2.445496991E-2
1.973925061E1;-1.377297521E0;-3.717155695E0;-3.463809788E-1
1.975821661E1;-2.111557722E0;-4.081231117E0;-9.775879979E-2
1.976834261E1;-2.557489157E0;-3.459981441E0;-1.345939655E-2
1.978817061E1;-2.596584558E0;-2.948687315E0;1.814066172E-1
1.979826361E1;-1.986330152E0;-3.034819365E0;3.396207094E-1
1.980829861E1;-4.616104960E-1;-2.819794655E0;5.192151070E-1
1.981853761E1;1.425352693E-2;-2.352482796E0;7.043072581E-1
1.983822861E1;1.297070682E-1;-9.511579275E-1;1.027454972E0
1.985819161E1;3.196861967E-2;-3.494556546E-1;7.537873387E-1
1.986877561E1;2.769256383E-2;-3.121928573E-1;6.584923863E-1
1.988820061E1;-1.537344158E-1;-6.066299081E-1;5.430388451E-1
1.989820761E1;-2.319251597E-1;-7.776721716E-1;4.031506777E-1
1.990827861E1;-2.129883319E-1;-8.919039965E-1;2.632625401E-1
1.992833861E1;-9.264789522E-2;-8.497542739E-1;-7.454591990E-2
1.994827061E1;9.549860656E-2;-4.343659282E-1;-4.453411400E-1
1.995838161E1;2.421062738E-1;-1.423723400E-1;-6.383745670E-1
1.997826261E1;5.102761388E-1;3.927456141E-1;-1.087971330E0
1.998830361E1;6.691011190E-1;7.220019698E-1;-1.296276331E0
2.000945261E1;1.717956662E0;8.609127998E-2;-1.877209187E0
2.002870061E1;1.535918832E0;1.400917582E-2;-1.588880777E0
2.003947561E1;8.987864256E-1;5.204164386E-1;-8.466796279E-1
2.005819761E1;-4.041891694E-1;1.954361498E-1;4.367482662E-1
2.006820261E1;-1.026049972E0;-1.259644866E0;9.205535650E-1
2.007821361E1;-1.757255673E0;-2.643254757E0;1.142908573E0
2.009820661E1;-1.629584789E0;-2.284065962E0;1.021346331E0
2.010821861E1;-6.564764977E-1;-3.378491998E-1;3.671096265E-1
2.011828161E1;2.231694311E-1;7.274997830E-1;-1.834631711E-2
2.012874061E1;7.424049377E-1;-8.372925967E-2;-1.093652397E-1
2.014831061E1;1.252477407E0;-3.702250719E-1;-1.771712750E-1
2.015936161E1;1.053335309E0;-4.465832114E-1;9.405288845E-2
2.016960161E1;6.636033058E-1;-7.801156640E-1;3.530597389E-1
2.018829961E1;6.397795677E-1;4.061846435E-1;3.255707920E-1
2.020878861E1;1.115643620E0;1.217658073E-2;-1.130304337E-1
2.022845661E1;7.124724984E-1;1.936035454E-1;-2.235970348E-1
2.024819161E1;4.290310144E-1;2.162055671E-1;-1.832799315E-1
2.025865961E1;4.595742822E-1;7.195585370E-1;-2.425338477E-1
2.027818761E1;7.185811996E-1;1.127005696E0;-8.020864129E-1
2.028828061E1;8.975647092E-1;9.529090524E-1;-9.279246926E-1
2.030921061E1;8.346455693E-1;1.435492635E0;-9.431962967E-1
2.032827461E1;2.873102725E-1;2.324301481E0;-7.837604880E-1
2.033865161E1;-3.461569175E-2;2.957157850E0;-7.599367499E-1
2.035925761E1;-7.285585999E-1;4.161784649E0;-9.963416457E-1
2.037818561E1;-1.079806089E0;5.903972149E0;-1.296887279E0
2.039826461E1;-1.891645938E-1;4.652309418E0;-7.807061672E-1
2.040945761E1;-2.545271255E-2;4.266242504E0;-6.829677224E-1
2.042833961E1;2.592104673E-1;3.335894346E0;-4.923777580E-1
2.044817361E1;5.738061070E-1;2.524054527E0;-4.007479846E-1
2.045847061E1;7.668395042E-1;2.215567589E0;-3.970827758E-1
2.047824361E1;9.690359831E-1;1.687779903E0;-5.064276457E-1
2.049817161E1;9.018407464E-1;1.597371936E0;-5.284188390E-1
2.050829461E1;9.201667309E-1;1.626693368E0;-4.300695062E-1
2.052821461E1;1.097317576E0;1.426329613E0;-8.981755376E-2
2.054829361E1;1.094263315E0;1.339586735E0;2.205019891E-1
2.055904361E1;9.036733508E-1;1.449542522E0;3.292360008E-1
2.057817861E1;2.274454981E-1;1.911967516E0;4.141462743E-1
2.058856961E1;-3.143919706E-1;1.940678120E0;1.398677826E-1
2.060968361E1;-4.726060927E-1;1.196644306E0;-1.796147376E-1
2.062829761E1;-5.349143147E-1;3.756414056E-1;-2.016058862E-1
2.064968861E1;-4.054109156E-1;-8.418130279E-1;3.644830547E-3
2.066836361E1;-4.451171458E-1;-2.100195408E0;2.443257421E-1
2.068876461E1;-9.350310564E-1;-2.902872324E0;5.564778447E-1
2.071062561E1;-1.159829497E0;-3.222965717E0;1.130080342E0
2.072858961E1;-1.075530052E0;-2.960293770E0;1.831353664E0
2.074837161E1;-1.117068887E0;-2.538796663E0;2.228415966E0
2.075915561E1;-1.064534426E0;-2.230920553E0;2.218031168E0
2.077819461E1;-1.085303903E0;-1.848518968E0;1.301122665E0
2.078837961E1;-1.184874892E0;-3.370184183E0;-1.869451255E-1
2.080845861E1;-2.030923367E0;-4.060461998E0;-3.524896204E-1
2.082833761E1;-2.983262300E0;-3.448374987E0;-1.313563883E-1
2.084818061E1;-2.696766615E0;-3.227241755E0;-7.515678555E-2
2.085823461E1;-1.944180369E0;-3.368962526E0;1.258178800E-1
2.086828861E1;-1.088969111E0;-3.231517792E0;2.938058078E-1
2.087870261E1;-3.583742678E-1;-2.896152973E0;4.477438629E-1
2.089818761E1;1.144354343E-1;-1.692748308E0;6.175643802E-1
2.090841661E1;1.559742689E-1;-1.319509625E0;6.291708350E-1
2.092836561E1;4.149811268E-1;-8.448673487E-1;4.086484611E-1
2.094834361E1;4.217006266E-1;-1.084326506E0;3.707748353E-1
2.096833561E1;2.543235719E-1;-1.385483146E0;1.966782510E-1
2.097853061E1;1.584177315E-1;-1.343944311E0;3.724242002E-2
2.099847361E1;-3.522655740E-2;-8.723562956E-1;-4.990972877E-1
2.101836361E1;1.767436862E-1;-4.093204439E-1;-9.089878798E-1
2.103816461E1;3.819943964E-1;2.162055671E-1;-1.321321845E0
2.104827461E1;5.634214282E-1;4.574973285E-1;-1.507635713E0
2.106833061E1;1.084489465E0;1.685580760E-1;-1.788633704E0
2.107833861E1;1.248201370E0;-1.154942513E-1;-1.821009636E0
2.108841661E1;1.201164722E0;-3.547091037E-2;-1.669515014E0
2.110887261E1;3.038036525E-1;9.516873360E-1;-4.624453783E-1
2.111949761E1;-3.308853507E-1;7.635408044E-1;5.434664711E-2
2.113870461E1;-1.385849595E0;-1.350663781E0;8.545801044E-1
2.115828761E1;-1.960062981E0;-2.444723368E0;9.529294372E-1
2.116868661E1;-1.378519177E0;-2.437392950E0;1.698001772E-1
2.118082561E1;4.888958037E-1;-9.230580926E-1;-1.997732967E-1
2.119826261E1;8.022696972E-1;-7.037574649E-1;-1.582344621E-1
2.120858461E1;7.033095360E-1;-7.208617330E-1;-1.215825379E-1
2.122824761E1;5.499823689E-1;-5.766975284E-1;3.274033964E-1
2.124828261E1;1.212771177E0;4.821763188E-2;3.255707920E-1
2.126844161E1;1.576236010E0;-3.824423850E-1;8.000298589E-2
2.128820661E1;1.038063645E0;6.212092042E-1;-7.210245728E-2
2.130846261E1;3.758857548E-1;6.004397869E-1;9.405288845E-2
2.132839661E1;-2.850703895E-2;-4.157955945E-2;-3.744807839E-1
2.134881661E1;7.320201993E-1;4.458909035E-1;-8.460687399E-1
2.136855861E1;9.665924311E-1;8.258490562E-1;-9.633548856E-1
2.137885061E1;5.835799575E-1;1.506353021E0;-9.523593187E-1
2.139894661E1;3.502294794E-2;3.344446421E0;-7.526063323E-1
2.141821861E1;-4.762712717E-1;4.696291447E0;-8.613403440E-1
2.143820461E1;-8.501207829E-1;5.415890694E0;-1.078197479E0
2.145819361E1;-6.448700428E-1;5.056702137E0;-6.927415729E-1
2.146827261E1;-4.145738780E-1;4.575340271E0;-5.552968979E-1
2.148843661E1;-1.659517139E-1;3.940040112E0;-4.435085356E-1
2.150837061E1;3.868818283E-3;3.382320166E0;-3.170594275E-1
2.152818561E1;2.940298021E-1;2.521610975E0;-1.936646402E-1
2.153820661E1;4.785111248E-1;2.106833458E0;-2.260404974E-1
2.154821461E1;6.416121721E-1;1.813618183E0;-2.987334728E-1
2.155826661E1;8.096001148E-1;1.554000497E0;-3.781459630E-1
2.157857861E1;9.317731261E-1;1.425107837E0;-3.848654926E-1
2.159819061E1;1.018516064E0;1.269337296E0;-2.657467425E-1
2.160825161E1;1.062498331E0;1.340808511E0;-1.912211776E-1
2.161829061E1;1.088154674E0;1.381125569E0;-9.592620283E-2
2.162832561E1;9.641489983E-1;1.550946116E0;5.251405016E-2
2.164826361E1;3.123557568E-1;1.960836649E0;2.644842863E-1
2.166827861E1;-3.449352384E-1;1.308432579E0;-1.313563883E-1
2.167867361E1;-4.640539587E-1;9.724567533E-1;-3.347745240E-1
2.169820661E1;-4.884885848E-1;6.633589268E-1;-4.899343252E-1
2.170840161E1;-4.182390869E-1;4.721581042E-1;-3.769242167E-1
2.172818761E1;-3.284418881E-1;-1.631417572E-1;4.579453170E-2
2.173862661E1;-3.198897839E-1;-7.074226737E-1;2.571538985E-1
2.175849361E1;-6.106616259E-1;-1.946868300E0;5.699169040E-1
2.177830261E1;-1.241685390E0;-3.035430193E0;1.260805607E0
2.179819561E1;-1.189761877E0;-3.004276037E0;1.901603222E0
2.180844561E1;-1.018719554E0;-2.759929895E0;2.222918272E0
2.182819761E1;-9.160942435E-1;-2.038498163E0;2.559504986E0
2.183840561E1;-9.466375113E-1;-1.733065486E0;2.370747566E0
2.185861861E1;-1.056593180E0;-1.706187367E0;9.498750567E-1
2.187826261E1;-1.431053638E0;-3.117897034E0;-2.419229895E-1
2.188829461E1;-1.707775593E0;-3.665232182E0;-2.812016010E-2
2.189907461E1;-2.101172924E0;-3.871093750E0;1.952732727E-2
2.191852861E1;-2.880636930E0;-2.923030853E0;-2.242079079E-1
2.193818061E1;-2.337577820E0;-3.196698666E0;8.427904546E-2
2.194825461E1;-1.454877377E0;-3.428216457E0;3.548923433E-1
2.196859061E1;4.345287979E-1;-2.158227682E0;5.949623585E-1
2.198817161E1;2.500475049E-1;-1.110593796E0;7.018637657E-1
2.199819961E1;1.816306114E-1;-7.263594866E-1;5.900754333E-1
2.201818061E1;5.823582783E-2;-4.673526287E-1;4.984456599E-1
2.202826061E1;5.823582783E-2;-8.204327822E-1;4.501873255E-1
2.204830061E1;-7.493279874E-2;-1.221160412E0;2.296649665E-1
2.206013861E1;-1.396845132E-1;-1.182675838E0;7.022914290E-2
2.207823561E1;-1.787798852E-1;-9.853663445E-1;-3.127833903E-1
2.209820061E1;-7.981972396E-2;-4.026009142E-1;-6.872437596E-1
2.212129961E1;1.492547542E-1;1.068606973E-1;-1.053762913E0
2.214823561E1;8.981755376E-1;5.191947222E-1;-1.603541613E0
2.216824061E1;1.459560752E0;1.523090526E-2;-1.722660303E0
2.218028161E1;1.184060454E0;3.811391890E-1;-1.239465952E0
2.219837861E1;9.183341265E-2;8.777726293E-1;-2.201150730E-2
2.221815861E1;-1.016276121E0;-8.240979314E-1;6.419990063E-1
2.222874761E1;-1.519629121E0;-1.586457729E0;7.385157347E-1
2.224820261E1;-1.328428268E0;-2.023226500E0;5.821341872E-1
2.225823361E1;-3.602068722E-1;-7.446854711E-1;1.508633494E-1
2.227874761E1;6.306166053E-1;6.410012394E-2;-2.565837801E-1
2.228905561E1;6.825401187E-1;-5.440773070E-2;-1.142521650E-1
2.230823261E1;9.507099390E-1;-8.069937229E-1;3.756617606E-1
2.231854361E1;5.567018986E-1;-7.343007326E-1;4.642372131E-1
2.232866661E1;4.846197665E-1;1.710015386E-1;3.988746405E-1
2.234818461E1;1.216436386E0;1.972687393E-1;-1.185282171E-1
2.236823861E1;1.198721290E0;-5.033936501E-1;-5.021516085E-1
2.237857261E1;1.121141315E0;-4.826242626E-1;-5.290296674E-1
2.239828561E1;7.149159908E-1;-2.584367096E-1;-3.543222249E-1
2.240856461E1;3.355686367E-1;4.027637839E-2;-2.626924217E-1
2.242833961E1;2.976949811E-1;3.927456141E-1;-4.600019157E-1
2.244824161E1;9.555968642E-1;1.503909469E0;-1.072699666E0
2.245825161E1;8.700757623E-1;2.009094954E0;-9.609113932E-1
2.247889761E1;1.969022453E-1;2.604688644E0;-7.440542579E-1
2.249817461E1;-5.343034267E-1;4.418958664E0;-9.138748050E-1
2.250900761E1;-7.572692633E-1;5.351749897E0;-1.089193106E0
2.252947061E1;-5.324708819E-1;5.079915047E0;-1.045821667E0
2.254815561E1;-4.090760946E-1;4.914981365E0;-8.198015094E-1
2.255858561E1;-5.599597469E-2;4.237531662E0;-6.096639037E-1
2.257822661E1;2.915863395E-1;3.566190481E0;-3.512679040E-1
2.259816161E1;5.658648610E-1;2.953492641E0;-2.663576305E-1
2.260878561E1;7.680612803E-1;2.526497841E0;-2.871270478E-1
2.262827961E1;8.297586441E-1;1.749477386E0;-3.940284550E-1
2.264817361E1;6.892596483E-1;1.051869273E0;-5.088711381E-1
2.265817561E1;7.943284512E-1;8.191295862E-1;-4.502280653E-1
2.266892961E1;9.122254848E-1;8.435641527E-1;-3.836437464E-1
2.268822861E1;1.024624705E0;1.072638631E0;-2.541403174E-1
2.269868561E1;9.696468115E-1;1.042095423E0;-2.022167593E-1
2.271873361E1;4.491895735E-1;1.370740891E0;5.556837842E-2
2.273816961E1;-2.416990101E-1;1.724431872E0;1.038267314E-1
2.274821561E1;-4.726060927E-1;1.466035843E0;-1.979406923E-1
2.276015861E1;-4.151847363E-1;1.018882513E0;-3.036203980E-1
2.277823861E1;-3.712024391E-1;8.044688106E-1;-2.681902051E-1
2.279833161E1;-2.875139117E-1;2.882876694E-1;9.753482416E-3
2.281816461E1;-3.528764844E-1;-7.501832247E-1;2.699820697E-1
2.282821661E1;-5.440772772E-1;-1.425189376E0;3.848247230E-1
2.284820061E1;-1.082860470E0;-2.637145996E0;7.262983918E-1
2.285827261E1;-1.241685390E0;-3.049479961E0;9.669793248E-1
2.287820061E1;-1.280780792E0;-3.147829294E0;1.610831380E0
2.288840961E1;-1.181820631E0;-2.888822556E0;1.924816012E0
2.290883261E1;-1.032158613E0;-1.775215149E0;2.346923828E0
2.292823961E1;-9.441940188E-1;-1.011022687E0;2.212533474E0
2.294816761E1;-1.696779966E0;-1.840577722E0;3.663155437E-2
2.295816761E1;-2.106059790E0;-2.442280054E0;-1.991624236E-1
2.296823561E1;-2.507398367E0;-2.900429010E0;-8.187630028E-2
2.298833461E1;-2.874528408E0;-3.436157703E0;-1.179173589E-1
2.300821761E1;-2.185472250E0;-3.905302286E0;-4.400265962E-2
2.302829261E1;-4.787147343E-1;-3.896139145E0;2.815884948E-1
2.304833361E1;4.418591857E-1;-2.617598295E0;7.134702206E-1
2.306820161E1;-2.362011746E-2;-1.041566014E0;8.771821260E-1
2.307869361E1;-2.814052403E-1;-7.740070224E-1;7.171354294E-1
2.309822061E1;-1.445713826E-2;-1.448157877E-1;5.644190907E-1
2.311852161E1;1.663589776E-1;-1.097154737E0;4.324722290E-1
2.313846961E1;-3.046181500E-1;-1.232766747E0;2.746857516E-2
2.315905461E1;-2.618575692E-1;-9.120625257E-1;-3.781459630E-1
2.317824961E1;1.767436862E-1;-4.508592784E-1;-8.375166059E-1
2.319817061E1;5.603670478E-1;5.799147487E-2;-1.284059048E0
2.320830961E1;7.973827720E-1;2.785138190E-1;-1.479535937E0
2.321833761E1;1.124806523E0;2.406401783E-1;-1.651189089E0
2.323900961E1;1.610444427E0;-2.101783752E-1;-1.830172539E0
2.325818661E1;1.300735712E0;2.950071692E-1;-1.177157640E0
2.326833661E1;8.047131896E-1;1.144720793E0;-3.921958506E-1
2.328823861E1;-3.791437149E-1;1.465669274E-1;7.079724669E-1
2.329833961E1;-1.296663284E0;-1.570575237E0;1.057998300E0
2.330925261E1;-2.393777370E0;-2.914478779E0;1.141686797E0
2.332821561E1;-1.585602522E0;-9.597100019E-1;6.609358191E-1
2.334821261E1;1.072272182E0;-1.320731401E0;-4.496172071E-1
2.335823861E1;1.377704740E0;-1.036679029E0;-3.799785674E-1
2.336887161E1;1.189558268E0;-7.501832247E-1;-6.477207690E-2
2.338902961E1;5.457063392E-2;-6.601417065E-2;5.552561283E-1
2.340814561E1;1.044172406E0;1.813862473E-1;2.956384122E-1
2.341834061E1;1.722232819E0;-3.683924675E-1;-1.242090948E-3
2.343826261E1;1.599448800E0;-2.291152030E-1;-3.304984868E-1
2.345824961E1;9.158906341E-1;3.829717636E-1;-4.819930494E-1
2.346829461E1;7.393506169E-1;2.644639313E-1;-6.041660905E-1
2.348835361E1;6.391686797E-1;3.945782185E-1;-4.044131637E-1
2.349840261E1;5.395976305E-1;6.432003975E-1;-4.312912524E-1
2.351958561E1;7.955501676E-1;1.484361768E0;-6.689178348E-1
2.353816561E1;6.336709261E-1;2.352401257E0;-7.165653110E-1
2.354826761E1;2.549344301E-1;2.945551395E0;-7.006828189E-1
2.356833561E1;-7.933102846E-1;4.422624111E0;-8.063625097E-1
2.358832961E1;-1.007113218E0;5.280889511E0;-1.324376225E0
2.360860261E1;-4.408410788E-1;4.638870239E0;-1.092858195E0
2.362820961E1;-9.448048472E-2;4.269296646E0;-5.265862346E-1
2.364818761E1;1.498656124E-1;3.673091888E0;-2.969008982E-1
2.365822061E1;3.172426820E-1;3.197227955E0;-1.967189759E-1
2.367821561E1;6.513860226E-1;2.381112099E0;-1.380759031E-1
2.368833161E1;8.126544356E-1;2.017036200E0;-1.362433136E-1
2.369867361E1;9.476556182E-1;1.631580353E0;-2.199318558E-1
2.371873961E1;8.951212168E-1;1.061643124E0;-5.931705236E-1
2.373818561E1;8.499171734E-1;1.021325946E0;-4.575584531E-1
2.374822861E1;8.853473663E-1;1.170987964E0;-3.182811737E-1
2.375848561E1;1.034398556E0;1.122729540E0;-1.735060960E-1
2.376878261E1;1.052113652E0;1.259563446E0;-1.345939655E-2
2.378880761E1;5.872451663E-1;2.172196150E0;2.540995777E-1
2.380871461E1;-2.081014216E-1;2.433035612E0;-7.961609401E-3
2.382817761E1;-6.668611765E-1;1.779409766E0;-3.005660772E-1
2.383834261E1;-6.277658343E-1;1.483140111E0;-2.846835852E-1
2.384862161E1;-5.532402396E-1;1.128838301E0;-1.948863715E-1
2.385889961E1;-4.774930179E-1;7.470474839E-1;-2.995275706E-2
2.387820861E1;-3.864740729E-1;-1.332093477E-1;3.732182980E-1
2.388837561E1;-3.638720810E-1;-8.234871030E-1;5.448714495E-1
2.390869661E1;-7.328346372E-1;-2.042774200E0;6.523836851E-1
2.392002661E1;-1.338202119E0;-2.806355715E0;9.773640037E-1
2.393812261E1;-1.534289837E0;-2.697621584E0;1.496599555E0
2.394870461E1;-1.368134499E0;-2.536964178E0;1.772710681E0
2.395887961E1;-1.252681017E0;-2.344541550E0;2.059206247E0
2.397831561E1;-1.120734096E0;-2.148453712E0;2.255294085E0
2.398897961E1;-1.027882576E0;-2.075760841E0;1.888164163E0
2.400887761E1;-8.641706705E-1;-2.809410095E0;2.113390118E-1
2.402846861E1;-1.529402971E0;-3.688445091E0;-4.978755713E-1
2.404859861E1;-2.448755264E0;-3.872926474E0;-1.771712750E-1
2.406822461E1;-2.541606665E0;-3.282219648E0;-1.899994463E-1
2.407826661E1;-2.178752899E0;-3.236404896E0;-1.057000458E-1
2.408833361E1;-1.660738945E0;-3.367740870E0;-5.438736826E-2
2.410822461E1;-3.534873724E-1;-3.213191986E0;2.962492704E-1
2.412825061E1;1.462004185E-1;-1.808812737E0;4.434677958E-1
2.413832161E1;4.479683936E-3;-1.320731401E0;3.939877152E-1
2.415850161E1;-1.030326039E-1;-1.006135702E0;1.258178800E-1
2.418054361E1;7.717265189E-2;-1.296296835E0;1.219694410E-2
2.419822361E1;-1.409062445E-1;-1.185730219E0;-2.162666619E-1
2.420848561E1;-2.368120849E-1;-1.092878699E0;-3.634851873E-1
2.422906161E1;-2.826269865E-1;-8.192110062E-1;-6.634200215E-1
2.424838461E1;-6.943501532E-2;-3.421252668E-1;-1.016500115E0
2.426822861E1;3.636684418E-1;-3.913610056E-2;-1.384240985E0
2.427839161E1;6.330600381E-1;2.133955806E-2;-1.543065906E0
2.429824761E1;1.188947439E0;-3.030298948E-1;-1.808181405E0
2.430825561E1;1.357546210E0;-2.950886488E-1;-1.843611598E0
2.432830261E1;5.603670478E-1;1.079969049E0;-4.080783725E-1
2.433932861E1;1.608612388E-2;4.807102084E-1;7.511606067E-2
2.435828861E1;-1.208698630E0;-1.967026830E0;7.910501361E-1
2.437826061E1;-2.125607491E0;-3.067195177E0;8.564127088E-1
2.438842161E1;-1.556891918E0;-1.964583397E0;5.491474867E-1
2.440825261E1;4.174245894E-1;4.037412107E-1;-1.026457250E-1
2.442826561E1;8.499171734E-1;-5.620367527E-1;-1.472388804E-1
2.444828161E1;8.529715538E-1;-7.691200972E-1;2.125607431E-1
2.446820961E1;9.610946774E-1;-1.653408632E-2;1.930130571E-1
2.448824761E1;1.318450809E0;2.943963110E-1;-9.714793414E-2
2.450823761E1;1.148630261E0;-1.820785701E-1;-2.736880183E-1
2.451851361E1;1.095484972E0;-3.213558495E-1;-3.720373213E-1
2.453822361E1;5.524258018E-1;-6.662503630E-2;-2.407012731E-1
2.455822161E1;5.701415241E-3;4.141259193E-1;-2.370360643E-1
2.456828061E1;2.659299970E-1;3.957999349E-1;-5.278079510E-1
2.458822261E1;8.053240180E-1;1.682893038E0;-8.234667182E-1
2.460818161E1;5.615888238E-1;2.649892807E0;-6.634200215E-1
2.461833261E1;1.932370514E-1;2.987701178E0;-6.646417379E-1
2.463814161E1;-4.310672581E-1;4.957741737E0;-7.501628995E-1
2.464851461E1;-5.764531493E-1;5.878926754E0;-8.656164408E-1
2.466819961E1;-4.829908013E-1;5.021271706E0;-1.239465952E0
2.468847761E1;-1.934406459E-1;4.473325729E0;-9.041009545E-1
2.470839561E1;7.534004748E-2;3.845966816E0;-4.410650730E-1
2.472829661E1;5.041674972E-1;2.950438499E0;-1.276911944E-1
2.473837761E1;6.862053275E-1;2.517945766E0;-8.676322550E-2
2.475857761E1;8.609127998E-1;1.706716776E0;-3.121725023E-1
2.477834661E1;8.126544356E-1;1.162435889E0;-6.121073365E-1
2.479852061E1;8.792387247E-1;8.954877257E-1;-6.463158131E-1
2.481826261E1;9.146689177E-1;1.015217304E0;-4.960429668E-1
2.482886461E1;9.824749231E-1;1.005443454E0;-3.866980672E-1
2.484822761E1;9.397143722E-1;1.226576686E0;-4.033746570E-2
2.485825061E1;7.643960714E-1;1.524067998E0;1.417003721E-1
2.487821961E1;9.244428575E-2;2.036583900E0;4.701626301E-2
2.488869761E1;-2.209295928E-1;1.820337653E0;-1.875559837E-1
2.489971361E1;-5.049819350E-1;1.394564629E0;-4.496172071E-1
2.491832061E1;-4.310672581E-1;7.555995584E-1;-2.846835852E-1
2.493891361E1;-3.809762895E-1;1.148019433E-1;1.832392067E-1
2.495111161E1;-3.944153190E-1;-3.464013338E-1;3.377881050E-1
2.496834461E1;-6.283766627E-1;-1.659150720E0;5.650299788E-1
2.498867161E1;-1.076751828E0;-2.810020924E0;8.509148955E-1
2.500892661E1;-1.316210985E0;-2.954795837E0;1.379313350E0
2.502828861E1;-1.046819329E0;-2.584000826E0;1.964522362E0
2.504822761E1;-8.104145527E-1;-2.139290810E0;2.274230957E0
2.505901861E1;-8.269078732E-1;-1.764830470E0;2.219863892E0
2.507823061E1;-9.692394733E-1;-1.404419899E0;1.272411942E0
2.509821261E1;-1.035212994E0;-2.986560822E0;-7.760024816E-2
2.511821961E1;-2.577036858E0;-3.309097767E0;-8.004371077E-2
2.512837861E1;-2.870252371E0;-3.214413643E0;-2.022167593E-1
2.514821461E1;-2.137213945E0;-3.607810974E0;-3.361794725E-2
2.516820161E1;-5.911139250E-1;-3.846048355E0;-3.667227551E-2
2.517824861E1;-3.278309479E-2;-3.605367422E0;-3.074687906E-3
2.518848561E1;3.233513236E-1;-3.173485756E0;3.115209043E-1
2.520853461E1;2.097304165E-1;-1.458786964E0;6.743748784E-1
2.522821961E1;7.350745797E-2;-7.336899042E-1;5.986275673E-1
2.524828361E1;-3.192788959E-1;-6.823772192E-1;4.984456599E-1
2.525829761E1;-3.492113054E-1;-9.047321677E-1;4.330830872E-1
2.526842461E1;-2.759074569E-1;-1.127697945E0;3.127426207E-1
2.528813461E1;-1.738929600E-1;-1.142969608E0;-4.296417348E-3
2.529813561E1;-1.360193193E-1;-1.029959559E0;-3.543222249E-1
2.530814161E1;-7.615453005E-2;-5.296608806E-1;-5.406361222E-1
2.531828061E1;2.158391103E-2;-2.120109648E-1;-7.403890491E-1
2.532829161E1;1.303179264E-1;6.898704916E-2;-9.578570724E-1
2.534855661E1;4.577416778E-1;5.625661612E-1;-1.393403888E0
2.536857361E1;1.039285421E0;3.347134292E-1;-1.711053848E0
2.538815561E1;1.374650478E0;-2.142100781E-2;-1.729379773E0
2.539823261E1;1.212771177E0;3.603697717E-1;-1.402566910E0
2.540863261E1;7.607308626E-1;1.024380326E0;-6.835786104E-1
2.542848461E1;-3.779219687E-1;1.991013438E-1;5.216585398E-1
2.544816061E1;-1.603317618E0;-2.676852226E0;1.063496113E0
2.545851061E1;-2.108503342E0;-3.576045990E0;1.127636909E0
2.547834761E1;-6.949610114E-1;-5.681453943E-1;4.507981837E-1
2.549922461E1;1.058222294E0;-7.465180755E-1;-2.201150730E-2
2.551907361E1;9.500991106E-1;-7.795047760E-1;4.446895123E-1
2.553812161E1;4.766785204E-1;2.284228653E-1;4.917261600E-1
2.554823261E1;8.254826069E-1;5.595118403E-1;2.889188826E-1
2.556836961E1;1.454673767E0;-3.347948790E-1;-2.119905949E-1
2.558831861E1;1.159625888E0;3.200526536E-1;-3.103399277E-1
2.560889961E1;7.216355205E-1;2.540792227E-1;-5.186449885E-1
2.562828161E1;2.897537351E-1;3.084462285E-1;-3.616526127E-1
2.563926161E1;1.040507257E-1;4.843754172E-1;-3.463809788E-1
2.565841461E1;7.149159908E-1;1.183816075E0;-7.923126221E-1
2.567820061E1;1.101593733E0;1.706105947E0;-1.059871554E0
2.568847261E1;4.168137014E-1;2.156313658E0;-8.063625097E-1
2.570866361E1;-3.058398664E-1;4.010900497E0;-5.956140161E-1
2.572835161E1;-1.057814956E0;5.583878517E0;-9.474723935E-1
2.574823061E1;-8.776097298E-1;5.779966354E0;-1.208922625E0
2.575839161E1;-6.827436686E-1;5.426275253E0;-9.383093715E-1
2.577826161E1;-1.555670053E-1;4.571063995E0;-5.913379192E-1
2.578827161E1;3.624467924E-2;4.115969658E0;-4.838256538E-1
2.580838761E1;3.416772783E-1;3.416528702E0;-1.350215822E-1
2.582838761E1;8.578584790E-1;2.224730492E0;-2.064928114E-1
2.583872961E1;1.006298661E0;1.743368626E0;-2.223753035E-1
2.585831061E1;1.027068138E0;1.213748455E0;-4.948212504E-1
2.587823361E1;9.525425434E-1;8.625010252E-1;-5.510208011E-1
2.588873461E1;1.027068138E0;7.995818853E-1;-3.439375162E-1
2.590859361E1;1.111367583E0;8.350120783E-1;-1.008131281E-1
2.592879261E1;7.802785635E-1;1.321260810E0;2.339410335E-1
2.594830361E1;1.425359398E-3;2.059185982E0;1.972891092E-1
2.596039961E1;-2.917899787E-1;1.922963023E0;-8.431976289E-2
2.597826761E1;-4.084652364E-1;1.217413664E0;-5.119254589E-1
2.598832761E1;-3.620394766E-1;9.028180838E-1;-5.125362873E-1
2.600825561E1;-2.410881370E-1;3.903021514E-1;-1.985515654E-1
2.601827661E1;-2.783509195E-1;1.716123968E-1;4.029674456E-2
2.602832761E1;-3.302744925E-1;-2.303369343E-1;2.516561151E-1
2.604825161E1;-4.726060927E-1;-1.552249312E0;5.662516952E-1
2.606817461E1;-1.161662102E0;-2.425786734E0;7.849414945E-1
2.607819061E1;-1.384016991E0;-2.663413286E0;1.013405085E0
2.608851961E1;-1.456099153E0;-2.579113722E0;1.568070769E0
2.610829461E1;-1.183042288E0;-2.251079082E0;2.072034359E0
2.611838661E1;-1.105462432E0;-2.160670996E0;2.239411592E0
2.613846861E1;-1.187318444E0;-1.525371194E0;1.981015682E0
2.615819361E1;-1.060258389E0;-1.837523341E0;5.693060160E-1
2.616825461E1;-1.224581122E0;-2.447777748E0;-6.416121125E-2
2.617883761E1;-1.623476148E0;-3.004276037E0;-3.384397328E-1
2.619853461E1;-2.362012386E0;-3.750753403E0;-9.226100892E-2
2.621819461E1;-2.656449318E0;-3.209526777E0;-1.631213874E-1
2.622837261E1;-2.341853857E0;-3.240680933E0;-3.789400682E-2
2.624819061E1;-7.120652199E-1;-3.854600430E0;1.386460513E-1
2.625836061E1;5.945755914E-2;-3.610865116E0;2.834210992E-1
2.626847861E1;6.403903961E-1;-3.095905781E0;5.442605615E-1
2.628862661E1;1.254310012E-1;-8.589172363E-1;4.813414514E-1
2.630853161E1;-3.412700593E-1;-3.201341331E-1;4.569068253E-1
2.632820261E1;-1.115847081E-1;-9.749816656E-1;3.200730085E-1
2.634871161E1;-9.020443261E-2;-1.315233588E0;6.778568029E-2
2.636857361E1;-2.233730555E-1;-1.078828812E0;-2.523077130E-1
2.638830461E1;-1.335758567E-1;-7.275812626E-1;-5.833966732E-1
2.640856061E1;4.724025354E-2;-2.419433743E-1;-9.670200348E-1
2.642898261E1;3.716096878E-1;1.954361498E-1;-1.367747545E0
2.644817361E1;9.757554531E-1;5.127195269E-2;-1.682954073E0
2.645817961E1;1.252477407E0;-1.686395407E-1;-1.751981854E0
2.646827561E1;1.312342167E0;-1.484809816E-1;-1.687230110E0
2.648843961E1;1.327613890E-1;8.857138753E-1;1.313156635E-1
2.650828261E1;-1.290554643E0;-1.365935445E0;8.869559765E-1
2.651868861E1;-2.101172924E0;-2.552235842E0;9.798074961E-1
2.653817661E1;-1.742594957E0;-2.100806236E0;8.661865592E-1
2.654818761E1;-6.014986038E-1;-8.295957446E-1;4.233092368E-1
2.655823561E1;3.300708532E-1;-3.616729677E-1;1.514742225E-1
2.656826161E1;5.560910106E-1;-9.920858741E-1;2.380338311E-2
2.658882761E1;1.188947439E0;-7.312464118E-1;4.110919237E-1
2.660945161E1;1.663589776E-1;1.300735623E-1;7.085832953E-1
2.662873961E1;1.007520437E0;-1.775581762E-2;9.160942584E-2
2.664820961E1;1.124806523E0;-1.164716482E-2;-3.677612543E-1
2.665823061E1;8.694648743E-1;2.180381566E-1;-4.563367069E-1
2.666823061E1;6.434447765E-1;2.162055671E-1;-5.656815767E-1
2.667959361E1;5.316563845E-1;2.834007442E-1;-6.383745670E-1
2.669817361E1;1.001411796E0;6.389243007E-1;-5.968357325E-1
2.670824861E1;1.217047215E0;8.704422712E-1;-6.719721556E-1
2.671848461E1;1.377704740E0;1.046982288E0;-8.680598736E-1
2.672922461E1;1.465058446E0;9.229766726E-1;-1.086749554E0
2.674815161E1;1.046004891E0;9.626829028E-1;-1.152112126E0
2.675925461E1;7.698938847E-1;1.542394042E0;-8.601186275E-1
2.677847961E1;-1.292998046E-1;3.212499619E0;-3.665395081E-1
2.678881461E1;-9.069312215E-1;4.141015053E0;-5.595729351E-1
2.680838561E1;-8.385143280E-1;5.100684166E0;-1.142338276E0
2.682826261E1;-2.807943821E-1;4.913148880E0;-1.489309788E0
2.683925661E1;-3.675372601E-1;5.049982548E0;-1.278561234E0
2.685825461E1;-1.011999995E-1;4.440949917E0;-7.874256968E-1
2.686833061E1;5.023348927E-1;3.332839966E0;-3.414940536E-1
2.687836661E1;7.118616700E-1;3.010914087E0;-1.423519552E-1
2.688846261E1;9.024516344E-1;2.687155485E0;-3.667227551E-2
2.690836761E1;1.228042841E0;2.043914318E0;-1.362433136E-1
2.691974061E1;1.315396547E0;1.864320040E0;-3.219463527E-1
2.692981561E1;1.385645986E0;1.676173449E0;-4.496172071E-1
2.694819461E1;1.493769169E0;1.052480102E0;-5.058168173E-1
2.695823561E1;1.364265680E0;9.199223518E-1;-4.600019157E-1
2.697822961E1;1.173675776E0;7.910297513E-1;-1.392976344E-1
2.698873861E1;1.033787608E0;7.665951252E-1;3.644830547E-3
2.700958161E1;2.585996091E-1;1.322482467E0;3.176295459E-1
2.702840061E1;-4.353432953E-1;1.755586028E0;1.423112452E-1
2.704816261E1;-6.399831176E-1;1.580878496E0;-4.312912524E-1
2.706814161E1;-4.084652364E-1;6.273179054E-1;-4.557258487E-1
2.708046961E1;-4.530583918E-1;3.047810197E-1;-2.101580054E-1
2.709827861E1;-5.312491059E-1;-3.696142137E-1;4.135353863E-1
2.710854461E1;-5.562946200E-1;-9.609317780E-1;6.090122461E-1
2.712838961E1;-8.782205582E-1;-2.228477240E0;7.977696061E-1
2.714826061E1;-1.132951379E0;-3.096516609E0;1.220488429E0
2.716829561E1;-1.099964619E0;-3.002443314E0;1.576622844E0
2.718823261E1;-1.023606539E0;-2.226033688E0;1.998730779E0
2.719834661E1;-1.063923597E0;-1.954809546E0;2.163664341E0
2.721822561E1;-1.042543292E0;-1.648766041E0;1.839905858E0
2.723880761E1;-1.062090993E0;-2.737327814E0;1.258178800E-1
2.725820061E1;-2.496402740E0;-3.602923870E0;-3.799785674E-1
2.727819461E1;-2.755409479E0;-4.116050720E0;-3.781459630E-1
2.728871961E1;-2.427374840E0;-4.161865234E0;-3.604308665E-1
2.730854861E1;-1.173879385E0;-4.219286919E0;-1.484606117E-1
2.731868661E1;-4.090760946E-1;-4.229060650E0;-7.821111381E-2
2.733887761E1;5.157738924E-1;-2.937691689E0;4.367482662E-1
2.735815661E1;8.267043531E-2;-1.395867825E0;6.413881183E-1
2.736871761E1;-3.186680377E-1;-1.022629142E0;5.326541066E-1
2.738822361E1;-3.308853507E-1;-8.350934982E-1;4.202549160E-1
2.740823761E1;-7.187847048E-2;-1.436795831E0;3.084665835E-1
2.742822661E1;3.685554489E-2;-1.715350389E0;9.955067188E-2
2.744818761E1;-7.004587352E-2;-1.313400984E0;-1.991624236E-1
2.745824461E1;-9.386961907E-2;-5.473759770E-1;-5.620164275E-1
2.747823961E1;2.757038474E-1;-5.929465592E-2;-9.993959069E-1
2.748826161E1;4.730133116E-1;1.074715629E-1;-1.246185422E0
2.750846161E1;1.038063645E0;2.070425898E-1;-1.623700142E0
2.752917161E1;1.675806999E0;-3.311296999E-1;-1.823453069E0
2.754834261E1;1.249423027E0;7.372736335E-1;-1.102021217E0
2.756839961E1;9.610947967E-2;1.248567820E0;2.840319574E-1
2.758815361E1;-1.264287353E0;-2.263907433E0;9.046710730E-1
2.759871561E1;-2.126829147E0;-3.401949167E0;9.798074961E-1
2.761816261E1;-1.228246331E0;-1.481999874E0;4.740110636E-1
2.763821061E1;9.916380048E-2;1.791871153E-3;-1.875559837E-1
2.764843361E1;7.631743550E-1;-3.537317216E-1;-2.889596224E-1
2.766824161E1;9.446012974E-1;-1.091046095E0;2.534887195E-1
2.767829061E1;6.355035305E-1;-1.022629142E0;4.019289613E-1
2.768859161E1;6.574946642E-1;3.408220708E-1;3.616118431E-1
2.769887461E1;8.181521893E-1;5.057556629E-1;1.539176852E-1
2.770897561E1;1.021570325E0;-2.853147984E-1;-5.927428603E-2
2.772840061E1;1.080213428E0;-2.559932470E-1;-1.625105143E-1
2.774830061E1;7.375180125E-1;-1.002226248E-1;-3.854763508E-1
2.776846561E1;5.774713159E-1;-1.289332956E-1;-4.746626616E-1
2.778834661E1;7.161377072E-1;6.450329423E-1;-6.145508289E-1
2.780858061E1;1.272025108E0;1.222911477E0;-1.098966837E0
2.782849361E1;1.084489465E0;1.304156542E0;-1.023830414E0
2.784812961E1;-1.506800391E-2;2.701816320E0;-7.587150335E-1
2.785834961E1;-5.746205449E-1;3.698748350E0;-8.735576868E-1
2.787858661E1;-8.146905899E-1;4.861225128E0;-1.263900518E0
2.789822361E1;-3.015638292E-1;4.503869057E0;-1.621867537E0
2.790828361E1;-2.203187197E-1;4.299839973E0;-1.452046990E0
2.792843161E1;-2.972877026E-2;3.864292860E0;-9.609113932E-1
2.794855861E1;5.707517862E-1;2.838649988E0;-4.807713330E-1
2.796820161E1;8.248717189E-1;2.335297108E0;-2.645250261E-1
2.798819261E1;9.617055655E-1;1.809342146E0;-3.543222249E-1
2.799827361E1;1.065552592E0;1.425107837E0;-5.522425771E-1
2.800855261E1;1.137023926E0;1.045149684E0;-7.587150335E-1
2.802817261E1;1.011796474E0;6.535850763E-1;-8.014755845E-1
2.803892961E1;9.830858707E-1;6.230418086E-1;-4.532823861E-1
2.805820361E1;1.044783235E0;7.342193127E-1;-6.599380821E-2
2.807885061E1;5.542584062E-1;1.373184323E0;2.223345935E-1
2.809819361E1;-1.720603704E-1;1.766581535E0;1.765196919E-1
2.810855761E1;-4.402302206E-1;1.506353021E0;-5.518148653E-3
2.812206661E1;-5.226970315E-1;1.178929210E0;-1.673974395E-1
2.813823961E1;-4.451171458E-1;4.495560825E-1;-3.042312562E-1
2.814823961E1;-5.117014647E-1;1.502321213E-1;-2.303165644E-1
2.816829261E1;-5.562946200E-1;-8.259305358E-1;8.061385155E-2
2.817862061E1;-6.436483264E-1;-1.402587295E0;2.376062274E-1
2.819054961E1;-7.853690386E-1;-2.032389402E0;3.964311779E-1
2.820387511E1;-1.143336058E0;-2.927917957E0;8.863450885E-1
2.821823361E1;-1.229468107E0;-3.047036648E0;1.183836579E0
2.822884361E1;-9.961175919E-1;-2.773979902E0;1.703682899E0
2.824819361E1;-7.132869363E-1;-2.251689911E0;2.170383692E0
2.825867361E1;-8.256861567E-1;-1.789265037E0;2.360973835E0
2.827822561E1;-1.155553341E0;-9.615426064E-1;2.064093113E0
2.828827061E1;-1.232522368E0;-1.152743459E0;1.282185793E0
2.829894461E1;-1.297884941E0;-1.963972449E0;3.939877152E-1
2.831890261E1;-1.949067354E0;-3.361632109E0;-1.961081028E-1
2.833815361E1;-2.991814375E0;-3.072692871E0;3.357722610E-2
2.834834961E1;-3.029688120E0;-2.964569807E0;-3.685551696E-3
2.836864261E1;-2.104227304E0;-2.884546518E0;1.410895139E-1
2.838820361E1;-5.856161118E-1;-3.094684124E0;2.516561151E-1
2.839825861E1;-1.628973335E-2;-2.674408674E0;4.263635576E-1
2.841899961E1;-6.638067961E-2;-9.346645474E-1;7.666155100E-1
2.843831161E1;-2.239838615E-2;-7.639887929E-2;5.766364336E-1
2.845941461E1;4.907285050E-2;-5.815844536E-1;4.685132802E-1
2.847834461E1;6.984226406E-2;-9.670404196E-1;1.740762293E-1
2.848855561E1;8.083784580E-2;-1.015298724E0;-4.296417348E-3
2.850822561E1;6.739880145E-2;-7.672874928E-1;-4.264043272E-1
2.852826161E1;2.188933939E-1;-2.321695238E-1;-8.833315372E-1
2.853888261E1;4.113159180E-1;-4.402302206E-2;-1.116071105E0
2.855825261E1;8.877908587E-1;2.711834311E-1;-1.497251034E0
2.857833761E1;1.320894361E0;5.615887791E-2;-1.711664677E0
2.858875061E1;1.414356709E0;-1.625308841E-1;-1.722660303E0
2.860818061E1;7.008661032E-1;6.963456273E-1;-6.890763640E-1
2.861821261E1;5.334890261E-2;1.213137627E0;3.357722610E-2
2.862825861E1;-5.349143147E-1;6.633589268E-1;5.424279571E-1
2.864843761E1;-2.275269508E0;-2.563842058E0;1.218044996E0
2.866815461E1;-9.032660723E-1;-7.843917012E-1;4.147571325E-1
2.867858861E1;1.071050465E-1;6.981782317E-1;-1.906103194E-1
2.869828961E1;1.127860904E0;-9.810903072E-1;-4.783278704E-1
2.871821661E1;1.058222294E0;-4.459723532E-1;-8.493062854E-2
2.873865361E1;3.031927645E-1;2.888985276E-1;4.483547211E-1
2.874904261E1;5.457063317E-1;1.166345403E-1;3.677205145E-1
2.876816461E1;1.083267689E0;-2.950886488E-1;2.406605482E-1
2.877820761E1;1.089987278E0;2.742377520E-1;1.154331714E-1
2.879819161E1;8.212065101E-1;3.927456141E-1;-2.278731018E-1
2.880849161E1;7.149159908E-1;9.891944379E-2;-5.339165926E-1
2.882094661E1;1.013629079E0;3.909130394E-1;-6.499810219E-1
2.883513161E1;1.081435084E0;5.320228934E-1;-6.438723207E-1
2.884824061E1;9.177232385E-1;2.449162304E-1;-9.022683501E-1
2.885826361E1;7.992153764E-1;6.603046060E-1;-1.007947922E0
2.887822261E1;6.031276584E-1;1.974886656E0;-8.198015094E-1
2.889813361E1;5.945755914E-2;3.750061035E0;-6.011117697E-1
2.890877661E1;-3.883066773E-1;4.711563110E0;-6.304333210E-1
2.892828761E1;-1.122566700E0;5.778744698E0;-1.073310494E0
2.893856261E1;-7.817038894E-1;5.527678967E0;-1.404399514E0
2.895831461E1;-4.078543782E-1;5.040208817E0;-1.238855004E0
2.897821361E1;-2.502511144E-1;4.315722466E0;-7.373347282E-1
2.899829061E1;3.031927645E-1;3.252816677E0;-2.553620338E-1
2.901830461E1;7.259115577E-1;2.582086563E0;-1.429628283E-1
2.902863261E1;9.482665062E-1;2.227784872E0;-3.146159649E-1
2.903867361E1;1.047837496E0;1.964501858E0;-4.856582284E-1
2.905815161E1;1.028900743E0;1.442822933E0;-5.968357325E-1
2.906818361E1;9.348274469E-1;1.381125569E0;-4.703866243E-1
2.907834861E1;9.030624628E-1;1.342030168E0;-2.706336677E-1
2.908874361E1;9.543751478E-1;1.361577868E0;-8.126543462E-2
2.910878261E1;1.025235534E0;1.551556945E0;2.693712115E-1
2.912843561E1;4.333070815E-1;2.159367800E0;5.057760477E-1
2.914835061E1;-3.492113054E-1;2.186245918E0;2.070629597E-1
2.915925561E1;-5.165883899E-1;1.790405273E0;-6.782640517E-2
2.917823561E1;-4.585561752E-1;8.875464797E-1;-3.897523880E-1
2.919816061E1;-6.393722892E-1;2.272011340E-1;-2.742988765E-1
2.920880361E1;-6.369287968E-1;-3.256319165E-1;-2.078977972E-2
2.922820961E1;-8.611163497E-1;-2.139901638E0;5.467039943E-1
2.924818461E1;-1.347365141E0;-2.837509871E0;1.119084835E0
2.925820561E1;-1.498859644E0;-2.834455490E0;1.446508527E0
2.926874461E1;-1.427999258E0;-2.733051777E0;1.741556525E0
2.928815361E1;-1.027271748E0;-2.608435392E0;2.148392677E0
2.929822661E1;-1.021773934E0;-2.417845488E0;2.309050083E0
2.930827361E1;-1.132340550E0;-2.041552305E0;2.346313000E0
2.931883861E1;-1.167159796E0;-1.773993373E0;2.012169838E0
2.933822161E1;-9.600765109E-1;-2.947465420E0;1.997325718E-1
2.934856461E1;-1.057204127E0;-3.848491669E0;-3.433266282E-1
2.935869661E1;-1.524515986E0;-4.378722668E0;-4.251825809E-1
2.937834261E1;-3.150639296E0;-3.875369787E0;-3.720373213E-1
2.938834561E1;-3.368718386E0;-3.687223434E0;-3.115616441E-1
2.940909461E1;-1.541009426E0;-3.639575958E0;2.015651762E-1
2.942836761E1;-2.514728606E-1;-2.981673956E0;4.471329749E-1
2.944867761E1;-1.329649985E-1;-1.361659408E0;7.269092798E-1
2.946824661E1;-3.015638292E-1;-5.259957314E-1;5.662516952E-1
2.948813461E1;8.755739778E-3;-6.011321545E-1;4.819523096E-1
2.950866161E1;2.396628112E-1;-1.232155919E0;3.188512921E-1
2.952907361E1;2.793690264E-1;-1.368378878E0;4.884885997E-2
2.954820761E1;1.620829254E-1;-9.841446280E-1;-3.078964651E-1
2.956839561E1;1.590285897E-1;-3.732793927E-1;-7.532172203E-1
2.958889061E1;4.614068866E-1;9.891944379E-2;-1.272452593E0
2.960836961E1;9.953031540E-1;3.396003544E-1;-1.707388639E0
2.961870961E1;1.486438751E0;-2.486628890E-1;-1.920580626E0
2.963896661E1;1.280577183E0;-3.274644911E-1;-1.535735488E0
2.965816761E1;3.410664201E-1;1.474587917E0;6.595308334E-2
2.966816961E1;-3.828088194E-2;1.074471235E0;5.460931659E-1
2.967820361E1;-5.440772772E-1;-4.911763966E-1;8.881776929E-1
2.968821161E1;-1.330260873E0;-1.947479129E0;9.840835333E-1
2.970870361E1;-1.925854445E0;-2.303002596E0;8.490822911E-1
2.972828461E1;-2.606357820E-2;-4.245920777E-1;1.588046104E-1
2.973884361E1;5.469280481E-1;-5.290500522E-1;1.252070069E-1
2.975854061E1;6.361143589E-1;7.081964612E-2;5.068145692E-2
2.977822661E1;4.656829238E-1;-6.958162189E-1;7.232440710E-1
2.978842261E1;5.322672725E-1;-2.138435692E-1;5.412062407E-1
2.980876461E1;1.212160349E0;-6.200689673E-1;-7.393505424E-2
2.982816661E1;1.057611346E0;1.306844354E-1;-3.879198134E-1
2.983852161E1;9.714794159E-1;5.921320617E-2;-5.253644586E-1
2.985822561E1;7.723373175E-1;-2.095675170E-1;-6.848003268E-1
2.986850461E1;6.538294554E-1;2.412510365E-1;-6.243246794E-1
2.988814161E1;8.297586441E-1;1.240015745E0;-7.086240649E-1
2.989821761E1;9.562077522E-1;1.328591228E0;-1.003671885E0
2.990886361E1;1.022792101E0;1.382347345E0;-1.152723074E0
2.992832361E1;6.446664929E-1;2.205793619E0;-9.236486554E-1
2.994835561E1;-2.948442996E-1;3.676757097E0;-8.307971358E-1
2.996855061E1;-9.887871742E-1;5.578991890E0;-1.227248549E0
2.998824461E1;-5.281947851E-1;5.560665607E0;-1.430055857E0
3.000819261E1;-1.176933646E-1;4.508144855E0;-8.705033660E-1
3.002818261E1;3.655010462E-1;3.402478695E0;-4.184630811E-1
3.003821161E1;6.190101504E-1;2.946162462E0;-2.822401226E-1
3.005817161E1;9.684250355E-1;2.398827076E0;-2.529186010E-1
3.006991861E1;1.102204561E0;2.047579527E0;-4.007479846E-1
3.008845861E1;1.105258822E0;1.464203238E0;-7.025154233E-1
3.010857061E1;9.708684683E-1;1.240015745E0;-5.009298921E-1
3.012104961E1;9.934705496E-1;1.172820568E0;-2.645250261E-1
3.013823361E1;1.175508380E0;1.203974724E0;2.003434449E-1
3.014826761E1;1.091208935E0;1.444655538E0;3.836030066E-1
3.015968861E1;8.566367030E-1;1.751920819E0;5.473148823E-1
3.016984461E1;5.145521760E-1;1.981606126E0;6.346685886E-1
3.018825461E1;-2.258165032E-1;1.795292258E0;2.687603235E-1
3.020035461E1;-4.469497502E-1;1.056756139E0;-2.694119513E-1
3.021354211E1;-4.787147343E-1;3.279938996E-1;-4.483954608E-1
3.022859761E1;-5.074253678E-1;-1.087747365E-1;-3.274441361E-1
3.024853861E1;-4.750495553E-1;-1.158241272E0;4.518366605E-2
3.026815261E1;-8.452338576E-1;-2.363478422E0;4.000963569E-1
3.027824261E1;-1.070032239E0;-2.842396736E0;6.077905297E-1
3.028831361E1;-1.231911540E0;-3.064751625E0;8.729060888E-1
3.030876361E1;-1.307047963E0;-2.948076487E0;1.544857860E0
3.032848161E1;-1.150666475E0;-2.463049412E0;2.094025612E0
3.034829661E1;-1.029715180E0;-2.084312916E0;2.479481697E0
3.036814861E1;-1.156775117E0;-1.595620751E0;1.739723921E0
3.037843861E1;-1.074308276E0;-2.257798672E0;8.234259486E-1
3.039817661E1;-2.022982121E0;-3.641408443E0;-3.879198134E-1
3.040841361E1;-2.765794277E0;-3.415999174E0;-2.290948331E-1
3.041864361E1;-3.237993240E0;-3.172874928E0;-1.661757082E-1
3.043832861E1;-2.883691311E0;-3.202807188E0;-1.704517603E-1
3.044869461E1;-2.138435602E0;-3.390342951E0;-2.934189141E-2
3.046853261E1;-4.414519668E-1;-3.276721954E0;2.797559202E-1
3.048842561E1;5.701415241E-3;-1.707409143E0;6.981986165E-1
3.050821461E1;-2.972877026E-2;-7.538484335E-1;4.947804809E-1
3.051836061E1;8.694648743E-2;-5.070588589E-1;3.970420361E-1
3.053816961E1;4.510221779E-1;-1.103874207E0;3.298468590E-1
3.054874161E1;3.990986347E-1;-1.368989706E0;2.473800629E-1
3.056822061E1;4.907285050E-2;-1.363492012E0;-6.477207690E-2
3.057823361E1;-9.570221603E-2;-1.252314448E0;-2.364252061E-1
3.058839961E1;-1.201368272E-1;-1.094100356E0;-6.512027383E-1
3.060875061E1;2.683734596E-1;-4.423071742E-1;-1.084306121E0
3.062880461E1;6.910922527E-1;1.099150181E-1;-1.488698959E0
3.064847861E1;1.240870953E0;1.337387562E-1;-1.757479668E0
3.066843161E1;1.372207046E0;-2.614910603E-1;-1.814900994E0
3.067853161E1;1.111367583E0;7.570656389E-2;-1.440440536E0
3.069813861E1;1.993457079E-1;1.342641115E0;-2.689843252E-2
3.070878061E1;-4.555018544E-1;6.975674033E-1;4.672915339E-1
3.072826461E1;-2.200133085E0;-1.974968076E0;9.431555867E-1
3.074882161E1;-2.024814606E0;-2.123408318E0;8.393085003E-1
3.076830361E1;5.487606525E-1;-1.759699285E-1;-1.529199164E-2
3.078846061E1;9.366600513E-1;-7.593462467E-1;-1.651372388E-2
3.079860061E1;4.333070815E-1;-5.162218809E-1;5.008891225E-1
3.080869761E1;1.046615839E-1;-4.341215640E-2;7.434026003E-1
3.082822461E1;8.273152113E-1;-3.363831341E-2;3.402315676E-1
3.084848961E1;1.050891876E0;-2.175087631E-1;-1.063109115E-1
3.086861861E1;8.444194198E-1;-2.203187346E-2;-5.644598603E-1
3.088819561E1;9.427686930E-1;1.278744452E-2;-8.888292909E-1
3.089827061E1;1.148630261E0;1.086932942E-1;-8.637838364E-1
3.091823361E1;1.250033975E0;1.889609732E-2;-8.747794032E-1
3.092828461E1;1.160236716E0;2.705725729E-1;-9.810699821E-1
3.094826161E1;1.015461683E0;1.090964556E0;-1.119736314E0
3.096823161E1;4.876740873E-1;2.433646441E0;-9.493049383E-1
3.098822661E1;-8.684467077E-1;4.762264729E0;-1.097745180E0
3.099825361E1;-1.084693074E0;5.448877335E0;-1.383630037E0
3.100831261E1;-1.032158613E0;5.797681332E0;-1.558948398E0
3.102865361E1;-5.098688602E-1;5.158716679E0;-1.112405896E0
3.104817061E1;-1.470149010E-1;4.643146038E0;-6.163834333E-1
3.105817461E1;5.701409653E-2;4.282735825E0;-4.606127739E-1
3.106828461E1;3.166318238E-1;3.844134331E0;-3.457700908E-1
3.107890561E1;6.110689044E-1;3.480058670E0;-2.547511756E-1
3.109821961E1;1.159625888E0;2.679825068E0;-2.675793469E-1
3.111831861E1;1.114421844E0;1.938845515E0;-6.884655356E-1
3.113888361E1;8.755735159E-1;1.453818560E0;-5.424687266E-1
3.115821861E1;1.196277738E0;1.327980280E0;-1.166956276E-1
3.117819561E1;1.096095920E0;1.560719967E0;2.308866978E-1
3.118824261E1;2.891428769E-1;1.988325596E0;4.404134750E-1
3.120840361E1;-2.001601756E-1;2.007873297E0;1.752979606E-1
3.122817261E1;-2.349794954E-1;1.563163400E0;-3.085073233E-1
3.123870161E1;-3.467678428E-1;1.520402908E0;-4.123544097E-1
3.125826961E1;-5.147557855E-1;8.453967571E-1;-3.885306716E-1
3.126828061E1;-5.019276142E-1;4.037412107E-1;-2.541403174E-1
3.128894861E1;-4.548909962E-1;-4.911763966E-1;2.074905671E-2
3.130817861E1;-7.328346372E-1;-1.693359137E0;2.516561151E-1
3.131819861E1;-1.052928090E0;-2.174110174E0;4.110919237E-1
3.132821861E1;-1.315600038E0;-2.539407492E0;6.218404174E-1
3.133828661E1;-1.475646734E0;-2.783142805E0;8.692408800E-1
3.134840861E1;-1.531235576E0;-2.918754816E0;1.178338766E0
3.136884861E1;-1.170825005E0;-2.951130629E0;2.310271978E0
3.138814061E1;-1.228857279E0;-2.205875158E0;2.525296450E0
3.139829561E1;-1.324152231E0;-1.604172826E0;2.252239704E0
3.140876461E1;-1.344921589E0;-1.576073050E0;1.576012015E0
3.142817561E1;-1.335147738E0;-3.417831659E0;-3.897523880E-1
3.143880761E1;-1.696169138E0;-4.271821022E0;-6.145508289E-1
3.145842861E1;-2.975931883E0;-4.211956501E0;-2.681902051E-1
3.146897861E1;-3.297247171E0;-3.771522760E0;-2.431447357E-1
3.148822361E1;-2.562376261E0;-3.335365057E0;-8.187630028E-2
3.149824461E1;-1.612480640E0;-3.482583523E0;1.435329765E-1
3.151831561E1;8.022697270E-2;-2.995723963E0;4.049832821E-1
3.152895061E1;3.795509338E-1;-2.128906012E0;7.660046220E-1
3.154852761E1;1.058833152E-1;-1.050118089E0;8.417519331E-1
3.156826061E1;1.975131407E-2;-3.506773710E-1;5.809124708E-1
3.158829761E1;2.256128937E-1;-1.186951876E0;3.567249179E-1
3.160880461E1;6.739880145E-2;-1.352496386E0;2.380338311E-2
3.162835261E1;-3.644828871E-2;-1.094711304E0;-3.616526127E-1
3.163857661E1;1.669698954E-2;-7.892786264E-1;-5.864509940E-1
3.165819161E1;3.215187490E-1;-1.741373241E-1;-1.051319361E0
3.166835361E1;4.907284081E-1;6.593272090E-2;-1.257791877E0
3.168854761E1;9.543751478E-1;3.408220708E-1;-1.572998285E0
3.170825161E1;1.426573992E0;-7.639887929E-2;-1.717162490E0
3.172851561E1;1.152295470E0;5.986071825E-1;-1.102021217E0
3.173951661E1;7.026987076E-1;1.233296156E0;-4.636670947E-1
3.175824161E1;-6.748024225E-1;-1.020552218E-1;5.998492837E-1
3.176869861E1;-2.445700884E0;-1.546751499E0;1.033563733E0
3.177927061E1;-2.275880337E0;-3.213191986E0;9.908030629E-1
3.179833161E1;2.158391103E-2;2.534683347E-1;7.920887321E-3
3.181814861E1;6.055710912E-1;-2.743192315E-1;-6.843727082E-2
3.182853661E1;6.617707014E-1;-5.870822072E-1;-1.099761054E-1
3.184828661E1;4.198680520E-1;-6.738250852E-1;5.705277920E-1
3.186843761E1;8.822930455E-1;-2.248391360E-1;5.711386204E-1
3.187847361E1;1.173064947E0;-8.961800337E-1;4.385808706E-1
3.189821561E1;1.217047215E0;1.068606973E-1;1.952732727E-2
3.190863761E1;8.877908587E-1;4.031303227E-1;-1.765604168E-1
3.192926361E1;5.286020637E-1;-1.393180043E-1;-5.589620471E-1
3.194962261E1;1.112589240E0;7.091737986E-1;-6.676960588E-1
3.196840161E1;1.244536161E0;4.122933149E-1;-1.106297255E0
3.197915661E1;1.165123701E0;5.424076319E-1;-1.175325036E0
3.199827861E1;5.609779358E-1;1.729929686E0;-1.050708532E0
3.200841861E1;1.871283948E-1;2.475185156E0;-9.835134149E-1
3.202866761E1;-7.688757181E-1;4.494095325E0;-1.059260607E0
3.204940061E1;-1.108516812E0;5.770192623E0;-1.467318654E0
3.206831861E1;-4.512257874E-1;5.139779568E0;-1.226026893E0
3.208827861E1;-2.465859205E-1;4.913759708E0;-7.629910707E-1
3.210825361E1;-1.506800391E-2;4.401854515E0;-4.709974825E-1
3.212826061E1;5.151630640E-1;3.473949909E0;-3.060638607E-1
3.213837261E1;8.071566224E-1;3.039013863E0;-2.834618390E-1
3.215823161E1;1.121752262E0;2.400048733E0;-4.422868192E-1
3.216830161E1;1.096706748E0;1.609589219E0;-6.157725453E-1
3.218828861E1;1.080213428E0;1.149607658E0;-3.531004786E-1
3.220817761E1;1.285464168E0;1.192979097E0;5.679010600E-2
3.222817561E1;1.151073813E0;1.393342853E0;2.852537036E-1
3.224820061E1;3.709988296E-1;1.759862065E0;4.098702073E-1
3.225829761E1;-8.837182820E-2;1.701829791E0;2.883080244E-1
3.226840361E1;-3.907501400E-1;1.473366261E0;6.228789315E-2
3.228816161E1;-5.428555608E-1;1.086688519E0;-3.427157700E-1
3.229820261E1;-5.300273895E-1;7.788124681E-1;-3.983045220E-1
3.230824861E1;-6.485352516E-1;5.167512894E-1;-3.598200083E-1
3.232838061E1;-6.399831176E-1;-5.003393292E-1;3.479895741E-2
3.234819861E1;-6.137159467E-1;-1.623109698E0;3.915442526E-1
3.235819961E1;-9.197593927E-1;-2.668300152E0;7.660046220E-1
3.236824061E1;-1.111571074E0;-3.059253931E0;1.079989433E0
3.237896361E1;-1.230689764E0;-3.215024471E0;1.459336758E0
3.239817661E1;-1.146390438E0;-2.781921148E0;2.211311817E0
3.240819861E1;-1.109738469E0;-2.283455133E0;2.408010244E0
3.241838861E1;-1.107295036E0;-1.985963583E0;2.488033772E0
3.243888361E1;-1.192816138E0;-1.434963226E0;2.433055878E0
3.245860461E1;-1.208087802E0;-1.837523341E0;9.284948111E-1
3.247851961E1;-1.429831862E0;-3.788626909E0;-4.654996991E-1
3.248852361E1;-1.860491872E0;-4.291979790E0;-4.288477898E-1
3.250841461E1;-2.853758812E0;-4.433700562E0;-3.341636658E-1
3.252852961E1;-2.712649107E0;-4.020144463E0;-2.828509808E-1
3.254838461E1;-1.143947005E0;-3.973719120E0;-6.416121125E-2
3.256821161E1;5.334889889E-1;-2.797803640E0;4.147571325E-1
3.258829961E1;2.036280930E-4;-1.561412334E0;4.898935556E-1
3.260824061E1;-1.482366323E-1;-7.233051658E-1;3.530597389E-1
3.262909161E1;9.733121097E-2;-1.277970791E0;2.999144495E-1
