"Time (s)";"Linear Acceleration x (m/s^2)";"Linear Acceleration y (m/s^2)";"Linear Acceleration z (m/s^2)"
0.000000000E0;9.106326103E-2;2.833461761E-2;2.572689056E-1
2.004375000E-2;-7.099032402E-3;2.474308014E-2;4.418563843E-2
3.291087500E-2;6.850719452E-3;-2.609920502E-2;-4.567909241E-2
4.995900000E-2;2.170562744E-3;-2.192354202E-2;-4.876422882E-2
6.003300000E-2;3.539681435E-3;-1.402187347E-2;-2.472877502E-2
8.005400000E-2;-7.338285446E-3;3.355550766E-2;6.098651886E-2
9.044200000E-2;-1.243138313E-2;5.902051926E-2;1.080360413E-1
1.099680000E-1;-1.912522316E-2;8.020353317E-2;1.509227753E-1
1.199710000E-1;-2.824831009E-2;1.119475365E-1;2.150115967E-1
1.300950000E-1;-2.191984653E-2;8.750915527E-2;1.675300598E-1
1.406890000E-1;-1.258075237E-2;5.210733414E-2;9.908103943E-2
1.608860000E-1;1.506376266E-2;-6.625127792E-2;-1.209850311E-1
1.801680000E-1;3.719007969E-2;-1.565408707E-1;-2.752456665E-1
2.005630000E-1;2.178454399E-2;-9.885215759E-2;-1.779184341E-1
2.199820000E-1;-9.220898151E-3;4.615449905E-2;8.776664734E-2
2.399680000E-1;2.490526438E-2;1.136336327E-1;2.184085846E-1
2.503240000E-1;-2.537292242E-2;1.160278320E-1;2.255907059E-1
2.700340000E-1;-1.408815384E-2;6.338596344E-2;1.189966202E-1
2.899730000E-1;-4.436969757E-3;2.023744583E-2;3.708457947E-2
3.002020000E-1;-5.353331566E-3;2.445125580E-2;4.491901398E-2
3.200940000E-1;6.587386131E-3;-3.089714050E-2;-5.604553223E-2
3.402930000E-1;6.479144096E-3;-2.950906754E-2;-5.399608612E-2
3.602080000E-1;-2.422159910E-2;1.148052216E-1;2.240829468E-1
3.802000000E-1;-3.991204500E-2;1.988029480E-1;3.990468979E-1
3.999700000E-1;-1.951056719E-2;9.639072418E-2;1.908102036E-1
4.199120000E-1;1.801550388E-3;-8.945941925E-3;-1.714611053E-2
4.299510000E-1;1.760619879E-2;-8.865642548E-2;-1.649293900E-1
4.400290000E-1;2.696251869E-2;-1.321101189E-1;-2.401704788E-1
4.500640000E-1;2.812957764E-2;-1.377558708E-1;-2.473497391E-1
4.606440000E-1;2.498954535E-2;-1.285500526E-1;-2.325649261E-1
4.801000000E-1;8.661150932E-4;-5.437374115E-3;-1.043510437E-2
4.902200000E-1;-3.961086273E-3;3.031539917E-2;6.034469604E-2
5.102510000E-1;-5.581021309E-3;4.794836044E-2;9.577846527E-2
5.302250000E-1;5.280017853E-3;-3.119182587E-2;-6.145572662E-2
5.402250000E-1;1.168495417E-2;-6.015348434E-2;-1.171607971E-1
5.506470000E-1;1.200312376E-2;-5.988883972E-2;-1.150007248E-1
5.702250000E-1;1.201379299E-2;-5.966615677E-2;-1.131753922E-1
5.803470000E-1;1.015776396E-2;-5.289173126E-2;-9.969806671E-2
5.920670000E-1;4.063606262E-3;-2.290439606E-2;-4.387378693E-2
6.101940000E-1;6.379902363E-3;-4.150438309E-2;-8.291149139E-2
6.304870000E-1;3.109437227E-2;-2.572507858E-1;-4.825382233E-1
6.502040000E-1;4.209637642E-2;-2.164654732E-1;-4.125423431E-1
6.704950000E-1;2.757936716E-2;-1.290287971E-1;-2.570180893E-1
6.902160000E-1;1.272946596E-2;-7.724046707E-2;-1.560497284E-1
7.002230000E-1;4.636287689E-3;-3.418159485E-2;-7.001876831E-2
7.201670000E-1;1.723504066E-2;-1.204142570E-1;-2.450962067E-1
7.401860000E-1;1.677262783E-2;-1.367311478E-1;-2.798585892E-1
7.503480000E-1;1.299765706E-2;-1.250009537E-1;-2.610921860E-1
7.701690000E-1;1.119497418E-2;-1.392273903E-1;-3.008384705E-1
7.904900000E-1;1.502758265E-2;-1.142058372E-1;-2.504749298E-1
8.005020000E-1;8.970797062E-3;-7.327413559E-2;-1.620197296E-1
8.207110000E-1;-6.404608488E-3;7.564425468E-2;1.787986755E-1
8.307280000E-1;-8.596986532E-3;8.546948433E-2;2.121753693E-1
8.502390000E-1;-6.897687912E-3;9.742927551E-2;2.426204681E-1
8.602490000E-1;-4.298686981E-3;1.041135788E-1;2.611846924E-1
8.702990000E-1;-3.975983709E-4;9.044814110E-2;2.329378128E-1
8.806110000E-1;1.649305224E-3;3.847289085E-2;9.674072266E-2
9.002090000E-1;-5.951511860E-2;-2.316641808E-1;-4.698553085E-1
9.202660000E-1;2.683994174E-2;-4.913043976E-1;-7.104048729E-1
9.417700000E-1;1.763668060E-1;-7.607622147E-1;-1.221914768E0
9.602570000E-1;4.589658976E-2;-2.114653587E-1;-4.040307999E-1
9.806960000E-1;5.175745487E-2;-1.975417137E-1;-4.205884933E-1
1.000203000E0;4.580907822E-1;-2.444288731E-1;-6.278219223E-1
1.010211000E0;7.737627625E-1;-2.149240971E-1;-9.499936104E-1
1.029993000E0;1.375259757E0;9.404983521E-1;-9.508528709E-1
1.040324000E0;1.334402084E0;1.070395708E0;-1.056766987E0
1.060164000E0;2.689473629E-1;4.736177921E-1;-1.174398422E0
1.070184000E0;1.222906113E-1;3.450570107E-1;-1.080315113E0
1.090256000E0;1.172151566E-1;4.432659149E-1;-1.127641678E0
1.110130000E0;4.663575888E-1;3.605725765E-1;-1.284135342E0
1.120285000E0;1.750991344E-1;4.380178452E-2;-1.246413231E0
1.130297000E0;3.638364077E-1;1.768827438E-2;-1.658310413E0
1.140446000E0;5.084105730E-1;2.797532082E-2;-2.155820370E0
1.164401000E0;6.749064922E-1;9.700536728E-2;-2.592165947E0
1.180333000E0;9.390470982E-1;1.244139671E-1;-3.491723061E0
1.191222000E0;8.680820465E-1;3.179979324E-2;-3.860907555E0
1.210128000E0;1.072928429E0;-9.528501034E-1;-4.577319622E0
1.220178000E0;1.225639820E0;-1.377642393E0;-4.698567867E0
1.230257000E0;1.409070015E0;-1.582270622E0;-4.355696678E0
1.250217000E0;1.788947344E0;-2.099592686E0;-3.896466732E0
1.260265000E0;1.781521797E0;-2.155350685E0;-4.045798302E0
1.280271000E0;1.492390633E-1;-2.605103493E0;-4.785068512E0
1.290976000E0;-9.640169144E-2;-3.146069288E0;-4.602581978E0
1.310090000E0;-8.274745941E-2;-4.180380344E0;-1.657197952E0
1.320216000E0;4.478931427E-1;-4.548583508E0;-1.077610016E0
1.341636000E0;-1.622767448E-1;-4.352516174E0;-1.339171886E0
1.360226000E0;-1.635981560E0;-4.726432323E0;-2.845583677E0
1.370765000E0;-2.271762848E0;-5.121925354E0;-2.375270844E0
1.381066000E0;-2.539479733E0;-5.262746334E0;-9.817605019E-1
1.391821000E0;-2.395252705E0;-5.272610664E0;1.128755093E0
1.410288000E0;-1.700304031E0;-5.824245453E0;3.362231255E0
1.420338000E0;-1.809048653E0;-5.946853638E0;3.264018059E0
1.440618000E0;-1.701584816E0;-5.892178535E0;1.034758568E0
1.460155000E0;-1.736014366E0;-5.740921021E0;-1.717149973E0
1.470185000E0;-1.858098984E0;-5.744657993E0;-1.998811483E0
1.480197000E0;-1.829408646E0;-5.799427032E0;-1.068691254E0
1.490201000E0;-1.287923813E0;-6.505896568E0;1.539623260E0
1.510222000E0;-1.026628494E0;-6.479639530E0;3.255200148E0
1.530219000E0;-1.163929939E0;-5.607733727E0;3.905130863E0
1.540703000E0;-1.435837746E0;-5.097226620E0;3.648512602E0
1.560212000E0;-2.293127060E0;-3.979440212E0;2.862964153E0
1.570606000E0;-2.725630760E0;-3.486030102E0;2.274758339E0
1.590168000E0;-2.871582508E0;-2.745975018E0;1.542258739E0
1.610284000E0;-3.365794182E0;-2.279066563E0;9.721038342E-1
1.620359000E0;-3.723431587E0;-2.081316471E0;8.822546005E-1
1.641881000E0;-4.370896816E0;-1.601634502E0;7.143418789E-1
1.660117000E0;-4.436803818E0;-9.916691780E-1;9.145137668E-1
1.670316000E0;-4.499819756E0;-5.076603889E-1;1.186392546E0
1.690191000E0;-4.403845310E0;5.254850388E-1;1.276873469E0
1.700196000E0;-4.365471363E0;9.968252182E-1;1.212039471E0
1.710224000E0;-4.288597584E0;1.469525337E0;1.208395600E0
1.720224000E0;-4.047164917E0;1.827796459E0;1.205195308E0
1.730336000E0;-3.700847149E0;2.060223579E0;1.146026492E0
1.740775000E0;-3.455965996E0;2.219058990E0;9.300292730E-1
1.760552000E0;-2.926930904E0;2.743680477E0;5.637689829E-1
1.779943000E0;-2.689430714E0;2.979863167E0;5.512988567E-1
1.789973000E0;-2.722084999E0;2.942263126E0;5.871674418E-1
1.800029000E0;-2.675060749E0;3.020007610E0;4.815811813E-1
1.819918000E0;-2.271193981E0;3.164135456E0;4.344494045E-1
1.840042000E0;-1.763273239E0;2.712666512E0;6.634364128E-1
1.859972000E0;-1.972297192E0;2.676502705E0;5.602741241E-1
1.880160000E0;-1.132893562E-1;2.350342751E0;3.911661208E-1
1.906557000E0;-5.384292603E-1;2.434356689E0;3.903653622E-1
1.921697000E0;-4.903507233E-1;2.057190895E0;2.020089924E-1
1.939247500E0;-5.214414597E-1;1.859736443E0;-1.925397515E-1
1.951153000E0;-4.846239090E-1;1.831270695E0;-1.975041032E-1
1.970544000E0;-5.872979164E-1;1.343862534E0;-8.351134062E-1
1.984408000E0;-6.001620293E-1;1.008852959E0;-1.147532821E0
1.997110000E0;-7.926621437E-1;-6.433629990E-2;-1.701484203E0
2.011314000E0;-8.632874489E-1;-7.787113190E-1;-1.814203978E0
2.030069000E0;-8.644275665E-1;-2.126166344E0;-1.641576529E0
2.041065000E0;-7.560625076E-1;-2.486520290E0;-1.332197309E0
2.060166000E0;-8.017849922E-1;-2.774998665E0;-7.524456978E-1
2.079965000E0;-1.536620617E0;-2.304743290E0;-1.960925162E-1
2.090288000E0;-3.210275650E0;-2.502778053E0;-3.178559840E-1
2.110426000E0;-3.481054306E0;-2.299001694E0;-1.516314447E-1
2.129967000E0;-3.527197361E0;-2.255433559E0;5.794085860E-1
2.140196000E0;-3.311888218E0;-1.969001770E0;9.041589499E-1
2.164036000E0;-2.697129250E0;-6.914796829E-1;1.041706800E0
2.180215000E0;-3.320203304E0;2.908234596E-1;1.171474218E0
2.190604000E0;-4.131968975E0;2.704191208E-1;9.759790897E-1
2.211764000E0;-4.763768673E0;2.854475975E-1;5.127326250E-1
2.229955000E0;-4.245182037E0;6.024789810E-2;-1.732686162E-1
2.240100000E0;-3.802369595E0;-2.724509239E-1;-4.223842621E-1
2.260025000E0;-2.829690456E0;-8.499054909E-1;8.210015297E-2
2.279925000E0;-1.624732971E0;-1.728727818E0;2.081712246E0
2.291708000E0;-1.089776993E0;-1.968915462E0;2.773093700E0
2.309997000E0;-2.442593575E-1;-2.313086987E0;3.644443274E0
2.330014000E0;4.185013771E-1;-2.208424091E0;5.073867321E0
2.340215000E0;6.743731499E-1;-2.107604980E0;5.473653316E0
2.359952000E0;1.193471909E0;-1.602244377E0;5.131213188E0
2.369952000E0;1.348860264E0;-1.509035587E0;4.781537533E0
2.390038000E0;1.897947311E0;-1.603086948E0;4.307017803E0
2.409989000E0;2.634831905E0;-1.569672108E0;4.289482117E0
2.420013000E0;2.919270992E0;-1.589538097E0;4.218928814E0
2.440215000E0;3.171080112E0;-1.762646198E0;3.868475199E0
2.459946000E0;3.379682541E0;-1.751174927E0;3.056663036E0
2.479957000E0;3.170248985E0;-2.227886677E0;2.510728359E0
2.490009000E0;3.368980408E0;-2.282269478E0;2.589755058E0
2.509982000E0;3.628251076E0;-2.720070839E0;2.571546793E0
2.531828000E0;3.157070637E0;-3.164561749E0;3.138139248E0
2.549919000E0;2.705232620E0;-3.351340294E0;3.635069847E0
2.560109000E0;2.657406330E0;-3.152351379E0;3.850286722E0
2.579964000E0;2.379851818E0;-2.410860062E0;4.275838375E0
2.590247000E0;2.514200687E0;-1.914347172E0;4.371794224E0
2.610867000E0;3.032365799E0;-5.908432007E-1;4.111286640E0
2.629939000E0;3.489372730E0;3.045988083E-1;3.558234215E0
2.640005000E0;3.103239059E0;2.074050903E-1;3.363289356E0
2.659931000E0;2.533508301E0;-2.061066628E-1;1.953073025E0
2.670013000E0;2.554452419E0;-1.071646690E0;6.413497329E-1
2.690118000E0;2.012161255E0;-2.053066254E0;-5.966150761E-1
2.710019000E0;1.943793774E0;-3.081965446E0;-1.255118728E0
2.729935000E0;2.092685223E0;-4.453401566E0;-8.242430687E-1
2.740038000E0;2.353240490E0;-4.988933563E0;-8.319556713E-2
2.759946000E0;2.410506248E0;-5.754014492E0;1.892864943E0
2.780055000E0;2.312037945E0;-6.016805172E0;3.775577068E0
2.790132000E0;2.077878475E0;-5.956327915E0;4.123354912E0
2.810562000E0;2.329596519E0;-4.847270489E0;2.771501303E0
2.829931000E0;2.357207298E0;-3.481926918E0;1.383797646E0
2.840422000E0;2.346034050E0;-3.111573696E0;1.048165202E0
2.860426000E0;1.495640755E0;-3.554700375E0;1.671389580E0
2.880030000E0;6.981568336E-1;-3.927316189E0;2.482326031E0
2.900098000E0;-5.393724442E-1;-3.902924538E0;1.560053945E0
2.920059000E0;-1.168254852E0;-3.655344009E0;-6.171429157E-1
2.940068000E0;-1.456332684E0;-3.057028770E0;-3.046931028E0
2.950209000E0;-1.320740700E0;-2.568811417E0;-4.403071404E0
2.970083000E0;-9.011659622E-1;-1.663539886E0;-5.448227882E0
2.990128000E0;-9.350872040E-2;-1.368733406E0;-4.121594906E0
3.010278000E0;8.298063278E-1;-1.348125458E0;-2.076818705E0
3.020554000E0;1.211336613E0;-1.218900681E0;-1.372000933E0
3.030933000E0;1.439720869E0;-1.145040512E0;-8.490537405E-1
3.049947000E0;1.596659660E0;-8.921003342E-1;-5.422258973E-1
3.060013000E0;1.326943159E0;-5.936765671E-1;-1.059003472E0
3.080382000E0;3.744935989E-1;3.537235260E-1;-1.752093315E0
3.099946000E0;3.286647797E-2;8.945384026E-1;-2.378899574E0
3.110509000E0;1.137962341E-1;1.103711128E0;-2.378332615E0
3.130219000E0;1.111197472E-1;1.361166000E0;-1.385164261E0
3.149964000E0;1.918869019E-1;1.618456841E0;-3.981231153E-1
3.160044000E0;3.116111755E-1;1.779111862E0;-9.986615181E-2
3.179968000E0;4.994301796E-1;2.045058727E0;-2.159047127E-2
3.190927000E0;7.842459679E-1;2.113955975E0;-2.148948014E-1
3.210068000E0;1.047718525E0;2.299454212E0;-6.782277822E-1
3.229968000E0;1.166729689E0;2.602200985E0;-8.891261816E-1
3.241053000E0;1.051494122E0;2.917283535E0;-1.032004356E0
3.260093000E0;7.767221928E-1;3.227536678E0;-9.018360376E-1
3.280048000E0;5.042827129E-1;3.334593296E0;-1.132320046E0
3.290229000E0;4.515166283E-1;3.366335869E0;-1.215404034E0
3.309973000E0;4.879248142E-1;3.451490879E0;-1.394658089E0
3.320032000E0;5.108962059E-1;3.439370632E0;-1.341878653E0
3.340137000E0;6.646349430E-1;3.520484447E0;-1.365696192E0
3.360189000E0;8.893334866E-1;3.501035213E0;-1.211718559E0
3.379957000E0;9.489717484E-1;3.784224033E0;-5.498135090E-1
3.390085000E0;8.235473633E-1;3.948209286E0;-3.283423483E-1
3.409952000E0;4.221498966E-1;4.419470787E0;-3.960983455E-1
3.419990000E0;1.269307137E-1;4.506276608E0;-6.752706766E-1
3.430022000E0;-4.793739319E-2;4.439317703E0;-9.144979715E-1
3.440080000E0;-1.600041389E-1;4.137551308E0;-1.342917442E0
3.460085000E0;-5.549244881E-1;1.953061581E0;-1.296056867E0
3.479919000E0;-1.261776924E0;1.242475510E-1;4.484001994E-1
3.490142000E0;-1.510724068E0;-6.509389877E-1;1.538537025E0
3.509983000E0;-2.736479759E0;-1.810647011E0;2.164242029E0
3.529955000E0;-4.065211773E0;-3.192923546E0;4.647615254E-1
3.539967000E0;-4.529659748E0;-4.325447083E0;-1.243354082E0
3.559967000E0;-4.825090408E0;-6.885699272E0;-2.453654766E0
3.570001000E0;-4.699927330E0;-7.933628082E0;-2.283699512E0
3.580026000E0;-4.634088516E0;-8.948459625E0;-1.923833370E0
3.590049000E0;-4.237667084E0;-9.541234016E0;-1.299381018E0
3.600362000E0;-3.620476246E0;-9.449423790E0;-2.930728495E-1
3.610527000E0;-2.986156940E0;-8.634719849E0;9.162988067E-1
3.630288000E0;-2.550684214E0;-6.108552933E0;3.296367884E0
3.649996000E0;-4.114040375E0;-3.128833771E0;4.129198551E0
3.660065000E0;-4.233502865E0;-2.184665680E0;3.198115826E0
3.680003000E0;-3.573049545E0;-4.748888016E-1;-1.189005375E-1
3.690049000E0;-2.836556196E0;6.685323715E-1;-1.960026503E0
3.709952000E0;-2.050798416E0;2.401051521E0;-4.931208134E0
3.720003000E0;-1.798495054E0;2.850093365E0;-5.650633812E0
3.730259000E0;-1.722906828E0;3.100746155E0;-5.934615612E0
3.749999000E0;-1.383751392E0;2.976466656E0;-5.788545132E0
3.760053000E0;-1.605169773E0;2.613224983E0;-4.990674973E0
3.770600000E0;-1.668777466E0;1.948909760E0;-3.980350971E0
3.792105000E0;-1.390595198E0;4.445495605E-1;-1.174880266E0
3.810334000E0;-7.892622948E-1;-1.829414368E-1;1.610962152E0
3.830095000E0;-6.051170826E-1;-4.198493958E-1;4.399104118E0
3.840358000E0;-9.659914970E-1;-1.015965462E0;5.618062019E0
3.860320000E0;-4.601373672E-1;-2.119611740E0;5.061862946E0
3.870603000E0;-4.420876503E-1;-1.975172043E0;4.150906563E0
3.890260000E0;-9.125757217E-1;-1.223985672E0;2.488220215E0
3.900353000E0;-1.198524952E0;-1.022826195E0;2.072120190E0
3.910476000E0;-1.401052952E0;-9.898204803E-1;1.948479295E0
3.930316000E0;-9.317378998E-1;-7.276115417E-1;2.362218380E0
3.940938000E0;-4.295802116E-1;-5.312185287E-1;2.632178068E0
3.960699000E0;5.727033615E-1;-1.799573898E-1;2.952103376E0
3.980227000E0;1.604671717E0;-3.681945801E-2;2.933267832E0
3.993125000E0;1.743442774E0;-2.634525299E-2;2.940556049E0
4.004853000E0;1.888956308E0;3.751087189E-2;2.838672638E0
4.022674000E0;1.810630083E0;5.273532867E-1;2.431404591E0
4.040213000E0;1.384021282E0;9.514441490E-1;2.756428003E0
4.050579000E0;1.250508308E0;1.137292385E0;2.802634716E0
4.063553000E0;1.276049137E0;1.298991203E0;2.827003479E0
4.080260000E0;1.241977692E0;1.391723156E0;2.593183279E0
4.100260000E0;1.146309376E0;1.391064167E0;2.243233204E0
4.110272000E0;1.397155762E0;1.343136787E0;1.922342658E0
4.130014000E0;1.768032551E0;1.367809772E0;2.346080542E0
4.149950000E0;1.967681885E0;1.528172970E0;2.418838501E0
4.160146000E0;2.101919651E0;1.667181015E0;1.946973205E0
4.171308000E0;2.202708244E0;1.795724392E0;1.395644546E0
4.190464000E0;2.419343710E0;2.040515900E0;9.892013669E-1
4.200999000E0;2.619410992E0;1.995145321E0;1.055325031E0
4.220176000E0;2.787460089E0;1.942506313E0;1.269406199E0
4.230320000E0;2.572041273E0;2.240671158E0;1.522529364E0
4.250094000E0;3.342819452E0;2.027162075E0;9.868746400E-1
4.269975000E0;3.319900036E0;2.101391315E0;7.761355042E-1
4.280018000E0;3.263348818E0;2.096787930E0;4.958926141E-1
4.300138000E0;2.832219839E0;2.209497452E0;3.414843976E-1
4.319962000E0;2.635650635E0;2.030354977E0;4.433513880E-1
4.341406000E0;2.448153019E0;1.614245892E0;8.569236994E-1
4.360058000E0;1.246944904E0;6.755194664E-1;1.538425684E0
4.379975000E0;5.371417999E-1;-2.662730217E-1;1.660534382E0
4.389979000E0;2.485666275E-1;-8.895506859E-1;1.245990872E0
4.399979000E0;-4.315423965E-2;-1.392402649E0;5.342354774E-1
4.409982000E0;-2.535176277E-1;-1.852195263E0;-2.380561829E-1
4.429971000E0;5.257844925E-2;-2.638123035E0;-1.493548989E0
4.440106000E0;6.401896477E-1;-3.613611221E0;-1.664028406E0
4.460093000E0;9.886393547E-1;-4.989803314E0;-1.804834008E0
4.480220000E0;1.092058182E0;-6.153691292E0;-1.991678476E0
4.491321000E0;7.092638016E-1;-6.651218891E0;-1.835784674E0
4.510056000E0;7.253074646E-2;-7.055205345E0;-9.669108987E-1
4.529971000E0;-1.486635208E-1;-6.562817097E0;-2.053451836E-1
4.540008000E0;-1.617431641E-1;-6.224867344E0;-2.746391296E-2
4.560180000E0;1.178002357E-1;-5.716632843E0;5.672901869E-2
4.580007000E0;8.945865631E-1;-5.343461990E0;2.492150068E-1
4.590182000E0;1.283315659E0;-5.130983353E0;7.760962248E-1
4.609981000E0;9.925596714E-1;-4.586109161E0;3.045865297E0
4.620038000E0;1.356267929E-1;-4.208049774E0;3.882306337E0
4.630451000E0;-2.384387970E0;-3.387689590E0;3.031392574E0
4.649952000E0;-3.714668751E0;-2.129063606E0;-9.272230268E-1
4.659971000E0;-3.589366913E0;-1.500964165E0;-3.186291695E0
4.669980000E0;-3.123307467E0;-1.098296165E0;-5.008535385E0
4.680125000E0;-2.171120167E0;-7.875003815E-1;-6.192126751E0
4.699975000E0;-1.632692814E-1;-6.253871918E-1;-5.518973827E0
4.710458000E0;7.685968876E-1;-6.156682968E-1;-4.168560505E0
4.730070000E0;1.549324989E0;-5.870504379E-1;-8.984320760E-1
4.740252000E0;1.691492200E0;-5.419502258E-1;3.988292217E-1
4.760022000E0;1.765079260E0;-4.136991501E-1;1.577281475E0
4.770613000E0;1.847097516E0;-2.990226746E-1;1.423481464E0
4.790570000E0;1.727003455E0;1.260957718E-1;6.019660830E-1
4.810246000E0;1.652874827E0;7.208786011E-1;1.364902556E-1
4.830210000E0;1.261338592E0;1.417853355E0;9.517738223E-2
4.840282000E0;1.057723522E0;1.549051285E0;-6.591625512E-2
4.860510000E0;7.953848839E-1;1.815262318E0;-3.023796082E-1
4.880697000E0;7.266306877E-1;2.197088242E0;-4.525809884E-1
4.900185000E0;6.066257954E-1;2.775241852E0;-5.748127103E-1
4.910258000E0;5.862760544E-1;3.069643497E0;-6.239411831E-1
4.930458000E0;4.991784096E-1;3.637633801E0;-9.502668977E-1
4.950221000E0;9.992647171E-2;3.923086643E0;-1.022875071E0
4.960442000E0;1.072478294E-2;3.902338982E0;-1.085081577E0
4.970535000E0;8.737564087E-2;3.729300022E0;-1.178463936E0
4.990462000E0;4.151978493E-1;3.416356564E0;-1.079130888E0
5.010491000E0;5.068018436E-1;3.097653389E0;-6.035270691E-1
5.030515000E0;-4.613304138E-2;3.092169762E0;-6.195820570E-1
5.050225000E0;-3.672292233E-1;3.164469242E0;-6.885778904E-1
5.060238000E0;-4.023268223E-1;3.013666153E0;-6.966942549E-1
5.070326000E0;-3.862743378E-1;2.780390739E0;-7.726245522E-1
5.090237000E0;4.546976089E-2;2.331980228E0;-8.894369006E-1
5.110479000E0;8.606219292E-2;2.097607613E0;-4.960471988E-1
5.120575000E0;1.083109379E-1;1.997330189E0;-3.994306922E-1
5.140309000E0;2.085452080E-1;1.958477974E0;-4.353083670E-1
5.160292000E0;1.385493279E-1;2.039203644E0;-4.639353156E-1
5.180167000E0;2.080972195E-1;2.363244534E0;-1.857683659E-1
5.199961000E0;2.417888641E-1;2.760729313E0;2.509057224E-1
5.211324000E0;4.799306393E-1;3.209834576E0;2.264104784E-1
5.230719000E0;7.683296204E-1;3.473904610E0;-1.745560765E-1
5.250257000E0;7.726449966E-1;3.541467667E0;-5.961296558E-1
5.270312000E0;7.219841480E-1;2.842164993E0;-7.589955330E-1
5.290187000E0;7.616932392E-1;1.769636154E0;-2.516039312E-1
5.310533000E0;3.414807320E-1;4.212369919E-1;-4.929775596E-1
5.330180000E0;-2.248783112E-1;-1.131610870E0;-1.028243303E0
5.340502000E0;-4.642872810E-1;-2.062760353E0;-1.785917521E0
5.360343000E0;-7.664749622E-1;-4.057858467E0;-2.477742434E0
5.380460000E0;-1.114830256E0;-5.653901100E0;-1.755317211E0
5.400202000E0;-1.576015234E0;-7.504890442E0;-1.494895458E0
5.420139000E0;-1.212692022E0;-1.077938747E1;-9.563739300E-1
5.430217000E0;-1.112579823E0;-1.134643555E1;-4.223586023E-1
5.450231000E0;-1.077709675E0;-1.047182941E1;6.596133709E-1
5.470152000E0;-6.036911011E-1;-7.532982826E0;1.389472604E0
5.480275000E0;-6.229021549E-1;-5.932115555E0;1.425257206E0
5.490555000E0;-7.737283707E-1;-4.411158562E0;1.508193016E0
5.511600000E0;-7.873344421E-1;-1.542788506E0;1.117980599E0
5.530259000E0;-1.128989816E0;4.011201859E-1;1.363961399E-1
5.550160000E0;-1.467270374E0;2.198058605E0;-1.404153466E0
5.560421000E0;-1.744449496E0;2.655094147E0;-2.561245203E0
5.570599000E0;-1.882271528E0;3.053710461E0;-3.647076130E0
5.590520000E0;-1.746591806E0;3.305855274E0;-4.153815269E0
5.610996000E0;-1.590875387E0;1.545054436E0;-1.570757627E0
5.630296000E0;-1.688259959E0;1.066886902E0;7.164160609E-1
5.650219000E0;-1.985838413E0;1.086439133E0;1.217618108E0
5.661400000E0;-2.071754217E0;1.260378838E0;1.295421481E0
5.680288000E0;-2.045014381E0;1.266746521E0;7.958552241E-1
5.700318000E0;-1.782258272E0;1.272979736E0;5.879243612E-1
5.720272000E0;-1.347947121E0;1.200469971E0;5.497340560E-1
5.730312000E0;-1.489722729E0;8.986806870E-1;3.295171857E-1
5.740484000E0;-1.828492880E0;4.030313492E-1;8.783580363E-2
5.760564000E0;-2.066453218E0;-5.687999725E-2;-1.988420784E-1
5.780459000E0;-1.902586699E0;-2.026653290E-2;-2.593395114E-1
5.790944000E0;-1.834907532E0;9.949016571E-2;5.200901628E-2
5.810302000E0;-1.263551474E0;4.984445572E-1;1.242525339E0
5.820326000E0;-8.241937160E-1;5.129957199E-1;1.680868626E0
5.830872000E0;-2.857077122E-1;5.337953568E-1;2.108822823E0
5.850193000E0;7.459759712E-1;6.296195984E-1;2.787343979E0
5.860384000E0;1.072807550E0;5.336637497E-1;2.920442343E0
5.880303000E0;1.213782787E0;4.982309341E-1;3.334639072E0
5.890489000E0;1.082833052E0;3.346986771E-1;3.314847469E0
5.910497000E0;9.354732037E-1;9.492874146E-3;3.295539856E0
5.930195000E0;6.025292873E-1;7.229804993E-2;2.976038694E0
5.940229000E0;5.627558231E-1;2.035961151E-1;2.802561998E0
5.950509000E0;6.040027142E-1;3.401556015E-1;2.584183693E0
5.970207000E0;8.677458763E-1;6.004443169E-1;2.298474073E0
5.980209000E0;1.066187143E0;7.719244957E-1;2.104493618E0
5.990293000E0;1.246828794E0;9.263343811E-1;1.985275030E0
6.010614000E0;1.857506514E0;1.516781807E0;1.687557220E0
6.030124000E0;2.400916815E0;1.784553528E0;1.918346405E0
6.040240000E0;2.576161146E0;1.946897507E0;1.998842716E0
6.050304000E0;2.741603851E0;2.116471291E0;2.052316189E0
6.060752000E0;2.801587582E0;2.267015934E0;1.923627853E0
6.080188000E0;2.883317947E0;2.493339062E0;1.697487116E0
6.090226000E0;2.873087645E0;2.587758541E0;1.544923425E0
6.110268000E0;2.870619297E0;2.538844585E0;1.050523400E0
6.120379000E0;2.777678967E0;2.313463688E0;8.553793430E-1
6.130566000E0;2.695815086E0;1.974346638E0;7.199877501E-1
6.150221000E0;2.023275852E0;8.270101547E-1;1.120930433E0
6.160276000E0;1.521982193E0;1.086330414E-1;1.482029319E0
6.180366000E0;4.763770103E-1;-1.304011822E0;2.360178471E0
6.200161000E0;-5.187129974E-2;-2.111090660E0;2.897843838E0
6.210248000E0;1.031064987E-2;-2.182226658E0;2.128289461E0
6.230362000E0;3.215699196E-1;-2.435461521E0;4.438269138E-2
6.240419000E0;6.203832626E-1;-2.891107559E0;-5.434601307E-1
6.250712000E0;1.292870998E0;-3.608720779E0;-6.339766979E-1
6.270209000E0;2.589857817E0;-5.195640564E0;4.343032837E-1
6.290490000E0;3.135994196E0;-6.728645802E0;5.170124173E-1
6.310474000E0;2.775795460E0;-7.769208431E0;1.504695415E-2
6.330285000E0;1.684372425E0;-8.090926170E0;-6.112679243E-1
6.350207000E0;1.242227077E0;-7.431691170E0;-2.402834296E-1
6.360270000E0;1.219882488E0;-6.706471443E0;5.827450156E-1
6.380515000E0;5.253758430E-1;-5.600440979E0;2.378054142E0
6.391077000E0;2.147493362E-1;-4.232775688E0;2.613643169E0
6.410537000E0;-7.568712234E-1;-3.112731934E0;2.510924816E0
6.430519000E0;-2.440227985E0;-2.032314301E0;1.402739882E0
6.450243000E0;-2.510259151E0;-5.738201141E-1;-2.658874989E0
6.460313000E0;-2.000761747E0;-2.049446106E-1;-4.901964664E0
6.481904000E0;-1.973867416E-2;2.918806076E-1;-6.501820564E0
6.500308000E0;1.956880808E0;1.495742798E-1;-3.538790941E0
6.511153000E0;2.543052673E0;-1.302194595E-1;-1.511672735E0
6.530233000E0;2.923194170E0;-2.995452881E-1;1.945577383E0
6.550590000E0;2.478092194E0;-2.057676315E-1;3.045426846E0
6.560711000E0;2.044881582E0;2.202892303E-2;3.109423399E0
6.580171000E0;9.127885103E-1;4.073066711E-1;2.100260735E0
6.590201000E0;4.614393711E-1;8.490505219E-1;1.204843760E0
6.600258000E0;4.109432697E-1;1.002040863E0;8.216094971E-1
6.610551000E0;4.303828478E-1;1.185471535E0;5.421696901E-1
6.630210000E0;3.200939894E-1;1.354650497E0;3.413564563E-1
6.640219000E0;1.892974377E-1;1.337525368E0;3.173239231E-1
6.650298000E0;1.522169113E-1;1.436381340E0;2.893219590E-1
6.670156000E0;-1.001355648E-1;1.753894329E0;7.775098085E-2
6.680216000E0;-2.276597023E-1;2.087309361E0;-1.328805387E-1
6.690319000E0;-2.814168930E-1;2.348167419E0;-4.521543086E-1
6.710254000E0;-2.657395601E-1;2.483310699E0;-1.024425268E0
6.730234000E0;-2.134619951E-1;2.727059841E0;-4.793616831E-1
6.740578000E0;-3.320323229E-1;2.792676449E0;-2.856261432E-1
6.760210000E0;-3.187737465E-1;3.296418667E0;-6.049144268E-2
6.770467000E0;-2.678005695E-1;3.502259731E0;-1.610664725E-1
6.790533000E0;5.826210976E-2;4.107527256E0;-2.269986868E-1
6.810499000E0;1.777218580E-1;4.375237942E0;-2.804306746E-1
6.830244000E0;2.384589911E-1;4.759121895E0;-2.754610181E-1
6.840283000E0;3.339699507E-1;4.841696739E0;-5.605554581E-1
6.860635000E0;5.678068399E-1;4.882211208E0;-8.542093635E-1
6.880224000E0;6.089032888E-1;4.689208031E0;-9.316346645E-1
6.900728000E0;7.078213692E-1;4.532307148E0;-8.982765079E-1
6.920132000E0;5.829887390E-1;4.522259235E0;-5.775673985E-1
6.930222000E0;5.006046295E-1;4.564335346E0;-5.075658560E-1
6.940412000E0;3.330891132E-1;4.535903931E0;-5.556241870E-1
6.950532000E0;2.551920414E-1;4.488169670E0;-6.332131624E-1
6.970181000E0;-4.646086693E-2;4.056700230E0;-5.576602221E-1
6.980276000E0;-7.468905449E-1;2.530887127E0;-5.506205559E-1
7.005262000E0;-8.010501862E-1;-8.091926575E-2;-1.158320665E0
7.020446000E0;-4.713764191E-1;-2.077618599E0;-7.468415499E-1
7.040201000E0;-5.287058353E-1;-3.184967041E0;9.718149900E-3
7.060201000E0;-1.240686417E0;-4.831426620E0;-7.277009487E-1
7.080280000E0;-6.935153008E-1;-6.931563377E0;-1.864359617E0
7.090443000E0;-5.190758705E-1;-7.895923615E0;-1.962189794E0
7.110529000E0;-1.063112497E0;-1.002016926E1;-2.165858030E0
7.130530000E0;-1.396693230E0;-1.056113720E1;-1.478983283E0
7.150127000E0;-1.813217521E0;-8.573881149E0;-2.510014176E-1
7.160391000E0;-1.762802482E0;-7.181281090E0;3.435076177E-1
7.170510000E0;-1.583445191E0;-5.373025894E0;1.598921180E0
7.190009000E0;-3.230862141E0;-1.411047935E0;2.409797192E0
7.210247000E0;-3.943170309E0;3.257656097E-2;-1.173097610E0
7.230161000E0;-3.214371681E0;1.499450684E0;-4.422559738E0
7.240312000E0;-3.394681692E0;2.085416794E0;-5.323539257E0
7.250442000E0;-3.717622280E0;2.673950195E0;-5.387968540E0
7.270144000E0;-3.595245361E0;3.141962528E0;-5.276726246E0
7.280362000E0;-3.021779537E0;3.115205765E0;-4.537307262E0
7.299976000E0;-2.329438210E0;2.333550930E0;-1.770695329E0
7.310033000E0;-1.768400431E0;2.105073452E0;-3.744291961E-1
7.320221000E0;-1.302501798E0;1.962795734E0;7.014630437E-1
7.330512000E0;-9.998698235E-1;1.920269966E0;1.271442890E0
7.350502000E0;-1.357233047E0;1.773178101E0;1.348953247E0
7.361033000E0;-2.536976576E0;5.547771454E-1;8.448835015E-1
7.380205000E0;-2.546463251E0;-4.722576141E-1;1.421941519E0
7.390254000E0;-2.366610765E0;-1.007191658E0;1.921814561E0
7.410327000E0;-2.100470304E0;-1.552087784E0;3.291559935E0
7.420387000E0;-2.011809349E0;-1.673161507E0;3.699240685E0
7.440223000E0;-1.700218201E0;-1.349678993E0;3.973131657E0
7.460512000E0;-1.673109055E0;-9.126148224E-1;3.400618315E0
7.480245000E0;-1.827136278E0;-1.253097534E0;2.882425785E0
7.490328000E0;-1.653904200E0;-1.281538963E0;3.178647518E0
7.510271000E0;-1.138521671E0;-1.382596970E0;4.054042339E0
7.530201000E0;-2.832012177E-1;-1.358705521E0;4.235200882E0
7.540758000E0;7.256889343E-2;-1.284880638E0;4.126084805E0
7.560194000E0;4.362730980E-1;-1.177818298E0;3.664218187E0
7.570661000E0;5.980501175E-1;-1.263460159E0;3.332106113E0
7.590719000E0;1.233250618E0;-1.327312469E0;3.456712723E0
7.610464000E0;1.724461794E0;-1.153466225E0;3.711575270E0
7.630276000E0;2.213119030E0;-9.208998680E-1;3.495018005E0
7.642588000E0;2.506233215E0;-7.417421341E-1;3.427480936E0
7.660339000E0;2.994405031E0;-4.095649719E-1;3.303288937E0
7.670524000E0;3.176338196E0;-1.419258118E-1;3.287104607E0
7.690246000E0;3.562347174E0;2.854318619E-1;3.036372662E0
7.700357000E0;3.739774227E0;5.384278297E-1;3.002180576E0
7.720157000E0;3.877728462E0;1.002784729E0;2.728838444E0
7.730174000E0;3.989987612E0;1.249225140E0;2.538292408E0
7.740419000E0;4.023190498E0;1.436525822E0;2.325530529E0
7.760237000E0;4.184688091E0;1.806669712E0;2.233057976E0
7.780255000E0;4.357226372E0;2.076882362E0;2.208084106E0
7.790317000E0;4.453967094E0;2.087287903E0;2.114524841E0
7.800317000E0;4.521698475E0;2.034208775E0;2.065297842E0
7.810533000E0;4.487997055E0;2.009638309E0;1.933516741E0
7.830319000E0;3.947424650E0;1.764305115E0;1.278810501E0
7.840363000E0;3.480080605E0;1.587772846E0;9.946619272E-1
7.850530000E0;2.724295139E0;1.195223331E0;6.585980058E-1
7.870204000E0;9.377498627E-1;4.170846939E-1;-8.532679081E-2
7.880603000E0;-3.257179260E-2;2.255988121E-1;-6.169201136E-1
7.900209000E0;-1.500666142E0;6.087684631E-2;-1.315474153E0
7.910645000E0;-1.788629055E0;-7.541751862E-2;-1.243949652E0
7.930274000E0;-9.058184624E-1;-4.872069359E-1;-5.521346331E-1
7.950189000E0;6.021957397E-1;-1.910301685E0;4.567152858E-1
7.960353000E0;1.410608292E0;-2.496450901E0;2.257055640E-1
7.980212000E0;3.434137344E0;-4.443460941E0;-6.569325924E-2
7.994706000E0;4.098002434E0;-4.902745247E0;-2.719093561E-1
8.010334000E0;3.667371035E0;-5.659337044E0;-2.620011568E-1
8.030211000E0;1.875800610E0;-5.903623104E0;-1.734331846E-1
8.050300000E0;6.117630005E-1;-6.337395668E0;-7.239001989E-1
8.060793000E0;3.842644691E-1;-6.430071354E0;-1.021751881E0
8.080190000E0;6.661896706E-1;-6.020691395E0;-9.598857164E-1
8.091597000E0;5.941972733E-1;-5.635551453E0;-3.046121597E-1
8.110740000E0;-4.348554611E-1;-4.498267174E0;7.215654254E-1
8.130181000E0;-1.956933498E0;-3.066401482E0;-4.299461842E-3
8.140191000E0;-2.808283806E0;-2.338071823E0;-7.137718797E-1
8.150204000E0;-3.571065426E0;-1.879036903E0;-1.807098389E0
8.160205000E0;-4.187501431E0;-6.167535782E-1;-2.822217941E0
8.170699000E0;-4.540408611E0;-2.470960617E-1;-3.727747202E0
8.190278000E0;-4.068095207E0;1.797733307E-1;-5.035856724E0
8.200359000E0;-3.344823122E0;-4.314327240E-2;-5.081521511E0
8.220135000E0;-1.248826027E0;-6.555681229E-1;-3.600832462E0
8.230158000E0;-2.863976955E-1;-1.060203552E0;-2.420370102E0
8.240233000E0;5.724694729E-1;-1.321629524E0;-1.312836289E0
8.260236000E0;1.628652453E0;-1.515177727E0;1.139217615E0
8.280548000E0;1.868243933E0;-1.128704071E0;2.967251062E0
8.300203000E0;7.151644230E-1;-3.407344818E-1;2.871479273E0
8.310212000E0;7.956457138E-2;2.117710114E-1;1.880113363E0
8.330470000E0;-1.036782265E0;1.205325127E0;-3.723121285E-1
8.340603000E0;-1.309447289E0;1.636120319E0;-1.185881615E0
8.360391000E0;-8.920741081E-1;2.415481091E0;-1.924738646E0
8.380513000E0;-3.107590675E-1;2.533441544E0;-1.260319710E0
8.400374000E0;-2.320814133E-2;2.821476460E0;-1.903956532E-1
8.420177000E0;1.962995529E-1;2.977037430E0;9.311389923E-2
8.430186000E0;2.334830761E-1;2.969120979E0;1.308665872E-1
8.440195000E0;2.319662571E-1;3.031810284E0;2.678075135E-1
8.450223000E0;1.412305832E-1;3.263714314E0;4.091790617E-1
8.460293000E0;-4.004263878E-2;3.461188316E0;5.130586624E-1
8.480319000E0;-3.954403400E-1;3.693548679E0;4.788806140E-1
8.500352000E0;-5.667157173E-1;3.457614422E0;3.395046592E-1
8.520214000E0;-5.047752857E-1;3.293673992E0;5.032927394E-1
8.530359000E0;-4.674232006E-1;3.286443710E0;4.051134884E-1
8.540395000E0;-5.405242443E-1;3.167497158E0;3.005213737E-1
8.560197000E0;-6.526172161E-1;2.809543133E0;-5.077581406E-1
8.580329000E0;-5.398960114E-1;2.210522175E0;-5.178970695E-1
8.590358000E0;-5.441250801E-1;1.882165909E0;-1.447350383E-1
8.610273000E0;-4.878573418E-1;1.363200188E0;6.184653044E-1
8.630299000E0;-2.819559574E-1;1.019632339E0;8.459144831E-1
8.650157000E0;5.694150925E-2;7.063694000E-1;7.243881226E-1
8.660699000E0;8.739256859E-2;7.337837219E-1;7.443065047E-1
8.680261000E0;1.714630127E-1;1.341896057E0;5.983372331E-1
8.690690000E0;1.606740952E-1;1.751902580E0;4.005127251E-1
8.710224000E0;2.926573753E-1;2.658413887E0;-3.136605024E-1
8.730309000E0;5.856896639E-1;3.508987427E0;-5.211826563E-1
8.750182000E0;9.556609392E-1;4.403511047E0;-1.926811337E-1
8.770118000E0;7.102144957E-1;4.792319298E0;-4.597589076E-1
8.780198000E0;4.153460264E-1;4.879309177E0;-8.148963451E-1
8.790468000E0;5.201435089E-2;4.846902847E0;-1.215336323E0
8.810239000E0;-6.132767200E-1;4.336614132E0;-2.217602253E0
8.830230000E0;-1.713461876E0;2.080056667E0;-2.997411013E0
8.850158000E0;-2.015824556E0;-1.340892792E0;-1.934227586E0
8.860540000E0;-1.800860643E0;-2.985880852E0;-1.065471888E0
8.880186000E0;-1.469278574E0;-5.472950935E0;5.601624250E-1
8.900408000E0;-1.290515423E0;-7.069882393E0;9.388257861E-1
8.920306000E0;-1.464488745E0;-8.777416229E0;-1.825699359E-1
8.944838000E0;-1.134890318E0;-1.115394020E1;7.078421861E-2
8.960737000E0;-3.486733437E-1;-1.009289169E1;1.866115212E0
8.980157000E0;-1.317310333E0;-7.448728561E0;4.129721165E0
8.990314000E0;-2.297925949E0;-6.110706329E0;3.966046572E0
9.010268000E0;-3.545381546E0;-2.748395920E0;1.687557578E0
9.031709000E0;-4.944998264E0;-5.868339539E-1;-3.857270718E0
9.050205000E0;-4.810390949E0;1.401892662E0;-7.107319832E0
9.060710000E0;-4.588641167E0;2.247978687E0;-7.184042454E0
9.080007000E0;-4.262962341E0;3.072365284E0;-5.296030521E0
9.094581000E0;-3.823123932E0;2.989294052E0;-3.922441721E0
9.110028000E0;-2.737381935E0;2.018740654E0;-1.822069287E0
9.120168000E0;-2.203455448E0;1.484116554E0;-1.332895160E0
9.140194000E0;-2.012418747E0;9.109010696E-1;-2.897245884E-1
9.150194000E0;-1.816273689E0;1.031737328E0;-4.065557420E-1
9.160214000E0;-1.548470974E0;1.089358330E0;-6.674380302E-1
9.180335000E0;-1.780239344E0;5.463485718E-1;-1.566873550E0
9.200315000E0;-1.981472969E0;-5.906772614E-2;-2.168487310E0
9.220161000E0;-1.606205225E0;-5.346193314E-1;-1.841674089E0
9.230221000E0;-1.281812668E0;-7.033300400E-1;-1.128377914E0
9.250172000E0;-4.700050354E-1;-9.740762711E-1;5.636198521E-1
9.260411000E0;-8.561975956E-1;-1.602471352E0;1.228829980E0
9.270425000E0;-1.186835766E0;-2.433776855E0;1.644073725E0
9.290185000E0;-5.001087189E-1;-3.105944633E0;2.927325010E0
9.300247000E0;-1.065826416E-1;-3.243259430E0;3.559669971E0
9.310329000E0;1.838850975E-1;-3.160533905E0;4.230722427E0
9.330168000E0;7.570819855E-1;-2.735215187E0;5.403655529E0
9.340274000E0;1.155538082E0;-2.058403969E0;5.488656998E0
9.360179000E0;1.877871752E0;-1.782932281E0;4.541517258E0
9.380725000E0;2.319294930E0;-2.131960869E0;4.220442772E0
9.400159000E0;2.207020283E0;-2.682430267E0;4.511274338E0
9.410524000E0;2.207379103E0;-2.571618557E0;4.672912121E0
9.430210000E0;1.647187710E0;-2.131388664E0;4.528236389E0
9.450270000E0;9.408397675E-1;-1.278274059E0;4.136739731E0
9.460485000E0;8.144936562E-1;-8.900976181E-1;3.946298599E0
9.480385000E0;1.191048145E0;-3.461847305E-1;3.535684109E0
9.500172000E0;2.035290003E0;-1.440906525E-2;3.296242237E0
9.510667000E0;2.428444624E0;1.984338760E-1;3.218379974E0
9.530209000E0;2.939611912E0;5.068283081E-1;2.855507612E0
9.540815000E0;3.179419994E0;9.013652802E-1;2.573471546E0
9.560202000E0;3.186738968E0;1.418151855E0;2.045154572E0
9.570228000E0;3.059582233E0;1.599342346E0;1.852471590E0
9.580244000E0;2.948773146E0;1.793092728E0;1.745449543E0
9.590260000E0;2.922137260E0;1.994112968E0;1.683489680E0
9.610222000E0;3.247362852E0;2.105075836E0;1.579904795E0
9.630264000E0;3.671111584E0;2.173583031E0;1.547690630E0
9.650362000E0;3.758180618E0;2.213881016E0;1.520651340E0
9.670248000E0;3.248540163E0;1.842974186E0;1.761548042E0
9.690206000E0;2.146307468E0;1.519504547E0;2.194384575E0
9.710290000E0;8.263731003E-1;1.330594063E0;1.859277725E0
9.720495000E0;3.404855728E-1;1.446899414E0;1.447989941E0
9.740324000E0;1.131038666E-1;1.426193237E0;-6.025503874E-1
9.760212000E0;8.178753853E-1;8.482980728E-2;-7.738937140E-1
9.770536000E0;1.224148750E0;-6.394119263E-1;-8.640660048E-1
9.791609000E0;1.823903561E0;-1.539909363E0;-1.110535383E0
9.810306000E0;1.688941956E0;-1.728906631E0;-1.647752166E0
9.820444000E0;1.349549294E0;-1.649344921E0;-2.099704504E0
9.840145000E0;8.396077156E-1;-1.867075920E0;-3.029190063E0
9.850351000E0;4.912681580E-1;-2.052415371E0;-3.275754213E0
9.860810000E0;2.243547440E-1;-2.439128876E0;-3.493984938E0
9.880331000E0;5.006694794E-1;-3.895752430E0;-3.609257698E0
9.900292000E0;1.211745739E0;-5.454196930E0;-2.349489689E0
9.910519000E0;1.382998466E0;-5.688915253E0;-1.187454343E0
9.930252000E0;6.765775681E-1;-4.843620300E0;6.758300066E-1
9.941184000E0;4.884910583E-1;-4.148839951E0;3.466892242E-1
9.960275000E0;7.856202126E-1;-2.710508347E0;-1.142677665E0
9.980237000E0;6.364183426E-1;-1.303496361E0;-7.938860655E-1
9.990298000E0;2.192058563E-1;-9.116930962E-1;-5.916326046E-1
1.001023700E1;-7.551631927E-1;-7.159290314E-1;-7.441052198E-1
1.003054500E1;-1.541196823E0;-8.463220596E-1;-1.782223105E0
1.005021700E1;-1.575644493E0;-9.987182617E-1;-2.363048553E0
1.007068300E1;-9.579520226E-1;-1.418623924E0;-2.107967615E0
1.009022400E1;-2.975463867E-2;-2.106070518E0;-7.972936630E-1
1.011052200E1;1.448787689E0;-2.241522789E0;5.428629518E-1
1.013018800E1;2.439503670E0;-1.900269508E0;2.111689568E0
1.014035700E1;2.012036085E0;-1.498158455E0;2.692546844E0
1.016024700E1;4.690840244E-1;-4.180831909E-1;2.804669380E0
1.018017700E1;-6.449720860E-1;3.152666092E-1;8.162281513E-1
1.019060600E1;-7.760088444E-1;5.461664200E-1;-4.467447996E-1
1.021059300E1;-8.665931225E-1;7.737283707E-1;-2.084263563E0
1.023026800E1;-6.425526142E-1;7.282085419E-1;-2.564091921E0
1.024042900E1;-5.433163643E-1;7.781820297E-1;-2.031295538E0
1.026026100E1;-7.544672489E-1;9.602470398E-1;-7.141079903E-1
1.028020000E1;-1.169906139E0;1.492949486E0;3.800447583E-1
1.029060500E1;-1.319010496E0;1.727076054E0;5.659575462E-1
1.031033200E1;-1.157971621E0;1.918618202E0;4.795093536E-1
1.033054500E1;-7.256386280E-1;2.178228855E0;8.860974908E-1
1.035095000E1;-5.112903118E-1;2.324476719E0;9.794716835E-1
1.037025700E1;-4.280266762E-1;2.631602287E0;7.410250306E-1
1.039019000E1;-4.749736786E-1;3.016749382E0;5.183560848E-1
1.041032600E1;-5.209734440E-1;3.327580452E0;4.460352659E-1
1.043019900E1;-3.935217857E-1;3.570310593E0;4.640145302E-1
1.044169100E1;-4.052681923E-1;3.823418617E0;7.340037227E-1
1.046020000E1;-6.401014328E-1;4.245106697E0;7.319015265E-1
1.048020900E1;-8.184919357E-1;4.754471302E0;5.290364027E-1
1.049062700E1;-5.850250721E-1;5.031807899E0;8.172869682E-2
1.051026200E1;-3.158237934E-1;5.455484390E0;-7.240014076E-1
1.053024800E1;-2.985715866E-1;5.740751266E0;-4.001289010E-1
1.055020400E1;-2.976987362E-1;5.372387886E0;-2.000964582E-1
1.057001200E1;2.748939991E-1;4.393385410E0;-6.219266057E-1
1.059004500E1;1.038528681E0;3.118737698E0;-2.049690336E-1
1.061026200E1;3.968617916E-1;5.932569504E-1;-3.346866965E-1
1.063017300E1;-1.278808117E-1;-2.273633003E0;-8.076093197E-1
1.064025300E1;1.344807148E-1;-3.237802505E0;-8.631553054E-1
1.066020100E1;2.095806599E-1;-4.892104149E0;-5.997235775E-1
1.068019300E1;-4.066915512E-1;-6.389299393E0;-1.105650067E0
1.069026900E1;-6.124458313E-1;-7.482676506E0;-2.308046103E0
1.071021300E1;-3.976011276E-2;-1.101656723E1;-4.305123329E0
1.072021500E1;1.916143894E-1;-1.215533924E1;-4.367728710E0
1.073047900E1;1.248164177E-1;-1.278769112E1;-3.682859898E0
1.075035600E1;2.251329422E-1;-1.012361145E1;3.004857302E-1
1.077032500E1;-2.222620487E0;-6.615638733E0;2.221071482E0
1.079025500E1;-4.677866936E0;-3.934802055E0;1.163926363E0
1.081030400E1;-5.726922989E0;-1.788490295E0;-8.172153831E-1
1.083052900E1;-5.976366043E0;2.042093277E-1;-2.915247202E0
1.085051700E1;-5.674933434E0;2.018620014E0;-4.468109131E0
1.087018300E1;-5.083734512E0;2.659408569E0;-4.936026573E0
1.088023300E1;-4.848446369E0;2.329650879E0;-4.278748512E0
1.089030100E1;-4.251246929E0;2.146658421E0;-3.143419981E0
1.090051900E1;-3.870620251E0;1.846146107E0;-9.708233476E-1
1.092024300E1;-2.480481148E0;1.761693954E0;7.976288795E-1
1.093028200E1;-1.855614662E0;1.997931004E0;1.313681722E0
1.094037400E1;-1.396820784E0;2.165715694E0;1.656658053E0
1.096022900E1;-7.721171379E-1;2.494012356E0;2.269643545E0
1.098020900E1;-3.480842113E-1;2.167664051E0;2.212676048E0
1.099025300E1;-9.516286850E-2;1.859531403E0;2.158799171E0
1.101027400E1;2.765035629E-1;1.028362274E0;2.258129120E0
1.102033800E1;3.565223217E-1;6.460790634E-1;2.434129238E0
1.103214000E1;4.580998421E-1;2.524900436E-1;2.472373724E0
1.105005400E1;6.068851948E-1;-4.679746628E-1;2.120895147E0
1.106012000E1;5.973582268E-1;-6.793956757E-1;2.151024342E0
1.107103000E1;5.244419575E-1;-9.251918793E-1;2.109631777E0
1.109019400E1;1.844620705E-1;-1.287208557E0;2.460973978E0
1.111015800E1;-4.452114105E-1;-1.061356544E0;3.534641266E0
1.113008900E1;-6.731762886E-1;-5.878772736E-1;4.274374485E0
1.114033400E1;-7.511434555E-1;-3.527708054E-1;4.410698891E0
1.116005100E1;-7.849264145E-1;3.977584839E-2;4.263527870E0
1.117026300E1;-8.253946304E-1;1.424741745E-1;3.922524691E0
1.119022200E1;-5.363011360E-1;2.907447815E-1;3.082362890E0
1.121001900E1;1.822676659E-1;8.603620529E-2;2.026832581E0
1.122020300E1;4.596395493E-1;4.415607452E-2;1.969381094E0
1.124018500E1;9.201169014E-1;-1.480917931E-1;2.050382376E0
1.126029000E1;1.510979652E0;-3.954138756E-1;2.282512426E0
1.128023800E1;2.335594177E0;-5.696291924E-1;2.649118900E0
1.130011400E1;3.189581394E0;-4.983510971E-1;3.092388153E0
1.131051100E1;3.468572855E0;-4.135675430E-1;3.102270603E0
1.133017000E1;3.888266325E0;-7.232856750E-2;3.492057800E0
1.134021700E1;4.062226295E0;7.807683945E-2;3.462521791E0
1.135024800E1;4.234009266E0;3.144087791E-1;3.366678238E0
1.137125600E1;4.622603416E0;8.962817192E-1;3.464156628E0
1.139056700E1;4.614202499E0;1.000031471E0;3.320390701E0
1.141031600E1;4.005315781E0;3.281011581E-1;3.127349854E0
1.142032300E1;3.942119360E0;-1.539564133E-1;2.619838715E0
1.143032500E1;4.089788437E0;-6.671342850E-1;1.973804712E0
1.145022500E1;4.484786987E0;-1.760761738E0;7.312281132E-1
1.146145400E1;4.598354816E0;-2.066716671E0;6.724246144E-1
1.148017900E1;3.890934229E0;-2.537359238E0;9.338479042E-1
1.150012400E1;1.978489399E0;-3.478825092E0;-5.688858032E-2
1.151065200E1;1.775128841E0;-3.807442188E0;-9.235405326E-1
1.153022800E1;2.540334225E0;-4.864054680E0;-2.673911810E0
1.155031100E1;2.943288326E0;-6.106959820E0;-2.244472265E0
1.157017300E1;2.996560335E0;-7.221439838E0;1.210404485E-1
1.158027200E1;3.147427082E0;-7.169422150E0;1.461677670E0
1.160024200E1;2.969407320E0;-5.869167328E0;3.196140528E0
1.162014300E1;2.115414619E0;-4.303191185E0;2.551938534E0
1.163022500E1;1.496044159E0;-3.897813797E0;1.823524714E0
1.164029100E1;1.027691841E0;-3.642103195E0;1.243054748E0
1.166032000E1;4.874329567E-1;-3.412172318E0;1.494089961E0
1.168044500E1;-4.239759445E-1;-3.656274796E0;1.967888117E0
1.169063300E1;-1.838978291E0;-3.092904091E0;1.606993914E0
1.171090200E1;-3.882152557E0;-2.232889175E0;-2.345370650E-1
1.173025700E1;-4.052033424E0;-1.049085617E0;-2.740124702E0
1.175020200E1;-2.935382366E0;-5.585651398E-1;-4.290898800E0
1.176027300E1;-2.159262180E0;-5.449762344E-1;-4.200769424E0
1.178019900E1;-6.911387444E-1;-7.700328827E-1;-2.473741531E0
1.179029000E1;-1.653113365E-1;-8.157596588E-1;-1.251562476E0
1.181063000E1;3.966434002E-1;-8.009576797E-1;6.748615503E-1
1.183024200E1;3.448798656E-1;-8.888711929E-1;1.390012860E0
1.184043900E1;1.426126957E-1;-7.228784561E-1;1.483184099E0
1.186037900E1;-2.652890682E-1;-1.790676117E-1;6.093290448E-1
1.188016900E1;-5.755128860E-1;3.928995132E-1;-9.704735875E-1
1.189020300E1;-8.174316883E-1;9.398565292E-1;-1.733756304E0
1.191009900E1;-1.076616049E0;1.559462547E0;-1.992998123E0
1.192041300E1;-1.186638594E0;1.843235016E0;-2.065173149E0
1.194026100E1;-9.948320389E-1;2.182172775E0;-2.173639774E0
1.196034100E1;-6.203105450E-1;2.607799053E0;-1.976091981E0
1.198017900E1;-3.366181850E-1;3.245670319E0;-1.882646322E0
1.199022500E1;-2.052454948E-1;3.565046310E0;-1.953694344E0
1.200140200E1;-1.145977974E-1;3.814315796E0;-2.041818142E0
1.202022400E1;-1.259028912E-1;4.361142159E0;-2.278576374E0
1.204029200E1;-8.723688126E-2;4.669796467E0;-2.722643375E0
1.206030800E1;-4.419827461E-2;4.407249451E0;-3.014011383E0
1.207034300E1;-1.913309097E-3;4.101409912E0;-2.998888016E0
1.209030500E1;4.276807308E-1;3.005466461E0;-2.314846516E0
1.211050000E1;7.361028194E-1;2.525995731E0;-1.485702038E0
1.213025100E1;4.429569244E-1;1.821033478E0;-5.200479627E-1
1.215030300E1;1.998114586E-2;1.250279427E0;2.370850146E-1
1.217003500E1;-3.450286388E-1;9.550085068E-1;5.217956305E-1
1.218013300E1;-5.432476997E-1;8.814468384E-1;4.167085886E-1
1.219028800E1;-7.210962772E-1;9.552278519E-1;4.936638176E-1
1.221033100E1;-6.111416817E-1;1.255492210E0;3.678735197E-1
1.223025700E1;-3.334441185E-1;1.496723175E0;1.023562104E-1
1.225020200E1;1.001453400E-2;1.636612892E0;-1.229232028E-1
1.226021200E1;6.995558739E-2;1.747568130E0;1.316577047E-1
1.228042800E1;2.432255745E-1;2.518169403E0;7.122165561E-1
1.229052900E1;3.207402229E-1;2.863622189E0;5.816285610E-1
1.231026900E1;2.370920181E-1;3.596433640E0;4.245827198E-1
1.233026000E1;-1.299881935E-1;3.762669563E0;4.490530491E-2
1.235042900E1;-6.996021271E-1;2.661079407E0;-3.901496530E-1
1.236054500E1;-1.001516104E0;1.787844181E0;-4.637754560E-1
1.238022700E1;-1.488419056E0;-5.795688629E-1;-7.616389990E-1
1.240043000E1;-1.570695400E0;-2.821173668E0;-1.062066913E0
1.242016700E1;-2.050501347E0;-4.663221359E0;-1.554900646E0
1.243019700E1;-2.492528677E0;-5.769107819E0;-2.055519104E0
1.244020600E1;-2.851677656E0;-6.911921501E0;-2.423127890E0
1.246019200E1;-3.165850401E0;-9.577884674E0;-2.288472176E0
1.247048300E1;-2.933199406E0;-1.052415276E1;-1.580139875E0
1.248169100E1;-1.602023602E0;-1.029550743E1;9.122241735E-1
1.250026800E1;-1.455536366E0;-8.319493294E0;3.246775866E0
1.251111600E1;-1.977172375E0;-7.206865311E0;4.306831837E0
1.253002100E1;-3.654823303E0;-4.570866585E0;4.461284161E0
1.254004300E1;-4.376255512E0;-3.538253784E0;3.048006773E0
1.256075600E1;-4.825878620E0;-1.133163452E0;-1.043854952E0
1.258047900E1;-4.581387997E0;1.505743980E0;-5.166952610E0
1.260050800E1;-4.701919556E0;3.205085754E0;-7.026345253E0
1.262021000E1;-4.794247627E0;3.810976982E0;-5.633517742E0
1.264023500E1;-4.531929970E0;2.839693546E0;-1.820415735E0
1.266029200E1;-3.896511555E0;1.056694031E0;1.856986880E0
1.267062300E1;-2.688529015E0;1.233768463E-2;4.176825523E0
1.269019400E1;-1.229552269E0;-4.094543457E-1;4.971528530E0
1.270105700E1;-7.367975712E-1;-4.738368988E-1;4.844221592E0
1.272009800E1;-5.027434826E-1;-7.587127686E-1;4.019426346E0
1.273999100E1;-7.498614788E-1;-7.531757355E-1;3.570601940E0
1.275994600E1;-3.756856918E-1;-6.985425949E-1;3.451936722E0
1.276995000E1;7.853698730E-2;-6.242189407E-1;3.471083879E0
1.277997900E1;5.487859249E-1;-6.319189072E-1;3.460928917E0
1.279992700E1;1.373309135E0;-8.356761932E-1;3.484951735E0
1.281000500E1;1.632137775E0;-9.159803391E-1;3.385067463E0
1.283017900E1;1.844765425E0;-8.680925369E-1;3.494822979E0
1.284996400E1;1.925107002E0;-5.898857117E-1;3.657186985E0
1.286015300E1;1.817149878E0;-3.490858078E-1;3.681593657E0
1.287276300E1;1.758678436E0;9.468841553E-2;3.376419544E0
1.289015000E1;1.988767862E0;4.265522957E-1;3.407713652E0
1.290015800E1;2.118834496E0;5.648312569E-1;3.429206371E0
1.291021000E1;2.275782347E0;6.501321793E-1;3.425048113E0
1.293052100E1;2.629017115E0;6.484408379E-1;3.119096518E0
1.295014600E1;2.891955614E0;6.652441025E-1;2.731811523E0
1.296016100E1;2.901460409E0;6.748332977E-1;2.523530722E0
1.298008600E1;2.788270950E0;6.220355034E-1;2.244403362E0
1.299011600E1;2.784751892E0;6.088428497E-1;2.144382954E0
1.300059400E1;2.749116659E0;6.018362045E-1;2.006111860E0
1.301601800E1;2.619561434E0;5.950675011E-1;1.686063290E0
1.303109700E1;2.530738354E0;5.545382500E-1;1.422818065E0
1.305064600E1;2.386013746E0;3.284630775E-1;9.092892408E-1
1.307017900E1;2.466864347E0;-7.043075562E-2;1.154980779E0
1.308138500E1;2.535289288E0;-8.885288239E-2;1.458469748E0
1.310022500E1;2.604213238E0;-7.968997955E-2;1.927543402E0
1.311056700E1;2.473043203E0;7.442617416E-2;2.029715538E0
1.313026000E1;2.300501108E0;3.694801331E-1;1.782008529E0
1.314037900E1;2.354949951E0;5.672607422E-1;1.630129337E0
1.316028300E1;2.468595505E0;9.021377563E-1;1.295661688E0
1.318020300E1;2.500123978E0;1.410484791E0;1.214384556E0
1.319024800E1;2.578443289E0;1.739074707E0;9.953297377E-1
1.321000600E1;3.150814056E0;2.318571568E0;5.332131386E-1
1.322001000E1;3.363333941E0;2.473935127E0;2.779717147E-1
1.323034400E1;3.454601288E0;2.604913712E0;2.775034904E-1
1.325069600E1;2.725382090E0;2.817823410E0;1.853400469E-2
1.327042700E1;1.205303192E0;1.932557583E0;-2.027529478E-2
1.328061500E1;1.134119511E0;1.358084679E0;-1.311959624E-1
1.329062600E1;8.109612465E-1;1.091596603E0;2.230891585E-1
1.331034100E1;1.410551071E-1;8.328118324E-1;2.458207607E-1
1.333054300E1;-5.341567993E-1;4.256706238E-1;-3.863052726E-1
1.335026600E1;-6.141972542E-1;-4.416894913E-2;-1.965839505E0
1.336038700E1;-5.746312141E-1;-5.184764862E-1;-2.803442478E0
1.338018000E1;-5.376667976E-1;-2.544965267E0;-3.652878523E0
1.339044800E1;-1.256575584E-1;-3.690347195E0;-3.702880859E0
1.341023600E1;2.699532509E-1;-5.674038887E0;-2.625049353E0
1.342033600E1;-4.778862000E-2;-6.689693928E0;-2.058484554E0
1.344020100E1;-1.178040981E0;-7.412438393E0;-9.159218669E-1
1.346023600E1;-2.123154163E0;-5.435541153E0;-4.382400513E-1
1.347065300E1;-2.025729179E0;-4.899208069E0;-1.182783008E0
1.349035700E1;-5.970382690E-1;-4.721431732E0;-2.488586187E0
1.350085700E1;5.621855259E-1;-5.219965935E0;-2.146311283E0
1.352018700E1;1.253548861E0;-5.802060127E0;4.857096672E-1
1.353027200E1;5.671393871E-1;-5.632201195E0;1.443493247E0
1.355020000E1;-1.101793528E0;-3.985898972E0;9.782317877E-1
1.357016900E1;-1.932768583E0;-2.086504936E0;-2.470221519E0
1.358033000E1;-1.992850780E0;-1.420957565E0;-4.267784119E0
1.360028100E1;-1.336507082E0;-1.219404221E0;-5.094826698E0
1.361059300E1;-5.124511719E-1;-1.293471336E0;-3.733077049E0
1.363024400E1;6.898498535E-1;-1.637963295E0;-3.533979058E-1
1.365017000E1;1.928000331E0;-1.602416992E0;1.696373701E0
1.366050000E1;2.870148659E0;-8.405523300E-1;1.594766974E0
1.368033000E1;2.796194077E0;-1.672477722E-1;7.676292658E-1
1.370024100E1;2.346307516E0;1.986885071E-1;-1.462942362E-2
1.371027700E1;1.966412306E0;2.191715240E-1;-2.716752291E-1
1.373020900E1;1.441966772E0;4.167375565E-1;-1.006985307E-1
1.374035900E1;1.188845992E0;4.965429306E-1;-3.924769163E-2
1.376018000E1;1.154381990E0;5.025777817E-1;1.348831058E-1
1.378076500E1;9.339637160E-1;7.645444870E-1;3.551461697E-1
1.380053700E1;1.165149689E0;1.139668465E0;-3.166390359E-1
1.381055700E1;1.099446535E0;1.498471260E0;-4.520236850E-1
1.383025000E1;5.607852340E-1;2.319945812E0;-2.620685995E-1
1.384079400E1;4.257014394E-1;2.532134533E0;-4.846872687E-1
1.386030500E1;5.074787140E-2;3.004212856E0;-1.187474370E0
1.388030700E1;-8.659660816E-2;3.124474525E0;-1.175059080E0
1.389046500E1;4.551959038E-2;3.072980404E0;-1.348589659E0
1.391026700E1;1.563919783E-1;2.985929489E0;-1.929063082E0
1.393027700E1;2.908432484E-2;3.160143852E0;-1.186405182E0
1.395034700E1;-1.333482265E-1;3.459365845E0;-7.161310911E-1
1.397011700E1;-5.232635736E-1;3.629092216E0;-5.041612387E-1
1.398013300E1;-8.843516111E-1;3.654496193E0;-4.866589010E-1
1.399054800E1;-1.241829515E0;3.627367973E0;-5.942904353E-1
1.400093400E1;-1.513478994E0;3.599136829E0;-7.844009399E-1
1.402030100E1;-1.820184350E0;3.372279644E0;-9.736948013E-1
1.404026700E1;-1.455727935E0;3.076280594E0;-1.059993625E0
1.405032400E1;-1.211261034E0;2.837409496E0;-6.212713718E-1
1.406083800E1;-1.256333113E0;2.763883114E0;-3.487900496E-1
1.408027000E1;-1.515253901E0;2.842748642E0;-1.662643254E-1
1.409073000E1;-1.868195057E0;2.921640873E0;-3.083522320E-1
1.411025600E1;-2.242018700E0;2.761616230E0;-6.835364103E-1
1.413023400E1;-2.196476936E0;2.584016800E0;-5.302513838E-1
1.414998600E1;-2.436856747E0;2.430426121E0;-5.120511055E-1
1.416035100E1;-2.619281769E0;2.243664742E0;-8.973527551E-1
1.418024000E1;-2.955529690E0;9.845190048E-1;-2.202078581E0
1.419049100E1;-3.115456104E0;-6.427574158E-2;-2.572305441E0
1.421050100E1;-2.864435673E0;-2.404547691E0;-2.043369293E0
1.423020200E1;-1.987299085E0;-3.904630661E0;-8.461381197E-1
1.424020700E1;-1.380177259E0;-4.395111084E0;1.525333226E-1
1.425027200E1;-1.245931745E0;-4.345321655E0;4.153536558E-1
1.426037900E1;-1.253214359E0;-4.008973122E0;5.630699396E-1
1.428051300E1;-1.968867660E0;-3.573373795E0;4.950093925E-1
1.429261500E1;-2.246538162E0;-3.259449959E0;5.099082589E-1
1.431025900E1;-3.483241320E0;-3.319774628E0;-1.061807349E-1
1.433028000E1;-4.583208561E0;-3.121408463E0;-1.392715812E0
1.435027700E1;-4.904383659E0;-1.940404892E0;-1.824171305E0
1.436055300E1;-4.828215599E0;-1.141193390E0;-1.638941526E0
1.438019100E1;-3.936648607E0;2.729873657E-1;-1.226725101E0
1.439020700E1;-3.156933546E0;7.000694275E-1;-1.194233179E0
1.440022600E1;-2.059842587E0;9.025869370E-1;-1.186645031E0
1.441065600E1;-8.771588802E-1;9.034414291E-1;-9.846861362E-1
1.443021800E1;8.458437920E-1;1.571693420E-1;2.030599862E-1
1.444023100E1;1.122072816E0;-7.928104401E-1;1.252645612E0
1.445024400E1;1.064351797E0;-9.788608551E-1;1.540130496E0
1.446072700E1;7.161767483E-1;-1.033024788E0;1.650149703E0
1.448106400E1;-2.374415398E-1;-8.840684891E-1;2.043293953E0
1.450021900E1;-8.167033195E-1;-1.079589844E0;2.740104198E0
1.451024900E1;-7.643723488E-1;-1.187988281E0;3.291584969E0
1.453144600E1;-4.856920242E-2;-1.155544281E0;4.007883549E0
1.455026300E1;6.580421925E-1;-8.241834641E-1;4.314044476E0
1.457016200E1;9.600234032E-1;-4.254331589E-1;4.343256950E0
1.458030100E1;1.030048370E0;-2.546358109E-1;4.194417953E0
1.459049400E1;1.177980185E0;-1.168575287E-1;3.891982555E0
1.461108100E1;1.461294174E0;4.343700409E-2;3.330864906E0
1.463023800E1;1.613133430E0;-1.834106445E-2;2.622103930E0
1.465019500E1;1.914620161E0;3.020200729E-1;2.278035641E0
1.466045700E1;1.967812777E0;4.208412170E-1;2.152383327E0
1.467054200E1;2.069111824E0;6.145038605E-1;2.184442520E0
1.469035500E1;2.271399498E0;8.960471153E-1;2.231013775E0
1.471026400E1;2.526780128E0;1.185600758E0;2.440051556E0
1.472037000E1;2.597646236E0;1.344905376E0;2.454063654E0
1.474027400E1;2.778545856E0;1.528571606E0;2.114501953E0
1.475047800E1;2.785083294E0;1.651333809E0;2.060009003E0
1.476151400E1;2.753172636E0;1.661600113E0;1.974267721E0
1.478143800E1;2.831916094E0;1.608655453E0;1.917600632E0
1.480070000E1;2.811537266E0;1.362750053E0;1.546202540E0
1.482028600E1;2.572422028E0;9.811763763E-1;1.079116821E0
1.483029000E1;1.762980700E0;6.192274094E-1;9.393109083E-1
1.484077800E1;1.258088112E0;4.700684547E-1;8.753975034E-1
1.486019700E1;4.222493172E-1;3.973665237E-1;7.999772429E-1
1.487027100E1;1.781902313E-1;3.762378693E-1;5.736796260E-1
1.488030800E1;-5.282258987E-2;3.516597748E-1;4.546236098E-1
1.490010700E1;-7.107734680E-3;-3.071308136E-3;1.675245613E-1
1.491020600E1;9.610414505E-2;-8.744821548E-1;-3.096095622E-1
1.492023300E1;4.364953041E-1;-1.685182571E0;-5.916910172E-1
1.493035300E1;9.870266914E-1;-2.746975899E0;-5.159329176E-1
1.494036300E1;1.590530872E0;-3.727078438E0;-1.802180409E-1
1.496028700E1;2.479429722E0;-5.042813301E0;6.595259905E-1
1.498043300E1;2.428569078E0;-5.992299080E0;5.587146878E-1
1.499157100E1;1.960526466E0;-6.599982738E0;3.792921901E-1
1.501064300E1;1.634627342E0;-7.253254890E0;-2.129319608E-1
1.503022900E1;2.215130806E0;-6.614260197E0;-3.704553843E-1
1.504054500E1;2.305835962E0;-6.159782410E0;-3.908393979E-1
1.506028300E1;2.056353331E0;-5.227769852E0;-4.412778020E-1
1.508022600E1;1.451469898E0;-4.378752708E0;-6.272236109E-1
1.510001300E1;2.099418640E-1;-3.381723404E0;-1.193240643E0
1.511053200E1;-5.638504028E-1;-2.824583054E0;-1.246773005E0
1.513020700E1;-2.143521786E0;-1.943265915E0;-2.236849546E0
1.514020800E1;-2.774045944E0;-1.363404274E0;-2.793463469E0
1.515022900E1;-3.211249352E0;-9.131793976E-1;-3.536205530E0
1.517004500E1;-2.990544319E0;-3.681945801E-1;-4.643270016E0
1.518019900E1;-2.232003689E0;-1.489906311E-1;-4.607813358E0
1.519023000E1;-1.362148046E0;1.340961456E-2;-4.027134895E0
1.521007200E1;3.493962288E-1;1.089687347E-1;-1.873930454E0
1.523010800E1;2.103600264E0;3.419275284E-1;-3.482583165E-2
1.524024400E1;2.237891197E0;4.459619522E-1;1.847960055E-1
1.526020700E1;1.828535795E0;5.820312500E-1;2.948246896E-1
1.527027500E1;1.546432495E0;6.891231537E-1;2.304880619E-1
1.529022700E1;1.199537039E0;8.787899017E-1;-8.699207008E-2
1.530030400E1;1.058548212E0;8.686676025E-1;-3.402367532E-1
1.532014800E1;9.189269543E-1;1.052538872E0;-4.760860801E-1
1.533022600E1;7.842459679E-1;1.262790680E0;-4.588011801E-1
1.535017000E1;4.376811981E-1;1.811676502E0;-7.138742208E-1
1.536021600E1;2.085390091E-1;2.191056252E0;-7.479144931E-1
1.537025200E1;4.696369171E-3;2.462203026E0;-9.275351763E-1
1.539025200E1;-2.333009243E-1;2.980800629E0;-8.151181340E-1
1.541024400E1;-2.206392288E-1;3.204334736E0;-8.797615767E-1
1.543020200E1;5.137944221E-2;3.250022411E0;-3.137877285E-1
1.544036300E1;1.470804214E-1;3.183926105E0;-1.737023592E-1
1.546030500E1;1.521873474E-1;3.074760914E0;-3.361058980E-2
1.548020400E1;-2.267711163E-1;3.236992836E0;-8.996961266E-2
1.549081500E1;-4.075005054E-1;3.330256939E0;-3.745440841E-1
1.551019800E1;-5.467398167E-1;3.470033646E0;-6.160206199E-1
1.553068000E1;-6.808931828E-1;3.381146431E0;-3.277712464E-1
1.555021800E1;-6.685664654E-1;3.147372723E0;-1.534761488E-1
1.557032800E1;-6.757273674E-1;2.975284576E0;8.947511017E-2
1.558036400E1;-7.927408218E-1;2.866436958E0;1.237929761E-1
1.559999400E1;-6.406612396E-1;2.364557266E0;-3.959680200E-1
1.561072400E1;-4.727220535E-1;1.908904076E0;-6.308955550E-1
1.563026300E1;-4.669554234E-1;1.228982925E0;-3.451280594E-1
1.564028400E1;-2.632522583E-1;9.414691925E-1;-2.660463154E-1
1.565044700E1;-1.307196617E-1;6.859102249E-1;-1.997422427E-1
1.567046800E1;1.936082840E-1;4.156007767E-1;-7.888883352E-2
1.569010500E1;5.926642418E-1;2.049684525E-1;-4.311679006E-1
1.570072100E1;8.571188450E-1;1.156034470E-1;-6.738935709E-1
1.572022900E1;1.023368359E0;1.865386963E-2;-1.622211933E-1
1.573046800E1;8.400537968E-1;-1.918191910E-1;2.633563243E-2
1.575026200E1;2.484626770E-1;-5.026874542E-1;5.357669294E-2
1.576035500E1;-3.533759117E-1;-7.662210464E-1;-3.972738385E-1
1.578040800E1;-1.603529692E0;-1.684362411E0;-2.003312111E0
1.580036000E1;-2.237969875E0;-2.601132393E0;-2.637009621E0
1.581054300E1;-2.086209297E0;-3.433329582E0;-1.583479762E0
1.583028000E1;-1.922594070E0;-3.588142395E0;4.304420203E-3
1.584044500E1;-1.912048340E0;-3.433719635E0;6.745207310E-1
1.586035900E1;-2.170895338E0;-3.129653931E0;1.607484937E0
1.588022200E1;-2.798039198E0;-3.083388329E0;1.483971357E0
1.589025800E1;-2.992867947E0;-3.024806976E0;1.188323140E0
1.590030700E1;-3.038600683E0;-2.843650818E0;8.510393500E-1
1.591062300E1;-3.014753103E0;-2.455689430E0;6.096125245E-1
1.593024000E1;-3.080600500E0;-9.460916519E-1;9.439338446E-1
1.594028400E1;-3.294470310E0;-4.625988007E-2;1.009253621E0
1.595046800E1;-3.479696512E0;8.752622604E-1;7.937965393E-1
1.597020100E1;-3.551266193E0;2.171247482E0;-8.510288596E-2
1.598021300E1;-3.347793102E0;2.528374672E0;-6.576297879E-1
1.599050200E1;-3.128673315E0;2.650738239E0;-9.230378270E-1
1.601421800E1;-2.092747211E0;2.204708576E0;-5.336644053E-1
1.603031900E1;-1.525472641E0;1.571008205E0;3.937187195E-1
1.605057500E1;-1.004116774E0;7.762212753E-1;9.790087342E-1
1.607022200E1;-4.804413319E-1;2.470703125E-1;1.188677907E0
1.609056000E1;-1.817150116E-1;-8.131408691E-2;1.391443849E0
1.611160000E1;1.755309105E-2;-1.377897263E-1;1.915866852E0
1.613023100E1;2.400188446E-1;-2.350721359E-1;2.464416742E0
1.614030200E1;3.729641438E-1;-2.613840103E-1;2.689156532E0
1.616016000E1;6.744804382E-1;-2.888698578E-1;2.967000961E0
1.617023400E1;7.377152443E-1;-2.925558090E-1;2.905740261E0
1.619025500E1;7.827758789E-1;-2.061557770E-1;2.775268555E0
1.621023400E1;3.407230377E-1;3.363828659E-1;2.476297140E0
1.622070600E1;1.561081409E-1;6.848115921E-1;2.248422623E0
1.624072500E1;-1.643018723E-1;1.410275936E0;1.893042445E0
1.626025800E1;-1.712727547E-1;2.010817528E0;1.493152380E0
1.628022900E1;1.090435982E-1;2.461892605E0;9.406185150E-1
1.629023900E1;3.811073303E-1;2.610005856E0;9.336904883E-1
1.630038900E1;6.863567829E-1;2.651556969E0;9.720254540E-1
1.632025100E1;1.263902187E0;2.643278122E0;1.037469387E0
1.633051400E1;1.480383873E0;2.593709469E0;9.517951012E-1
1.635024700E1;1.451038599E0;2.416585445E0;6.759775877E-1
1.636041200E1;1.327310801E0;2.230234146E0;4.786959291E-1
1.638019900E1;1.102042198E0;1.617144108E0;3.840768039E-1
1.639026900E1;1.146436453E0;1.197438240E0;3.860146105E-1
1.641144500E1;1.997395515E0;5.233478546E-2;1.738664269E0
1.643030300E1;1.894144297E0;-9.065160751E-1;2.882011652E0
1.645016000E1;1.741184473E0;-2.126692772E0;2.783906937E0
1.646048000E1;1.599892855E0;-2.812730789E0;2.488370419E0
1.647048600E1;1.404932737E0;-3.534968376E0;2.178677797E0
1.648060200E1;1.155730724E0;-4.316974640E0;1.876694798E0
1.650066200E1;7.387013435E-1;-6.095213890E0;9.681404233E-1
1.652020000E1;3.790745735E-1;-8.022867203E0;7.345279455E-1
1.654032800E1;5.717272758E-1;-9.387276649E0;1.179651976E0
1.656025400E1;8.423056602E-1;-9.500000954E0;1.722259998E0
1.657032600E1;1.329308510E0;-8.582504272E0;1.997616649E0
1.658042400E1;1.774056673E0;-7.416286469E0;1.939296722E0
1.659255900E1;2.391765833E0;-6.085801125E0;1.799291015E0
1.660641500E1;4.387842178E0;-3.483376503E0;1.316419125E0
1.662034500E1;4.879049778E0;-2.954709053E0;1.137213230E0
1.664029600E1;4.165419102E0;-2.086771965E0;1.112332463E0
1.666025000E1;2.386734009E0;-1.067951202E0;3.108686209E-1
1.668020300E1;1.921892166E-1;-9.151458740E-2;-1.286836386E0
1.669023400E1;-6.613392830E-1;2.385530472E-1;-2.130624771E0
1.671025100E1;-1.517696619E0;7.029838562E-1;-3.173067570E0
1.672050300E1;-1.618938446E0;7.270774841E-1;-3.211466074E0
1.674030300E1;-4.189596176E-1;4.787788391E-1;-2.316631317E0
1.676025500E1;1.640830994E0;-1.360454559E-1;-5.353462100E-1
1.677034500E1;2.499204636E0;-4.764699936E-1;6.058832407E-1
1.679030400E1;3.409280300E0;-8.945827484E-1;3.066115379E0
1.681047800E1;2.999999285E0;-6.308841705E-1;2.681572914E0
1.683028500E1;2.336070538E0;2.059249878E-1;1.673661828E0
1.684052500E1;1.986072183E0;5.402555466E-1;1.336015701E0
1.685082000E1;1.799500942E0;8.097429276E-1;1.121543884E0
1.686184900E1;1.559002638E0;8.432712555E-1;8.959882259E-1
1.688025100E1;1.273912787E0;9.952468872E-1;8.425924182E-1
1.690015900E1;9.767061472E-1;1.177601814E0;5.504854918E-1
1.691019300E1;1.027192116E0;1.339829445E0;2.847805619E-1
1.693021500E1;1.168793678E0;1.825036049E0;-5.975127220E-2
1.694025000E1;1.073827505E0;2.074668407E0;-2.308914065E-1
1.695025600E1;7.645574808E-1;2.255649567E0;-2.955494523E-1
1.696037800E1;7.831032276E-1;2.545772552E0;-4.792764187E-1
1.697047900E1;6.539324522E-1;2.748626709E0;-6.489844918E-1
1.699053900E1;1.953580379E-1;3.014706135E0;-5.126417279E-1
1.700073700E1;1.219947338E-1;3.087812901E0;-4.687299132E-1
1.701567600E1;2.761793137E-2;3.129039764E0;-4.574774504E-1
1.703073300E1;-7.797241211E-2;3.198842049E0;-3.489862084E-1
1.705024400E1;-1.389284134E-1;3.389462948E0;-2.464502454E-1
1.706031800E1;-1.334705353E-1;3.497680664E0;-3.764949441E-1
1.707074700E1;-1.364188194E-1;3.529985428E0;-5.767968893E-1
1.709020600E1;-1.593589783E-1;3.583765984E0;-5.986667275E-1
1.710026400E1;-2.479445934E-1;3.466449738E0;-6.285943389E-1
1.711119700E1;-3.623523712E-1;3.484632969E0;-7.133598924E-1
1.713019500E1;-4.700045586E-1;3.267854691E0;-5.805205703E-1
1.715025300E1;-7.270677090E-1;3.328816414E0;-2.097738385E-1
1.716031400E1;-8.939510584E-1;3.489977837E0;-5.090659857E-2
1.718017500E1;-1.134308219E0;3.824555874E0;-1.277723908E-1
1.719044600E1;-9.798954725E-1;4.119291306E0;-4.595972896E-1
1.721081300E1;-3.443242311E-1;4.197077274E0;-1.145186186E0
1.723002600E1;1.595807076E-2;4.066225052E0;-9.743821621E-1
1.724024800E1;9.979009628E-3;3.807165623E0;-1.055057287E0
1.726026200E1;-3.578774929E-1;2.938599110E0;-1.268386841E0
1.728035000E1;-1.359594822E0;1.128485680E0;-2.180272579E0
1.730020900E1;-1.584203959E0;-1.383619308E0;-2.748754978E0
1.731025300E1;-1.340439320E0;-2.548521042E0;-2.813973665E0
1.733026700E1;-8.490223885E-1;-4.424594879E0;-2.542878628E0
1.735027700E1;-8.588142395E-1;-5.978304863E0;-1.724420786E0
1.737048600E1;-1.311237574E0;-7.778336525E0;-1.290744781E0
1.738062700E1;-2.561377287E0;-9.655610085E0;-1.009739399E0
1.740023300E1;-3.578993797E0;-1.044458199E1;-5.998278856E-1
1.741033600E1;-3.090711117E0;-1.067341518E1;-2.917708158E-1
1.743033300E1;-1.773504376E0;-9.965909958E0;6.793754697E-1
1.744096600E1;-2.045753956E0;-8.949756622E0;1.786356688E0
1.746024500E1;-2.952149391E0;-5.643706322E0;3.325340748E0
1.748101600E1;-3.765818119E0;-1.849564552E0;2.619781494E0
1.750021300E1;-4.433065414E0;1.216388702E0;7.409151196E-1
1.751031800E1;-4.356925488E0;2.431841850E0;-1.282964051E-1
1.753029500E1;-4.179124832E0;3.766503334E0;-1.716778517E0
1.754031600E1;-4.151519299E0;3.711028576E0;-2.263028383E0
1.756034100E1;-4.289739609E0;3.206876278E0;-3.251259565E0
1.758038100E1;-3.019641161E0;1.845530510E0;-4.053381443E0
1.759083400E1;-2.322630167E0;1.394860268E0;-3.205770493E0
1.761050200E1;-9.578595161E-1;4.550113678E-1;-7.161900997E-1
1.762051500E1;-3.637603521E-1;1.362400055E-1;8.251955509E-1
1.763073700E1;1.993517876E-1;7.815361023E-2;2.290032387E0
1.765053100E1;1.006947994E0;2.458276749E-1;4.102682114E0
1.767019900E1;1.270848870E0;4.827833176E-1;4.083693981E0
1.769080600E1;1.689530969E0;4.101467133E-2;2.470316172E0
1.771045500E1;2.008154392E0;-8.539628983E-1;1.776964188E0
1.773031400E1;2.173965454E0;-1.085239410E0;2.663502455E0
1.774033500E1;2.079539299E0;-1.074647903E0;3.182312965E0
1.775063600E1;1.876377225E0;-8.082942963E-1;3.521478653E0
1.777028000E1;1.289106131E0;3.482494354E-1;2.805867672E0
1.778042400E1;1.160909176E0;6.391801834E-1;2.503679037E0
1.779058400E1;1.114745378E0;8.381004333E-1;2.443956614E0
1.781079100E1;7.833168507E-1;3.756246567E-1;2.412226915E0
1.783069600E1;1.108599424E0;8.096027374E-2;2.657513618E0
1.785032500E1;1.441516161E0;-1.266860962E-2;2.969463348E0
1.786042300E1;1.587585211E0;1.133823395E-1;3.092467785E0
1.788004400E1;1.833970308E0;4.918918610E-1;3.139693260E0
1.789077200E1;1.905334949E0;8.124370575E-1;2.791944265E0
1.791027600E1;1.911351204E0;1.384380817E0;2.042720318E0
1.792045700E1;1.861061573E0;1.563722134E0;1.676883817E0
1.794032100E1;1.829120874E0;1.701333523E0;1.514536142E0
1.796024000E1;1.779829979E0;1.490345478E0;1.904181600E0
1.797051000E1;1.357205391E0;1.233820438E0;2.361377478E0
1.799046300E1;1.073938370E0;1.505329609E0;2.425675631E0
1.801049400E1;1.111158848E0;2.113049984E0;1.679728031E0
1.802115400E1;1.354959965E0;2.262213707E0;1.292834044E0
1.803120800E1;1.559490681E0;2.362131596E0;9.728758335E-1
1.804999100E1;1.890592337E0;2.401009083E0;1.245198965E0
1.806131100E1;1.977254152E0;2.211254597E0;1.853902221E0
1.808025800E1;2.168111563E0;1.513748169E0;2.978311062E0
1.810024100E1;1.808396816E0;8.180422783E-1;2.733299732E0
1.811050000E1;1.367990494E0;5.296182632E-1;1.597972035E0
1.813015900E1;5.138521194E-1;-1.097550392E-1;-1.785029173E0
1.814019600E1;6.211662292E-1;-6.898198128E-1;-3.229846478E0
1.815027100E1;8.595829010E-1;-1.572294712E0;-4.313868523E0
1.817019500E1;3.050934553E0;-4.462442875E0;-2.970522881E0
1.818023100E1;3.730120182E0;-5.362511158E0;-1.943449736E0
1.819050700E1;4.108429909E0;-6.152281284E0;-9.470298886E-1
1.821028500E1;4.092929840E0;-7.357950211E0;2.942723334E-1
1.823018200E1;4.065981865E0;-7.740684509E0;1.522633433E-1
1.824022600E1;4.178125381E0;-7.594529152E0;-1.200582981E-1
1.826040100E1;4.602624893E0;-6.468393326E0;-3.763079643E-2
1.828020700E1;4.741218567E0;-5.129458427E0;-2.906227112E-2
1.829055400E1;4.540169239E0;-4.594176292E0;-3.225397468E-1
1.831028500E1;3.530246496E0;-4.053484917E0;-4.750827849E-1
1.832030000E1;2.880239010E0;-3.683081627E0;2.675400376E-1
1.834019500E1;1.276866436E0;-2.950076103E0;2.079963446E0
1.836034100E1;-1.049887180E0;-1.585908890E0;1.010558605E0
1.838024600E1;-2.024417162E0;-1.247693062E0;-8.871388435E-1
1.840014700E1;-2.305526972E0;-1.537768364E0;-2.354963064E0
1.841024800E1;-2.199944735E0;-1.717418671E0;-2.710212946E0
1.843023500E1;-1.510099888E0;-1.599524498E0;-1.950526595E0
1.845021700E1;-8.013155460E-1;-1.241565704E0;-5.167058706E-1
1.846063200E1;-6.680171490E-1;-1.000537872E0;1.806480736E-1
1.848025800E1;-8.311128616E-1;-3.971805573E-1;1.111253262E0
1.850039800E1;-8.970249891E-1;-6.490421295E-2;1.158643246E0
1.852015900E1;-8.581137657E-1;5.135631561E-2;8.188791275E-1
1.853030200E1;-8.469961882E-1;1.489400864E-1;8.076679111E-1
1.855018300E1;-9.195917845E-1;3.649206161E-1;6.755404472E-1
1.856018600E1;-1.019018650E0;7.363290787E-1;4.536891580E-1
1.858021200E1;-1.420807958E0;1.521386147E0;-2.382217050E-1
1.859056300E1;-1.611688256E0;1.997954369E0;-6.701949835E-1
1.861027600E1;-1.710115671E0;2.544110775E0;-1.669394612E0
1.862036500E1;-1.690454721E0;2.713711262E0;-1.423714995E0
1.864030100E1;-1.579494357E0;2.650656700E0;-8.220774531E-1
1.866108200E1;-1.315631270E0;2.704198360E0;-9.198892117E-2
1.868027700E1;-1.037473202E0;2.808588028E0;3.415375948E-3
1.870038800E1;-9.406862259E-1;2.773073673E0;-6.048312783E-2
1.872023100E1;-8.953912258E-1;2.963999748E0;-4.508161545E-2
1.874015600E1;-5.763466358E-1;3.286373138E0;-4.172240496E-1
1.875052600E1;-1.454782486E-1;3.443300724E0;-2.247281075E-1
1.877019400E1;2.147567272E-1;3.608276367E0;-2.437546849E-2
1.879047500E1;7.191252708E-1;3.749649048E0;-2.381528765E-1
1.881044300E1;1.245692134E0;3.857391834E0;-6.350412965E-1
1.883024800E1;1.556957841E0;4.024231911E0;-7.362307310E-1
1.884035100E1;1.601477742E0;3.972418785E0;-7.645779848E-1
1.886031300E1;1.806804299E0;3.631796360E0;-6.442031264E-1
1.888028600E1;2.122085571E0;3.486413479E0;-3.189311922E-1
1.889054600E1;2.114410400E0;3.506515026E0;-6.633841991E-2
1.891028800E1;1.532518029E0;3.704119205E0;9.009043872E-2
1.893025600E1;6.328258514E-1;3.620063782E0;-4.174833596E-1
1.895054200E1;1.764247417E-1;1.797710896E0;-1.211675763E0
1.896063300E1;7.472848892E-2;7.286300659E-1;-8.183974624E-1
1.898028000E1;-2.006101608E-1;-1.435675621E0;2.294583619E-2
1.899067500E1;-4.390721321E-1;-2.578980446E0;4.173460007E-1
1.901020600E1;-1.088877439E0;-5.055335045E0;7.228870988E-1
1.902022300E1;-1.532602072E0;-6.180646896E0;5.301659107E-1
1.903049600E1;-2.090267181E0;-7.421903610E0;-2.731358409E-1
1.905022800E1;-2.490184546E0;-9.177378654E0;-1.933141232E0
1.907018000E1;-2.403755665E0;-1.040455246E1;-2.216086388E0
1.909020500E1;-2.077792883E0;-1.030011082E1;3.172299862E-1
1.910021800E1;-1.851608992E0;-9.311496735E0;2.014275789E0
1.911046200E1;-1.937307239E0;-7.950191498E0;3.403620481E0
1.913001600E1;-2.533157110E0;-4.909346581E0;3.405569315E0
1.914020900E1;-2.941983700E0;-3.611183167E0;2.240353584E0
1.916025400E1;-3.081614733E0;-5.183210373E-1;-2.073273420E0
1.918021600E1;-3.491076946E0;9.745883942E-1;-4.133862495E0
1.919025600E1;-3.762913227E0;1.707087994E0;-4.740688801E0
1.921026500E1;-4.610543251E0;2.592225075E0;-5.385534286E0
1.923001000E1;-4.850352764E0;2.557554722E0;-4.911744595E0
1.924002000E1;-4.701538086E0;2.020848751E0;-4.457956791E0
1.925028700E1;-4.123899937E0;1.605233192E0;-3.468473673E0
1.927054100E1;-2.749749660E0;1.816654205E-1;-1.211794734E0
1.929018600E1;-1.905598402E0;-1.315250397E-1;1.435021639E0
1.930040900E1;-1.874212265E0;-6.173515320E-2;2.283514023E0
1.932015700E1;-1.916501760E0;1.705150604E-1;2.562960148E0
1.933049000E1;-1.780222178E0;2.793598175E-1;2.162151814E0
1.935019800E1;-5.809924603E-1;9.560966492E-2;8.693170547E-1
1.936025400E1;-3.835916519E-2;-1.134128571E-1;1.027192116E0
1.938022200E1;9.386878014E-1;-5.775146484E-1;1.898037434E0
1.940031400E1;1.583269596E0;-7.419948578E-1;2.825077057E0
1.941076500E1;1.866615295E0;-7.370977402E-1;2.966483355E0
1.943025200E1;1.879462481E0;-3.694257736E-1;3.182532310E0
1.945018200E1;1.388450384E0;2.119998932E-1;3.140467405E0
1.946019200E1;1.219960690E0;4.615888596E-1;3.083927155E0
1.947026500E1;1.139923811E0;5.861282349E-1;2.997205973E0
1.948054000E1;1.162337065E0;6.888389587E-1;3.051162958E0
1.950037600E1;1.257833004E0;5.260505676E-1;2.919238806E0
1.952014900E1;1.578810215E0;4.168605804E-1;2.804480791E0
1.953050400E1;1.646603584E0;4.649391174E-1;3.123974800E0
1.955023500E1;1.603197336E0;8.478493690E-1;2.794215441E0
1.956033500E1;1.693455935E0;1.023370266E0;2.496539116E0
1.958020100E1;1.880175591E0;1.347585678E0;1.842217088E0
1.959030800E1;1.947583675E0;1.579670906E0;1.674908400E0
1.961022800E1;2.111717701E0;1.846800327E0;1.326690316E0
1.962028700E1;2.191173792E0;2.019082546E0;1.326218724E0
1.964020100E1;2.376685143E0;2.209862232E0;1.135714769E0
1.965023100E1;2.457830191E0;2.262135506E0;1.106685400E0
1.967018600E1;2.580416679E0;2.252768517E0;1.159279823E0
1.968020200E1;2.704005480E0;2.238903046E0;1.134221911E0
1.969027100E1;2.820527315E0;2.106893063E0;1.103160381E0
1.971020800E1;3.038008213E0;1.802901745E0;1.234545946E0
1.972031800E1;3.177672863E0;1.614172935E0;1.165385723E0
1.973044700E1;3.398155451E0;1.454406261E0;9.590648413E-1
1.975048200E1;3.448668957E0;9.994144440E-1;1.026261806E0
1.977044700E1;2.993584633E0;-4.072713852E-2;9.719333649E-1
1.979018000E1;3.153044224E0;-1.668973923E0;9.846497774E-1
1.980061200E1;3.249854088E0;-2.643658638E0;1.232454777E0
1.982017800E1;3.595470905E0;-4.098255634E0;1.937776327E0
1.983068500E1;3.561573744E0;-4.676277637E0;1.826361775E0
1.985146800E1;2.304125547E0;-5.822286129E0;8.199638128E-1
1.987023900E1;9.694056511E-1;-6.694561005E0;-3.246253133E-1
1.988059600E1;3.607912064E-1;-7.073218346E0;-7.197287679E-1
1.990015200E1;-1.489572525E-1;-7.235918999E0;-7.855961919E-1
1.991026200E1;9.117221832E-2;-6.875876427E0;-2.035287023E-1
1.993022900E1;1.276734352E0;-4.852050781E0;8.748632669E-1
1.994024000E1;1.302937031E0;-4.471152306E0;6.370880604E-1
1.995029000E1;1.717108250E0;-3.910544395E0;4.852825105E-1
1.997020900E1;2.554377079E0;-3.236640930E0;7.913395166E-1
1.998032500E1;2.699525356E0;-3.123147964E0;1.267676473E0
2.000023100E1;1.081262589E0;-3.346840858E0;3.341058493E0
2.001196700E1;-1.966011524E-1;-3.314544678E0;4.113535404E0
2.003026600E1;-2.587813854E0;-2.676867485E0;3.120649338E0
2.005023700E1;-4.284721375E0;-1.511863708E0;-7.785134315E-1
2.006032100E1;-4.428437233E0;-7.499790192E-1;-2.671284914E0
2.008021200E1;-4.048843861E0;4.841547012E-1;-5.671298981E0
2.009023300E1;-3.484442472E0;8.684444427E-1;-6.307866096E0
2.011029100E1;-1.855020881E0;1.004457474E0;-5.073736668E0
2.013019800E1;4.193717241E-1;6.867837906E-1;-5.617769957E-1
2.015035300E1;1.396857262E0;5.140542984E-1;7.782074809E-1
2.016037200E1;1.680474997E0;3.569240570E-1;8.419123888E-1
2.018016600E1;1.661835432E0;2.140169144E-1;6.632874012E-1
2.019026800E1;1.322718382E0;2.254838943E-1;5.848805308E-1
2.021094800E1;5.348507166E-1;9.597902298E-1;1.367237717E-1
2.023020600E1;-3.975737095E-2;1.731013775E0;-5.949054956E-1
2.025025600E1;-6.187196970E-1;2.118084431E0;-1.286281705E0
2.026026900E1;-4.003392458E-1;2.431299210E0;-1.447685957E0
2.027035700E1;-2.032891512E-1;2.667220116E0;-1.477073312E0
2.028449900E1;-1.537026167E-1;2.693937778E0;-1.536796212E0
2.030044600E1;6.258249283E-3;3.112009048E0;-1.467884183E0
2.032030300E1;-5.223083496E-2;3.225783348E0;-2.024798632E0
2.034063100E1;-1.457672119E-1;2.892609596E0;-1.974441051E0
2.036029100E1;-3.622884750E-1;2.654220581E0;-1.759683490E0
2.037998000E1;-4.004602432E-1;2.608249187E0;-1.656446338E0
2.039002300E1;-3.790209293E-1;2.631424427E0;-1.526431441E0
2.040998400E1;-4.056761265E-1;2.494806767E0;-1.213045478E0
2.042013300E1;-3.774662018E-1;2.333827496E0;-9.931545854E-1
2.043997400E1;-2.098338604E-1;2.117674828E0;-4.652773142E-1
2.046005100E1;1.246051788E-1;1.971401691E0;-1.594129354E-1
2.047021400E1;3.024182320E-1;1.966937542E0;-5.047588050E-2
2.048023900E1;5.349280834E-1;1.984951019E0;-2.397201955E-3
2.050007200E1;9.763478041E-1;2.234900475E0;-1.214445084E-1
2.051012700E1;1.163817644E0;2.341229439E0;-4.034089446E-1
2.053015500E1;9.226474762E-1;2.751824379E0;-4.485547543E-2
2.054084800E1;7.830853462E-1;2.943819523E0;9.967778623E-2
2.056159400E1;7.855336666E-1;3.335227013E0;1.734778583E-1
2.058109900E1;9.541466236E-1;3.768530369E0;-3.842552006E-2
2.060021700E1;1.004776001E0;3.827201366E0;-5.398132838E-3
2.061140100E1;1.037396193E0;3.734506607E0;2.511894405E-1
2.063020300E1;7.459783554E-1;2.926786900E0;2.258690596E-1
2.064040300E1;4.940290451E-1;2.333720207E0;5.228409916E-2
2.066025300E1;-3.634512424E-1;5.424480438E-1;-4.335140288E-1
2.068020900E1;-1.027909994E0;-1.590295792E0;-7.420915961E-1
2.069022700E1;-1.302046299E0;-2.369608879E0;-6.128047109E-1
2.071023200E1;-2.291822910E0;-4.117620468E0;-1.151493192E0
2.072023500E1;-3.094826221E0;-6.417358398E0;-2.120949745E0
2.074031700E1;-2.799748182E0;-8.674134254E0;-2.863568783E0
2.076039500E1;-1.655148506E0;-1.018559074E1;-2.409005404E0
2.078057100E1;-1.411292315E0;-9.346698761E0;-3.268906474E-1
2.080021500E1;-2.589366436E0;-6.741323471E0;5.294116735E-1
2.081025800E1;-3.451624632E0;-5.468616486E0;1.512419879E-1
2.083023100E1;-4.395675659E0;-2.603513718E0;-6.280994415E-1
2.085023300E1;-5.012122154E0;-9.608831406E-1;-2.032672882E0
2.086034600E1;-5.086993217E0;-1.860551834E-1;-2.453542233E0
2.088039600E1;-5.175361633E0;1.655905247E0;-2.652795315E0
2.090052400E1;-5.247598648E0;2.762727737E0;-2.561496496E0
2.092013300E1;-4.946061611E0;1.849828720E0;-2.551136732E0
2.093049200E1;-4.334072113E0;1.105180740E0;-1.905910254E0
2.095021000E1;-3.010571957E0;-3.526687622E-2;1.168251038E-5
2.096035600E1;-2.491838932E0;-4.014644623E-1;8.278475404E-1
2.098018900E1;-1.755261183E0;-7.816591263E-1;2.106020927E0
2.100016400E1;-1.076045990E0;-6.498355865E-1;2.291462183E0
2.101153200E1;-7.137570381E-1;-5.502357483E-1;2.161859274E0
2.103027500E1;1.953101158E-1;-2.610635757E-1;1.968872905E0
2.105023800E1;1.283956766E0;-1.898002625E-2;2.107861519E0
2.106074200E1;1.647621155E0;-1.002416611E-1;2.310012341E0
2.108016100E1;2.342794895E0;-3.126058578E-1;2.775842190E0
2.109018700E1;2.700082064E0;-4.155311584E-1;2.952079535E0
2.110044200E1;3.008762598E0;-4.297847748E-1;3.106773853E0
2.112083900E1;3.192762852E0;-2.453684807E-1;2.559920788E0
2.114024400E1;3.000310659E0;-1.918129921E-1;2.076874256E0
2.115027300E1;2.897262335E0;-2.449684143E-1;2.133683681E0
2.116184400E1;2.804216146E0;-2.992005348E-1;2.366076946E0
2.118028900E1;2.677718163E0;-4.348502159E-1;3.490066528E0
2.120018100E1;2.513683796E0;-5.082564354E-1;4.607010841E0
2.121141800E1;2.473910570E0;-5.310254097E-1;4.830001354E0
2.123126100E1;2.192896843E0;-5.462670326E-1;4.720173359E0
2.125030900E1;2.003076077E0;-6.389679909E-1;4.118324280E0
2.127012200E1;1.834581375E0;-8.427243233E-1;3.624447584E0
2.128030600E1;1.894987583E0;-8.546309471E-1;3.534379482E0
2.130019200E1;2.075290203E0;-9.157662392E-1;3.089866400E0
2.132041300E1;2.020322800E0;-5.515089035E-1;2.732157707E0
2.134038100E1;2.157992363E0;-1.854333878E-1;2.240036964E0
2.135066400E1;2.302433968E0;-2.626514435E-2;2.045392275E0
2.137020900E1;2.832952499E0;2.403573990E-1;1.578269958E0
2.139019400E1;3.046916246E0;6.385998726E-1;1.767405510E0
2.140066800E1;3.104064941E0;7.613844872E-1;1.742032528E0
2.141104800E1;3.191699028E0;9.215955734E-1;1.624682665E0
2.143027100E1;3.341776848E0;1.316373348E0;1.145160198E0
2.145010900E1;3.482210398E0;1.902100563E0;6.816162467E-1
2.146032100E1;3.498364449E0;2.056005478E0;4.485661983E-1
2.148021200E1;3.766327858E0;2.338439465E0;2.115577757E-1
2.149043200E1;3.890043974E0;2.412934780E0;2.663297951E-1
2.151022600E1;4.388700485E0;2.278277874E0;-9.747049212E-1
2.153025800E1;4.513195038E0;2.058802128E0;-1.829823017E0
2.155047100E1;4.268717766E0;1.424875259E0;-1.554274082E0
2.157029700E1;3.068681479E0;2.132220268E-1;-3.153998256E-1
2.159022100E1;1.581642628E0;-8.776969910E-1;1.075858116E0
2.161031500E1;2.371120453E-2;-2.107749462E0;5.714379549E-1
2.163021100E1;-1.491310596E0;-4.011692047E0;-1.708086371E0
2.164081000E1;-1.677916050E0;-4.495581627E0;-2.615015984E0
2.166020800E1;-1.549993992E0;-6.023624420E0;-4.823084354E0
2.168020300E1;-1.212993145E0;-7.584634304E0;-5.751123428E0
2.170064300E1;-2.213871002E0;-9.425822258E0;-2.348638773E0
2.172034800E1;-3.334874153E0;-8.134732246E0;-6.279337406E-2
2.174020100E1;-4.924380779E0;-5.638422966E0;-1.678517222E0
2.176020500E1;-4.895850182E0;-3.641104698E0;-4.688724518E0
2.177058000E1;-3.846191406E0;-3.197624207E0;-5.951723099E0
2.179020800E1;-1.526570797E0;-2.902674675E0;-4.933733463E0
2.180021300E1;-8.211765289E-1;-2.958803177E0;-3.293485641E0
2.181051100E1;-6.347403526E-1;-2.950990677E0;-1.914499164E0
2.183061300E1;-1.697012663E0;-1.927964211E0;-1.682084799E-1
2.185016300E1;-3.363756418E0;-1.136980057E-1;-9.617794752E-1
2.186027000E1;-3.764104366E0;6.213912964E-1;-2.343803644E0
2.188035500E1;-3.578188181E0;1.207951546E0;-5.714200974E0
2.190012800E1;-1.153918266E0;1.532023430E0;-7.774071217E0
2.191024800E1;-3.361380100E-1;1.311108112E0;-6.638365746E0
2.193029100E1;6.171607971E-1;4.787616730E-1;-2.932260990E0
2.195031600E1;1.121149540E0;-5.768651962E-1;6.607874632E-1
2.196065300E1;1.559407949E0;-7.462739944E-1;1.901877642E0
2.198016800E1;2.429975271E0;-5.490808487E-1;2.713628769E0
2.199025500E1;2.770357132E0;-2.787256241E-1;2.460716009E0
2.200026000E1;2.980586767E0;-1.815032959E-2;1.974479318E0
2.201706700E1;3.134920597E0;3.393306732E-1;1.325170159E0
2.203046800E1;3.109449387E0;4.053754807E-1;1.067107320E0
2.205059100E1;2.659951687E0;5.690441132E-1;8.694797754E-1
2.206166000E1;2.393492699E0;7.655048370E-1;6.042419076E-1
2.208102800E1;1.976009607E0;1.499112606E0;7.055589557E-2
2.210021500E1;1.328341722E0;2.441765308E0;-5.378004909E-1
2.212047000E1;9.008867741E-1;2.614350319E0;-1.884381622E-1
2.213059900E1;7.359929085E-1;2.594046116E0;2.603817284E-1
2.215082600E1;5.109283924E-1;2.477330685E0;8.146890402E-1
2.217017200E1;4.698965549E-1;2.490150928E0;4.446171522E-1
2.219023700E1;1.703197956E-1;2.578407764E0;-6.505553424E-2
2.221024800E1;-2.862377167E-1;2.602490425E0;-5.602426529E-1
2.222026000E1;-4.607949257E-1;2.580476284E0;-9.382617474E-1
2.224018400E1;-4.778230190E-1;2.397244453E0;-1.139212728E0
2.225065800E1;-4.333157539E-1;2.203731537E0;-1.035468817E0
2.227020500E1;-3.551824093E-1;1.913104057E0;-5.794961452E-1
2.228029800E1;-2.624812126E-1;1.778792858E0;-2.309545428E-1
2.230063900E1;4.521148205E-1;1.662778854E0;2.471668273E-1
2.232014100E1;9.861640930E-1;1.665921211E0;2.409598082E-1
2.233046900E1;1.316844702E0;1.689167976E0;1.135340258E-1
2.235017000E1;1.812096596E0;1.853360176E0;5.482406914E-2
2.237031000E1;2.131135225E0;2.230411530E0;3.198141456E-1
2.239024800E1;2.299825191E0;2.899368763E0;7.158604860E-1
2.241054200E1;2.198273659E0;3.871422768E0;4.914993048E-1
2.243034700E1;1.996556997E0;4.675600529E0;-1.625736803E-1
2.244042800E1;1.728446722E0;4.632452011E0;-3.898714185E-1
2.245049100E1;1.328177691E0;4.349242687E0;-7.196744680E-1
2.247053900E1;4.713656902E-1;2.862027168E0;-1.564319611E0
2.249024100E1;-4.164171219E-1;7.533931732E-2;-2.875540257E0
2.251130900E1;-5.855081081E-1;-2.291117668E0;-2.903986692E0
2.253023000E1;-1.361471653E0;-4.908566475E0;-2.292668343E0
2.255052200E1;-2.253812551E0;-7.666582108E0;-1.825436831E0
2.257018900E1;-2.192082405E0;-9.862130165E0;-1.308562756E0
2.258022100E1;-2.191080809E0;-1.073260975E1;-1.018719316E0
2.259022600E1;-2.314708948E0;-1.124249935E1;-3.825654984E-1
2.261019500E1;-2.835239649E0;-1.083150864E1;1.085282922E0
2.262024200E1;-3.505273819E0;-9.971185684E0;1.600830793E0
2.263025000E1;-4.330578804E0;-8.969376564E0;1.696938872E0
2.265032300E1;-5.702047348E0;-6.073727608E0;5.633482933E-1
2.267024300E1;-6.475027084E0;-2.525790215E0;-1.678147793E0
2.269020300E1;-5.831510544E0;1.900177479E0;-5.168030739E0
2.271022100E1;-4.306485653E0;3.598409176E0;-5.925049782E0
2.273023500E1;-2.652655602E0;3.681606293E0;-5.112133026E0
2.275118800E1;-1.273514867E0;3.149038315E0;-3.400520325E0
2.277016100E1;-8.118559122E-1;2.206498623E0;-2.735406399E0
2.278021500E1;-7.203173637E-1;1.933701038E0;-2.134780407E0
2.279025300E1;-7.641654015E-1;1.812707901E0;-1.394001722E0
2.280029300E1;-9.798448086E-1;1.753615856E0;-5.028291345E-1
2.281044800E1;-1.293798685E0;1.619928837E0;2.610311508E-1
2.283018900E1;-1.780366182E0;1.583210945E0;2.235079765E0
2.284023800E1;-2.088075399E0;1.526833534E0;3.146615028E0
2.286041400E1;-2.323215246E0;1.350543976E0;4.342598915E0
2.288076400E1;-2.396545410E0;6.962480545E-1;4.232639790E0
2.290044400E1;-1.999421835E0;3.141145706E-1;3.989442348E0
2.292029600E1;-1.806462526E0;-1.083736420E-1;3.286045790E0
2.294020500E1;-1.706857681E0;-8.102941513E-1;2.598510027E0
2.296024400E1;-1.204147816E0;-1.294213295E0;3.075685263E0
2.298018900E1;-6.153392792E-1;-1.496603966E0;4.122033119E0
2.299020700E1;-2.619948387E-1;-1.496517181E0;4.455165386E0
2.300186900E1;8.925008774E-2;-1.386096001E0;4.672528744E0
2.302047100E1;6.797046661E-1;-9.632539749E-1;4.281361103E0
2.304043500E1;1.143839359E0;-5.574913025E-1;3.389927149E0
2.305204000E1;1.345987320E0;-4.039931297E-1;2.959119320E0
2.307024500E1;1.616617680E0;-1.063442230E-2;2.552209139E0
2.309021200E1;2.140176773E0;1.236500740E-1;2.630751848E0
2.310026100E1;2.458057880E0;2.091593742E-1;2.636865377E0
2.311046900E1;2.817922354E0;2.825970650E-1;2.515354872E0
2.313020600E1;3.482044220E0;6.011900902E-1;2.513732195E0
2.314025300E1;3.872066975E0;6.519737244E-1;2.399924755E0
2.315029300E1;4.278783798E0;7.189469337E-1;2.281272173E0
2.317021400E1;4.984618187E0;8.229627609E-1;1.980261326E0
2.319020100E1;5.384286880E0;1.156413555E0;1.723033905E0
2.320025600E1;5.389477730E0;1.358849049E0;1.573555708E0
2.321050300E1;5.314795494E0;1.514616013E0;1.276273727E0
2.322998300E1;5.181413651E0;1.610058784E0;6.308913827E-1
2.324003700E1;5.095518112E0;1.572567940E0;3.885311484E-1
2.326081600E1;4.896475792E0;1.302859783E0;-1.174970865E-1
2.328039800E1;4.312313557E0;-1.898016930E-1;-3.346054852E-1
2.330096700E1;3.901112556E0;-1.747450829E0;-1.481143236E-1
2.332014300E1;3.327166557E0;-2.915026665E0;2.409615517E-1
2.333016900E1;2.968702316E0;-3.388885975E0;3.400543928E-1
2.334044700E1;2.589960575E0;-3.971739292E0;2.744101882E-1
2.336017000E1;1.613202095E0;-5.221844196E0;-5.193126202E-1
2.337077400E1;9.768395424E-1;-5.982840061E0;-1.023776650E0
2.339026300E1;-1.561527252E-1;-7.088307858E0;-1.530719638E0
2.341022100E1;-6.414175034E-1;-8.206594467E0;-2.089099884E0
2.343044300E1;1.056833267E-1;-7.981981754E0;-1.840931892E0
2.344053200E1;-2.266139984E-1;-7.629748821E0;-1.644312143E0
2.346041900E1;-5.276293755E-1;-6.037233353E0;-2.132384300E0
2.348051000E1;3.979215622E-1;-5.349448681E0;-2.771753073E0
2.349057400E1;6.954803467E-1;-5.284692764E0;-2.324567080E0
2.351143700E1;5.131173134E-1;-4.944588661E0;3.946574926E-1
2.353033800E1;-1.242057800E0;-3.732014656E0;2.999289989E0
2.355017800E1;-3.172766685E0;-2.022130966E0;3.112905741E0
2.356046100E1;-3.962873936E0;-1.413084030E0;1.848230124E0
2.358021600E1;-4.511689186E0;-3.798332214E-1;-9.787030816E-1
2.359027500E1;-4.481872559E0;1.668643951E-2;-2.198742390E0
2.361029800E1;-3.718825102E0;6.944742203E-1;-4.207508087E0
2.363022200E1;-2.629056931E0;1.084451675E0;-4.847708702E0
2.364060700E1;-1.960384369E0;1.116801262E0;-4.483601570E0
2.366023700E1;-2.981493473E-1;9.914674759E-1;-2.177745581E0
2.367023800E1;-7.736444473E-2;9.731760025E-1;-1.259318471E0
2.369051500E1;2.191257477E-1;1.158846855E0;-1.442915201E-1
2.371019500E1;3.645436764E-1;1.473115921E0;-2.128887177E-2
2.372023200E1;3.251059055E-1;1.676099300E0;-2.905020714E-1
2.373024800E1;3.277585506E-1;1.887436867E0;-6.069383025E-1
2.374051300E1;3.526771069E-1;2.007827282E0;-9.489952922E-1
2.376023300E1;3.465056419E-1;1.984061718E0;-1.093105555E0
2.378026700E1;3.908574581E-1;2.030390263E0;-6.723544598E-1
2.380013800E1;2.235932350E-1;2.186632633E0;-2.535597682E-1
2.382016000E1;6.385564804E-2;2.561324120E0;-2.418383658E-1
2.383025300E1;6.646990776E-2;2.710490704E0;-3.693102896E-1
2.385024100E1;9.160447121E-2;3.011233807E0;-6.554267406E-1
2.387017000E1;1.964588165E-1;3.224365711E0;-6.851713061E-1
2.388031300E1;1.710629463E-1;3.192781448E0;-6.995978951E-1
2.390034500E1;3.033483028E-1;2.999884129E0;-9.449784756E-1
2.391052600E1;4.155089855E-1;2.965349674E0;-9.373503923E-1
2.393049300E1;5.042595863E-1;2.864821434E0;-9.836615324E-1
2.395020300E1;5.638158321E-1;2.721148491E0;-1.093396187E0
2.396021800E1;7.655813694E-1;2.599920273E0;-1.309941530E0
2.398022000E1;1.110876560E0;2.574251652E0;-1.267457962E0
2.399026500E1;1.232683897E0;2.496637344E0;-1.130533099E0
2.400041700E1;1.406571627E0;2.500129223E0;-9.805542231E-1
2.401131400E1;1.673006058E0;2.451838493E0;-9.720470309E-1
2.403064100E1;1.911024809E0;2.339293480E0;-5.835317373E-1
2.405000800E1;1.889873028E0;2.400949001E0;-1.475245655E-1
2.406027100E1;2.078275919E0;2.481095314E0;-2.052835226E-1
2.408006700E1;2.468619823E0;2.431940079E0;-2.348743379E-1
2.409036200E1;2.521069050E0;2.471600533E0;-1.284106970E-1
2.411031700E1;2.566672802E0;2.777648449E0;1.718645990E-1
2.413020500E1;2.257119179E0;3.047958851E0;1.273427606E-1
2.414021600E1;2.065652370E0;2.985052586E0;-1.968845129E-1
2.415022500E1;1.608450413E0;2.576560974E0;-5.070885420E-1
2.416049300E1;1.177733183E0;1.993185043E0;-8.522574902E-1
2.418011000E1;-2.090458870E-1;-3.189563751E-1;-1.620996118E0
2.419017300E1;-4.662637711E-1;-1.774070740E0;-1.744454145E0
2.421017500E1;-8.045284748E-1;-5.170160294E0;-1.745676279E0
2.422023600E1;-8.034970760E-1;-6.324962616E0;-1.553307295E0
2.423049000E1;-1.324665070E0;-7.635008812E0;-2.028213739E0
2.425013400E1;-3.377697229E0;-1.010584259E1;-4.635776043E0
2.426035900E1;-3.887880564E0;-1.038943195E1;-5.083706379E0
2.428028100E1;-3.614907742E0;-1.031199265E1;-3.913949251E0
2.430026900E1;-2.937521935E0;-9.792729378E0;-1.045368314E0
2.431031100E1;-3.008879900E0;-9.145808220E0;3.409141898E-1
2.432049900E1;-2.657104254E0;-7.918978691E0;1.580437303E0
2.433134000E1;-2.906636715E0;-6.470186234E0;2.236396551E0
2.435050700E1;-3.903129339E0;-3.652950287E0;1.872684836E0
2.437025000E1;-5.072618484E0;-5.407762527E-1;7.816986740E-2
2.438077800E1;-5.926877975E0;9.099473953E-1;-9.476444721E-1
2.440010100E1;-6.616857529E0;3.636199474E0;-2.440198898E0
2.441117100E1;-6.893466949E0;4.578606606E0;-3.184017658E0
2.443024100E1;-6.759571075E0;5.446197987E0;-3.943599224E0
2.445074300E1;-5.536389351E0;4.005997181E0;-2.813817739E0
2.446999600E1;-4.508554459E0;2.725284100E0;-1.063168764E0
2.448019900E1;-3.953580856E0;2.267972469E0;-2.189268321E-1
2.449026100E1;-3.500013590E0;1.866444111E0;3.161047697E-1
2.451027100E1;-2.737642050E0;1.431366444E0;1.354434252E0
2.453026600E1;-1.763139963E0;8.467502594E-1;1.561917305E0
2.455027500E1;-3.552153111E-1;4.700889587E-1;1.839614391E0
2.456028300E1;3.313288689E-1;4.420280457E-1;2.164928436E0
2.458029300E1;1.300106764E0;3.656444550E-1;2.719532013E0
2.459030200E1;1.520886183E0;2.348489761E-1;2.763594866E0
2.461025500E1;1.533404589E0;-5.394268036E-1;2.157489538E0
2.462051400E1;1.425425053E0;-7.814817429E-1;1.945544839E0
2.464021200E1;1.218852520E0;-7.479572296E-1;2.296135902E0
2.465027200E1;1.107721329E0;-8.462724686E-1;2.509614944E0
2.467021200E1;9.673843384E-1;-1.319375992E0;3.001536369E0
2.468027800E1;1.211003304E0;-1.373218536E0;3.316091061E0
2.470025900E1;1.423597813E0;-1.534535408E0;4.048777580E0
2.471033300E1;1.556275845E0;-1.512403965E0;4.168764114E0
2.473036600E1;2.030439377E0;-1.419420242E0;3.933455944E0
2.475021900E1;2.024724007E0;-1.628785133E0;3.386399031E0
2.476032200E1;1.728530884E0;-2.045958042E0;2.985306978E0
2.478042300E1;1.887904167E0;-2.412623882E0;2.305100679E0
2.480019800E1;2.238236427E0;-2.388126373E0;1.826884627E0
2.481026100E1;2.421940804E0;-2.252371311E0;1.694351912E0
2.483046000E1;2.597840786E0;-1.968454838E0;1.651094913E0
2.485017500E1;3.205428123E0;-1.537389755E0;1.777496099E0
2.486020800E1;3.647218704E0;-1.366363049E0;1.871118307E0
2.487093900E1;4.076264381E0;-1.259771347E0;1.858613610E0
2.489048700E1;4.702113152E0;-8.981552124E-1;2.081096172E0
2.491023200E1;5.257996082E0;-5.971574783E-1;2.092670918E0
2.493021400E1;5.767722607E0;-3.199520111E-1;1.758962035E0
2.494032600E1;5.961360455E0;-1.871724129E-1;1.418680191E0
2.496021400E1;6.003535748E0;1.553535461E-1;3.538555205E-1
2.498030100E1;5.777103424E0;7.977323532E-1;-3.382499516E-1
2.499233500E1;5.777113914E0;9.816722870E-1;-5.765841007E-1
2.500741300E1;6.143864632E0;1.119162560E0;-8.738427162E-1
2.502037200E1;6.273907185E0;1.236968994E0;-8.968617916E-1
2.503051200E1;5.558428764E0;1.095839977E0;-4.628279507E-1
2.505105200E1;3.942595482E0;1.338203907E0;1.955190301E-1
2.507007600E1;2.025853157E0;1.177870274E0;-4.399906993E-1
2.508017600E1;1.209293842E0;9.906821251E-1;-1.283640504E0
2.509031700E1;5.716776848E-1;6.949043274E-1;-2.339265347E0
2.511026300E1;-2.703776360E-1;7.860994339E-2;-3.852743387E0
2.513030500E1;-8.706674576E-1;-8.534016609E-1;-4.579965591E0
2.515015700E1;-1.188324451E0;-2.230307579E0;-4.744215488E0
2.516035600E1;-1.090034008E0;-2.573202610E0;-4.408030033E0
2.518007600E1;-1.054087162E0;-3.928787231E0;-3.753162384E0
2.519022400E1;-9.912261963E-1;-4.776819706E0;-3.374015331E0
2.520034900E1;-8.508982658E-1;-5.622300625E0;-2.789213419E0
2.521049900E1;-5.565538406E-1;-6.044737339E0;-2.086073399E0
2.522996000E1;1.341037750E-1;-6.497077465E0;-7.111112475E-1
2.524000600E1;7.181739807E-1;-6.168747425E0;-3.459165394E-1
2.525001400E1;5.028715134E-1;-5.971713066E0;-1.957283318E-1
2.526015900E1;-4.750537872E-2;-5.845710754E0;-6.727437675E-2
2.527016300E1;-1.031435966E0;-5.822448730E0;-1.898451149E-1
2.528036700E1;-2.190226078E0;-5.828685760E0;-7.456015348E-1
2.530014500E1;-3.308935642E0;-3.893672943E0;-1.762586594E0
2.531028600E1;-3.701145172E0;-2.808281898E0;-2.134857655E0
2.533107200E1;-4.863371849E0;-1.335353851E0;-1.594801903E0
2.535022100E1;-6.132063866E0;-7.959146500E-1;-7.422834635E-3
2.536037700E1;-6.417240143E0;-5.738487244E-1;2.485089302E-1
2.538016900E1;-5.567770958E0;-8.744621277E-2;-8.434247971E-1
2.539082900E1;-4.786756516E0;-1.236038208E-1;-1.786155701E0
2.541026500E1;-2.765566111E0;-2.153558731E-1;-2.386860609E0
2.543023600E1;-9.663186073E-1;-5.300912857E-1;6.077259779E-3
2.544031100E1;-8.738527298E-1;-4.950370789E-1;7.629671097E-1
2.545047200E1;-9.082388878E-1;-4.125967026E-1;1.197595358E0
2.547019800E1;-8.146142960E-1;1.276264191E-1;1.157130003E0
2.548025400E1;-7.780549526E-1;5.157909393E-1;5.896674395E-1
2.550030800E1;-7.642009258E-1;1.077143669E0;-6.409826279E-1
2.551100900E1;-7.001352310E-1;1.179705620E0;-1.018770218E0
2.553122000E1;-4.249181747E-1;1.182696342E0;-1.531553745E0
2.555029200E1;-1.993157864E-1;1.433619976E0;-1.728350520E0
2.557021100E1;-1.701753139E-1;2.132189274E0;-1.396964073E0
2.558041400E1;-1.709134579E-1;2.406091690E0;-1.445935845E0
2.560028200E1;-4.088902473E-2;2.724498749E0;-1.278032541E0
2.562024200E1;6.011009216E-3;2.814789772E0;-7.171931863E-1
2.563062200E1;1.542727947E-1;2.772794247E0;-6.947843432E-1
2.565027800E1;5.452404022E-1;2.459126472E0;-9.995072484E-1
2.567032800E1;7.080280781E-1;2.400808811E0;-6.775169969E-1
2.569026300E1;5.759954453E-1;2.297884941E0;-5.730547309E-1
2.571031700E1;4.638762474E-1;2.176612854E0;-5.867226124E-1
2.573025500E1;2.182509899E-1;2.199970722E0;-3.989800513E-1
2.574025700E1;2.097136974E-1;2.179126740E0;-3.235176802E-1
2.576027300E1;4.123315811E-1;1.666004658E0;-5.688046813E-1
2.578039900E1;7.347455025E-1;1.169317245E0;-1.364566386E-1
2.580068100E1;1.001086712E0;1.006752014E0;5.356535316E-1
2.582020300E1;1.913844109E0;1.310990810E0;5.101192594E-1
2.583025900E1;2.124606848E0;1.445155621E0;5.627911091E-1
2.585035500E1;2.161501884E0;1.792788029E0;7.346587181E-1
2.586039400E1;2.039540291E0;2.079858780E0;7.505717278E-1
2.588074900E1;1.721528530E0;2.529753208E0;3.045090139E-1
2.590020400E1;1.301100254E0;2.687468052E0;-4.140957594E-1
2.591030500E1;1.153026104E0;2.839465141E0;-4.803531170E-1
2.593018900E1;6.723096371E-1;2.842241287E0;-5.107172132E-1
2.594033100E1;5.382463932E-1;2.849965572E0;-4.463526011E-1
2.596030900E1;4.894073009E-1;2.979598999E0;-1.598801911E-1
2.598017600E1;7.059707642E-1;3.224033356E0;2.615641952E-1
2.599025400E1;7.740542889E-1;3.346742153E0;5.362339616E-1
2.600139000E1;7.563207150E-1;3.487897396E0;7.792582512E-1
2.602023500E1;-3.329720497E-1;2.850616932E0;1.541185528E-1
2.604093700E1;-1.309500456E0;1.206057549E0;-5.739601851E-1
2.606026600E1;-2.236623049E0;-9.253616333E-1;-1.631799817E0
2.608023700E1;-2.953301907E0;-2.734367371E0;-2.465515137E0
2.610026400E1;-4.146019936E0;-5.355946541E0;-3.081909657E0
2.611034500E1;-4.736125469E0;-7.248188019E0;-3.320862293E0
2.613020800E1;-5.892983437E0;-1.135189342E1;-2.060911417E0
2.614023700E1;-5.511067390E0;-1.238709641E1;-6.384112835E-1
2.616044600E1;-3.904907942E0;-1.114980507E1;3.300696373E0
2.618033900E1;-3.040400982E0;-9.169151306E0;4.651199341E0
2.620028900E1;-2.826825857E0;-6.453596115E0;4.467831612E0
2.622014800E1;-1.616003871E0;-2.269521713E0;2.548830032E0
2.623024900E1;-1.237208486E0;-9.959039688E-1;8.576555252E-1
2.625025100E1;-5.365573168E-1;1.799102306E0;-3.070088387E0
2.626053200E1;-2.479228973E-1;3.060886860E0;-4.657696724E0
2.628026000E1;-3.641694784E-1;4.500638485E0;-5.849092484E0
2.629062600E1;-5.682156086E-1;4.897929668E0;-5.562401772E0
2.631031400E1;-8.894258738E-1;5.014956951E0;-4.761651516E0
2.633026900E1;-9.796633720E-1;4.278724670E0;-4.036535263E0
2.635021300E1;-1.355816603E0;2.396261692E0;-2.946933746E0
2.636032100E1;-1.079492331E0;1.666468620E0;-1.711506963E0
2.637034200E1;-8.182559013E-1;9.984579086E-1;-3.411760926E-1
2.639021100E1;-5.898350477E-1;3.419218063E-1;1.984665871E0
2.640138100E1;-5.694866180E-1;1.354770660E-1;3.456799507E0
2.642027100E1;-1.537804842E0;-4.749822617E-1;3.445543766E0
2.643029400E1;-1.528366804E0;-5.274286270E-1;3.314517975E0
2.645048100E1;-1.137660027E0;-5.522518158E-1;2.961335421E0
2.647018000E1;-8.283731937E-1;-2.728509903E-1;3.211180449E0
2.648023200E1;-7.120127678E-1;-2.954998016E-1;2.979434490E0
2.649033100E1;-4.329922199E-1;-3.296823502E-1;2.688577414E0
2.651029100E1;4.495766163E-1;-3.119735718E-1;2.611096144E0
2.653019600E1;1.277213335E0;-3.347234726E-1;2.946759462E0
2.654047400E1;1.851468086E0;-2.715940475E-1;2.542272091E0
2.656017300E1;2.302037954E0;2.207612991E-1;2.288693190E0
2.657018300E1;2.096803665E0;2.274761200E-1;2.047642708E0
2.658032300E1;1.963233232E0;3.158874512E-1;1.869301677E0
2.660011700E1;1.999453068E0;4.520034790E-1;1.686163187E0
2.661021500E1;2.216301203E0;7.745046616E-1;1.824900150E0
2.662024400E1;2.396317959E0;8.642106056E-1;1.932381630E0
2.663026300E1;2.608465910E0;9.703636169E-1;1.998963237E0
2.665014400E1;2.667188406E0;1.074218750E0;2.143393278E0
2.666042900E1;2.581271410E0;9.023866653E-1;2.007575989E0
2.668033100E1;2.760783672E0;5.670452118E-1;1.655315161E0
2.670041000E1;2.863503218E0;2.257976532E-1;1.509632468E0
2.672018700E1;2.797877073E0;1.983890533E-1;1.506107807E0
2.674020000E1;2.350390673E0;2.287349701E-1;1.481525183E0
2.676027600E1;1.961153269E0;3.919820786E-1;1.157124162E0
2.678053200E1;1.601321459E0;5.756969452E-1;8.877491355E-1
2.680081200E1;1.487199545E0;1.102349758E0;4.464274049E-1
2.682024500E1;1.254121304E0;1.561657429E0;5.386106372E-1
2.683109600E1;1.103396177E0;1.798706055E0;6.335492730E-1
2.685055000E1;5.775494576E-1;2.033662796E0;6.562502980E-1
2.687017600E1;8.730602264E-2;2.330834389E0;8.014228344E-1
2.688078000E1;-2.358465195E-1;2.365439415E0;9.174013138E-1
2.690023400E1;-6.187572479E-1;2.586176395E0;7.731342912E-1
2.692022300E1;-7.075600624E-1;2.689431190E0;3.057131767E-1
2.693060000E1;-8.049864769E-1;2.605968475E0;2.430231571E-1
2.695050200E1;-9.551262856E-1;2.258769035E0;6.092591286E-1
2.697158900E1;-6.586670876E-1;1.945562363E0;4.611198902E-1
2.699023400E1;-3.053455353E-1;1.583941936E0;-4.395341873E-2
2.700026200E1;4.064898491E-1;4.637646675E-1;-8.859814405E-1
2.701081500E1;6.898746490E-1;-4.442920685E-1;-1.227663755E0
2.703024900E1;1.101260662E0;-2.146922112E0;-7.857254148E-1
2.705031100E1;1.330611706E0;-3.503159046E0;2.194341421E-1
2.707004400E1;1.028442860E0;-4.653945446E0;-5.359470248E-1
2.708022800E1;8.096652031E-1;-5.376649380E0;-1.404346466E0
2.709025500E1;6.494855881E-1;-6.180161476E0;-2.073137283E0
2.711052300E1;7.494254112E-1;-7.527297974E0;-2.397807360E0
2.713023800E1;1.149939537E0;-8.388332367E0;-2.047591925E0
2.715022700E1;7.756071091E-1;-8.102178574E0;-1.033189774E0
2.716167100E1;3.951263428E-2;-7.547867775E0;-5.745949745E-1
2.718016200E1;-1.383975506E0;-5.869841576E0;-5.917267799E-1
2.719021300E1;-1.719058990E0;-3.748447418E0;-7.149413824E-1
2.720029400E1;-1.492061615E0;-2.621863365E0;-6.653492451E-1
2.722015200E1;-6.629374027E-1;-6.313591003E-1;-1.310486197E-1
2.723996500E1;-8.333494663E-1;2.789983749E-1;5.556994677E-1
2.724999300E1;-9.849905968E-1;5.006895065E-1;8.068073988E-1
2.726003100E1;-1.090615988E0;6.461124420E-1;3.994187117E-1
2.727015500E1;-1.197333336E0;6.705694199E-1;-5.511126518E-1
2.728017500E1;-8.779644966E-1;9.960231781E-1;-1.476073265E0
2.729046700E1;-4.582066536E-1;1.249423981E0;-2.389837027E0
2.731019000E1;2.792415619E-1;1.460441589E0;-3.042749405E0
2.733017700E1;9.232707024E-1;1.251950264E0;-2.183203936E0
2.734022200E1;1.276876330E0;1.043158531E0;-1.506997108E0
2.736026100E1;1.902420044E0;4.989156723E-1;-5.179709196E-2
2.738023500E1;1.658250451E0;6.712913513E-2;1.234012008E0
2.740020600E1;7.473611832E-1;4.157772064E-1;8.459151387E-1
2.741026000E1;5.932289362E-1;5.116434097E-1;5.273293853E-1
2.742037000E1;4.439730644E-1;4.389553070E-1;4.252133369E-1
2.744025800E1;5.502645969E-1;-1.153688431E-1;5.278002024E-1
2.746029300E1;9.081891775E-1;-5.665988922E-1;9.134352803E-1
2.747033000E1;9.967482090E-1;-5.836811066E-1;1.235991955E0
2.748053800E1;1.078677893E0;-4.472560883E-1;1.378459215E0
2.750044600E1;1.014890432E0;3.925895691E-2;1.104607821E0
2.751058600E1;8.658556938E-1;3.638782501E-1;7.496113777E-1
2.753016600E1;6.323097944E-1;6.828212738E-1;2.090245485E-3
2.754021400E1;6.924346685E-1;7.868118286E-1;-1.891285032E-1
2.755045500E1;7.732708454E-1;8.323364258E-1;-3.277595639E-1
2.757030200E1;9.318991899E-1;1.023783684E0;-4.375508726E-1
2.758031900E1;1.063691378E0;1.567732811E0;-4.274860024E-1
2.760016700E1;1.338225842E0;1.987437725E0;-7.782686949E-1
2.761022000E1;1.379947186E0;2.110849857E0;-7.876888514E-1
2.763023100E1;1.470907331E0;2.279746056E0;-7.314203978E-1
2.765021000E1;1.528887153E0;2.543151855E0;-4.482710063E-1
2.766032400E1;1.508554816E0;2.730718136E0;-4.050859213E-1
2.768041000E1;1.479835629E0;3.006845474E0;-7.103583813E-1
2.770024100E1;1.256200910E0;3.029181957E0;-9.425812960E-1
2.771142400E1;1.130662680E0;3.048389435E0;-8.263081908E-1
2.773024300E1;7.114706039E-1;2.962559223E0;-5.549170375E-1
2.775032300E1;5.848884583E-1;3.068458080E0;-3.032715917E-1
2.777017000E1;5.218741894E-1;3.270875931E0;-7.093055546E-2
2.778020000E1;4.487476349E-1;3.535614491E0;1.530956179E-1
2.779053800E1;5.027713776E-1;3.656877518E0;1.438543499E-1
2.780063600E1;6.269388199E-1;3.814105034E0;2.772358060E-1
2.782021400E1;9.190397263E-1;3.901987076E0;2.687999606E-1
2.783026100E1;1.081005216E0;4.017702103E0;4.543663859E-1
2.784041800E1;1.262966752E0;4.070947170E0;4.374772012E-1
2.786029800E1;1.288862348E0;4.026057720E0;5.608867407E-1
2.788041500E1;8.714070320E-1;3.605110645E0;3.996382058E-1
2.790024600E1;4.628565311E-1;3.036187649E0;5.281456709E-1
2.792017600E1;-6.597774029E-1;1.719388962E0;-4.078328609E-2
2.793032100E1;-1.067791939E0;8.775787354E-1;-6.506906748E-1
2.794034100E1;-1.419559002E0;-1.120252609E-1;-1.275278330E0
2.796025400E1;-1.563714743E0;-1.849283218E0;-1.775942683E0
2.798019100E1;-2.061849117E0;-4.109508514E0;-1.999549150E0
2.800493200E1;-2.859482527E0;-6.342353821E0;-2.977337837E0
2.802028600E1;-3.290192842E0;-9.231063843E0;-3.605705261E0
2.803032700E1;-3.342901468E0;-1.042131042E1;-3.429002285E0
2.805021500E1;-2.934884310E0;-1.126784420E1;-2.168584108E0
2.806038700E1;-2.806942463E0;-1.092131519E1;-1.115157604E0
2.808017200E1;-3.463657856E0;-8.888777733E0;8.090040684E-1
2.809027900E1;-4.147184372E0;-7.492035866E0;1.111589074E0
2.811033600E1;-4.261735916E0;-4.040863037E0;2.106643319E-1
2.813017500E1;-4.401996136E0;-8.190422058E-1;-1.105406284E0
2.814022800E1;-4.733072758E0;4.441843033E-1;-2.075906992E0
2.816021500E1;-5.608822823E0;2.403033733E0;-3.329359055E0
2.818018200E1;-6.798948765E0;3.729320049E0;-4.661963463E0
2.819027500E1;-6.774672508E0;3.805188179E0;-4.654337883E0
2.821023600E1;-5.755371094E0;3.148503780E0;-4.332293510E0
2.822024400E1;-4.832211494E0;2.340376377E0;-3.824486971E0
2.824022700E1;-2.565872908E0;8.275070190E-1;-1.331993818E0
2.826070400E1;-5.417888165E-1;-4.630947113E-2;1.130765557E0
2.828032500E1;2.061123848E-1;-1.230697632E-1;2.861599207E0
2.829033900E1;1.088552475E-1;-7.011699677E-2;3.228391647E0
2.831031400E1;-2.983455658E-1;-2.005672455E-1;3.537976027E0
2.833018700E1;-5.307755470E-1;-4.691534042E-1;3.462971449E0
2.834019800E1;-5.100698471E-1;-6.842947006E-1;3.248678446E0
2.835021300E1;-2.814011574E-1;-9.046134949E-1;3.011248350E0
2.836026200E1;-1.361174583E-1;-1.140549660E0;3.098486185E0
2.837027000E1;2.829763889E-1;-1.800883293E0;3.602694511E0
2.839027800E1;9.815218449E-1;-2.326782227E0;4.317919731E0
2.841006200E1;1.220006227E0;-2.421360970E0;5.049645424E0
2.842020000E1;1.157160282E0;-2.221690178E0;5.304592609E0
2.843026200E1;9.651768208E-1;-1.986104012E0;5.333840370E0
2.845033100E1;7.376542091E-1;-1.407493591E0;4.958567142E0
2.847022900E1;8.283343315E-1;-1.188257217E0;4.301103115E0
2.848032800E1;1.084181309E0;-1.218235016E0;4.142270088E0
2.850047800E1;1.766714096E0;-1.209207535E0;3.917907238E0
2.852064200E1;2.374788523E0;-1.037690163E0;3.466130733E0
2.854025900E1;2.792164326E0;-7.290854454E-1;2.791307926E0
2.855069800E1;2.876610041E0;-5.105876923E-1;2.521440983E0
2.857023100E1;2.835309744E0;1.183133125E-1;1.728441358E0
2.858041100E1;2.954726934E0;3.212685585E-1;1.593146205E0
2.860054400E1;3.248732328E0;6.290335655E-1;1.614963055E0
2.861140800E1;3.388928175E0;8.618197441E-1;1.821390748E0
2.863103900E1;3.630346775E0;1.231563568E0;2.180705547E0
2.865022900E1;3.935454369E0;1.697205544E0;2.225316763E0
2.867021400E1;4.083293915E0;2.039805889E0;1.829807162E0
2.868023700E1;3.990683794E0;2.084718704E0;1.543961406E0
2.869027900E1;3.905220985E0;2.088557243E0;1.199184179E0
2.871026800E1;3.485153198E0;2.088021755E0;9.619597197E-1
2.873023200E1;3.209972143E0;1.728052139E0;6.990782619E-1
2.874036600E1;3.074638605E0;1.381826401E0;5.521663427E-1
2.876025600E1;2.041447639E0;1.759290695E-1;8.807405829E-1
2.878023100E1;1.645116329E0;-1.031245232E0;4.835011959E-1
2.880039600E1;1.443805218E0;-2.299612045E0;-4.181606174E-1
2.881068000E1;1.295730591E0;-2.897907257E0;-8.537123203E-1
2.883020800E1;1.176298618E0;-4.283330917E0;-1.674265027E0
2.884032800E1;9.798622131E-1;-5.150329590E0;-1.854522347E0
2.885049400E1;8.382520676E-1;-5.862635136E0;-1.950335383E0
2.886055600E1;7.707147598E-1;-6.402484417E0;-1.850254059E0
2.888041500E1;8.112173080E-1;-7.194251060E0;-1.653334022E0
2.889047600E1;1.421705723E0;-7.067419529E0;-1.478929758E0
2.890061800E1;2.154565811E0;-6.847144604E0;-1.285191417E0
2.892016300E1;3.198624134E0;-5.755689621E0;1.824896783E-1
2.893021600E1;3.137426138E0;-5.128401279E0;1.235582829E0
2.894023700E1;2.876771450E0;-4.655393124E0;1.819508314E0
2.896025200E1;3.098240852E0;-3.861322403E0;2.063414335E0
2.898025200E1;2.727857351E0;-3.620924950E0;1.483328938E0
2.899062400E1;2.025650024E0;-3.510350227E0;9.833683372E-1
2.900067600E1;1.130452633E0;-3.326194763E0;2.324933410E-1
2.901314700E1;2.198109627E-1;-3.029463768E0;-8.091461658E-1
2.903030000E1;-1.418994904E0;-2.127910614E0;-3.250370979E0
2.905025400E1;-2.312099695E0;-8.754377365E-1;-4.640268326E0
2.906149000E1;-2.543020248E0;-3.620424271E-1;-4.735202789E0
2.908005300E1;-2.478290319E0;-2.050666809E-1;-3.758041382E0
2.909019600E1;-1.756627321E0;-2.549695969E-1;-2.697463036E0
2.910021300E1;-1.102861881E0;-4.204359055E-1;-1.779876947E0
2.911028200E1;-5.278766155E-1;-4.831285477E-1;-8.818973303E-1
2.913019100E1;2.360680103E-1;-4.407787323E-1;4.158293009E-1
2.914019800E1;1.375315189E-1;-2.376708984E-1;6.440842748E-1
2.915029000E1;1.029736996E-1;3.435230255E-2;-2.280397415E-1
2.917023600E1;-3.734626770E-1;2.456312180E-1;-1.051482916E0
2.919021000E1;-6.244745255E-1;8.921308517E-1;-1.151797056E0
2.921030200E1;-1.001100302E0;1.574159145E0;-8.392404318E-1
2.923032200E1;-1.336103916E0;2.127732277E0;-7.520492077E-1
2.924997000E1;-1.437010050E0;2.293999672E0;-1.134284854E0
2.925999900E1;-1.385970354E0;2.271344662E0;-1.504400253E0
2.927015700E1;-1.320059538E0;2.289206982E0;-1.662831306E0
2.928042500E1;-1.256259203E0;2.319329262E0;-1.740777254E0
2.930017700E1;-1.388696909E0;2.351112843E0;-1.662270904E0
2.931027900E1;-1.510780334E0;2.477705002E0;-1.446373701E0
2.932066700E1;-1.608753681E0;2.624436378E0;-1.298799515E0
2.934024000E1;-1.664674520E0;2.797037601E0;-1.299853325E0
2.936023100E1;-1.229604959E0;2.765927792E0;-1.401676655E0
2.938032400E1;-8.866379261E-1;2.695829391E0;-1.063521147E0
2.939033500E1;-6.997127533E-1;2.711863518E0;-8.285125494E-1
2.941021100E1;-7.845070362E-1;2.750469685E0;-3.000164330E-1
2.943027300E1;-8.471283913E-1;2.856974602E0;-2.883808017E-1
2.945017100E1;-6.541597843E-1;2.837548256E0;-5.692266226E-1
2.946023900E1;-5.162193775E-1;2.848782063E0;-6.328194141E-1
2.948020600E1;-3.019976616E-1;2.925825119E0;-7.535525560E-1
2.949031600E1;-2.089917660E-1;3.011987209E0;-7.632595301E-1
2.951023400E1;1.414773464E-1;3.100366592E0;-8.924353719E-1
2.952042800E1;3.477933407E-1;3.105268002E0;-8.974321485E-1
2.954030300E1;7.639553547E-1;3.147606850E0;-7.305874228E-1
2.955033800E1;1.136335611E0;3.238611698E0;-5.740295053E-1
2.957018500E1;1.369327307E0;3.223728180E0;-2.973933220E-1
2.958064400E1;1.519506812E0;3.275846958E0;-4.709911346E-2
2.960044300E1;1.325454950E0;3.343811035E0;2.618358731E-1
2.962037700E1;5.923831463E-1;3.086187363E0;-4.938656092E-2
2.963077100E1;2.121677399E-1;2.621582508E0;-3.370266259E-1
2.965020200E1;-4.005050659E-1;8.701477051E-1;-8.169558644E-1
2.966022800E1;-6.945469379E-1;-1.524152756E-1;-9.510785341E-1
2.968075600E1;-1.207650423E0;-1.984465599E0;-1.426223755E0
2.970017500E1;-1.876858711E0;-3.733699799E0;-2.295162678E0
2.971023300E1;-2.213907480E0;-4.744170189E0;-2.768946886E0
2.973055400E1;-2.598061085E0;-7.256011009E0;-3.208641291E0
2.975051900E1;-3.759351730E0;-9.825385094E0;-2.578427315E0
2.977045200E1;-4.233284950E0;-9.092544556E0;-1.430374146E0
2.979020900E1;-4.578887939E0;-7.102651596E0;-8.789123893E-1
2.980022200E1;-4.754635811E0;-5.797887802E0;-7.825068235E-1
2.981030400E1;-4.804345131E0;-4.673291206E0;-6.505262852E-1
2.983017800E1;-4.576501369E0;-2.704108238E0;-1.996640563E-1
2.984018000E1;-4.381481171E0;-1.210684776E0;5.631211400E-1
2.985024500E1;-4.364094734E0;3.147773743E-1;1.099373102E0
2.987015000E1;-5.588831425E0;2.795171261E0;1.288017750E0
2.988017800E1;-6.015807152E0;3.518115520E0;8.587531447E-1
2.989046100E1;-6.540387154E0;3.557714462E0;2.531269789E-1
2.991052900E1;-6.572067261E0;3.408317566E0;-7.681417465E-1
2.993048700E1;-5.925673962E0;2.628073215E0;-1.132089615E0
2.995022000E1;-4.622200012E0;7.566194534E-1;-1.001531243E0
2.997016600E1;-2.405282974E0;-7.319211960E-1;1.275223494E-1
2.998020900E1;-1.168890238E0;-1.301518440E0;1.385290384E0
2.999023800E1;-3.870654106E-2;-1.737387657E0;2.869413137E0
3.001032300E1;1.588831186E0;-2.195620537E0;5.601731777E0
3.002033000E1;1.996749640E0;-2.229836464E0;6.457000256E0
3.003055400E1;2.203798532E0;-2.189535141E0;6.895751953E0
3.005018800E1;2.125087738E0;-2.031774521E0;6.093286037E0
3.006062100E1;1.989035368E0;-2.018544197E0;5.120190144E0
3.008024100E1;1.515254498E0;-2.092124939E0;3.573045254E0
3.010018400E1;1.493893623E0;-2.283705711E0;2.496099949E0
3.011032100E1;1.600834846E0;-2.234315872E0;2.188004494E0
3.013026000E1;1.653634548E0;-2.029519081E0;2.636260033E0
3.014026600E1;1.428356647E0;-1.579041481E0;3.180232763E0
3.016029300E1;1.313980103E0;-1.128212929E0;3.843154192E0
3.018057400E1;1.438719273E0;-7.168693542E-1;3.626491547E0
3.020067800E1;1.914174557E0;-5.151028633E-1;3.272744894E0
3.022018000E1;2.709692717E0;-5.352082253E-1;2.960308313E0
3.023022600E1;3.103542328E0;-5.433888435E-1;2.949512959E0
3.024023000E1;3.380992174E0;-6.139955521E-1;3.085112810E0
3.026021000E1;3.789854050E0;-6.479582787E-1;3.622818947E0
3.028019100E1;4.181866646E0;-4.386010170E-1;3.784589291E0
3.029022900E1;4.331716061E0;-2.778196335E-1;3.557399750E0
3.030024800E1;4.298597813E0;-1.193656921E-1;3.309209824E0
3.031032400E1;4.323118210E0;8.116674423E-2;2.968660355E0
3.033052900E1;4.363338947E0;4.413909912E-1;2.373429775E0
3.035019500E1;4.719371796E0;7.779741287E-1;2.607210875E0
3.036037400E1;4.969101429E0;9.802584648E-1;2.797030210E0
3.037058300E1;5.153769970E0;1.248573780E0;2.965412378E0
3.039197100E1;5.256001472E0;1.886900902E0;2.964539766E0
3.041028400E1;4.815176964E0;2.696238041E0;2.458240271E0
3.042050800E1;4.397408962E0;2.983003616E0;1.790035725E0
3.044016700E1;3.689257383E0;3.344862461E0;-1.665250063E-1
3.045030700E1;3.257344007E0;3.385536909E0;-9.430710077E-1
3.047019600E1;2.213269234E0;2.862486839E0;-1.664037108E0
3.048033800E1;2.075273991E0;2.643279076E0;-1.426346779E0
3.050015700E1;1.366427898E0;1.920206547E0;-4.662621021E-2
3.051022800E1;8.520255089E-1;1.429838657E0;1.188456655E0
3.053049000E1;-1.065581322E0;2.746267319E-1;2.673717022E0
3.055017000E1;-1.602169514E0;-2.889719009E-1;1.433480978E-1
3.056017900E1;-1.835532665E0;-9.004411697E-1;-1.731022120E0
3.058049000E1;-1.396987438E0;-1.656020641E0;-5.105051041E0
3.060019100E1;-1.002049446E0;-3.084973335E0;-6.430819035E0
3.061047900E1;-7.725958824E-1;-3.757817268E0;-6.372377396E0
3.063023600E1;-2.589278221E-1;-5.311271667E0;-5.011443138E0
3.065018800E1;2.745170593E-1;-7.060409546E0;-2.771314621E0
3.066025800E1;3.865957260E-1;-7.698909760E0;-1.489106774E0
3.068019100E1;5.253577232E-1;-8.236318588E0;4.126465321E-1
3.069022400E1;6.237792969E-1;-8.002986908E0;6.586880684E-1
3.070042300E1;8.956313133E-1;-7.361254692E0;3.949487209E-1
3.072015600E1;1.153859138E0;-5.620541096E0;-9.820008874E-1
3.073016200E1;1.107378483E0;-3.886413097E0;-1.143755436E0
3.074027100E1;1.103416443E0;-3.120870590E0;-1.338950515E0
3.075060700E1;1.089570522E0;-2.443627357E0;-1.540592432E0
3.077016600E1;5.159330368E-1;-2.068053246E0;-2.241499901E0
3.078019300E1;6.647109985E-4;-2.240838051E0;-2.696833611E0
3.079024300E1;-4.730134010E-1;-2.361324310E0;-3.066171169E0
3.081020400E1;-1.687736511E0;-2.799406052E0;-3.650160551E0
3.082053100E1;-2.180059910E0;-2.922270775E0;-3.710189342E0
3.084021400E1;-2.154215097E0;-2.446812630E0;-2.873160362E0
3.086018200E1;-1.475701571E0;-1.608656883E0;-1.369129300E0
3.088017300E1;-3.950033188E-1;-7.384414673E-1;2.191119194E-1
3.089048100E1;7.024884224E-2;-4.920539856E-1;7.456413507E-1
3.091026700E1;8.944902420E-1;-1.592121124E-1;1.285223842E0
3.093058400E1;1.761124730E0;-1.204061508E-1;6.082121134E-1
3.095079100E1;2.094338655E0;-1.000995636E-1;1.082229614E-2
3.097029700E1;1.721145749E0;3.719873428E-1;-1.782343984E-1
3.099022100E1;1.138671637E0;1.038784027E0;-5.306586027E-1
3.100027800E1;9.494836330E-1;1.414622307E0;-6.239900589E-1
3.101072200E1;5.850732327E-1;1.738165855E0;-7.652770281E-1
3.102079500E1;2.522468567E-1;2.060616016E0;-8.691357374E-1
3.104022200E1;-3.143734932E-1;2.460966110E0;-1.171466112E0
3.105024400E1;-4.090597630E-1;2.625920296E0;-1.232399344E0
3.106032900E1;-3.837251663E-1;2.731880188E0;-1.364359021E0
3.108660500E1;-1.622352600E-1;3.038188934E0;-1.487645984E0
3.110025100E1;-1.473720074E-1;3.370854378E0;-1.319794655E0
3.111030600E1;-1.728308201E-1;3.361829281E0;-1.184444189E0
3.113019600E1;7.037758827E-2;3.230230331E0;-7.239065170E-1
3.114038600E1;2.290596962E-1;3.134576797E0;-5.798894167E-1
3.116032100E1;6.585249901E-1;2.869027615E0;-2.261838317E-1
3.117224500E1;6.545364857E-1;2.773687363E0;-5.930238962E-2
3.119019600E1;5.459873676E-1;2.694950581E0;1.938952208E-1
3.121059600E1;5.453653336E-1;2.750843048E0;-1.168382168E-1
3.123017600E1;6.044867039E-1;2.678822041E0;-3.777676523E-1
3.125000200E1;6.804015636E-1;2.622312069E0;-3.808449507E-1
3.126010200E1;6.758408546E-1;2.686666012E0;-3.893520832E-1
3.128011100E1;6.956667900E-1;2.961075306E0;-5.588970184E-1
3.129020800E1;7.220330238E-1;3.102616787E0;-5.749620199E-1
3.130037100E1;8.199503422E-1;3.321084023E0;-4.955722690E-1
3.132022100E1;8.091301918E-1;3.923198223E0;-6.907010078E-2
3.134022800E1;5.936183929E-1;3.970951557E0;-3.253370523E-1
3.135024000E1;5.128893852E-1;3.729736805E0;-5.762194991E-1
3.137026400E1;3.527874947E-1;3.007880688E0;-7.378910780E-1
3.139022700E1;2.549257278E-1;2.282213211E0;-1.100656033E0
3.141026400E1;-3.137524128E-1;1.290069580E0;-1.917337894E0
3.143024500E1;-1.895459890E0;-4.433860779E-1;-2.531480074E0
3.145050300E1;-2.904818296E0;-2.267199516E0;-3.250803471E0
3.147017800E1;-2.998487711E0;-4.486712456E0;-3.038148165E0
3.148045500E1;-2.746373892E0;-5.523222923E0;-2.432937384E0
3.150011400E1;-2.741805553E0;-7.953905106E0;-2.005854130E0
3.151047800E1;-2.761958838E0;-1.021896839E1;-2.389203310E0
3.152057300E1;-2.386591911E0;-1.039593697E1;-1.972025514E0
3.154027400E1;-2.458969831E0;-8.891893387E0;9.239864349E-2
3.156047300E1;-4.032848358E0;-5.983775139E0;2.173787832E0
3.158017400E1;-5.100934982E0;-2.922514915E0;2.477193356E0
3.159025000E1;-5.263854980E0;-1.515070915E0;2.155041695E0
3.160030000E1;-5.255169868E0;-2.329282761E-1;1.470596910E0
3.162019800E1;-4.242156506E0;1.829735279E0;-5.633496046E-1
3.163021400E1;-3.630581856E0;2.567800045E0;-1.598030448E0
3.164030700E1;-2.943857670E0;3.146532059E0;-2.481399536E0
3.166019000E1;-1.889239550E0;3.639585495E0;-3.178221226E0
3.168035900E1;-2.056298733E0;3.114991188E0;-2.579574347E0
3.169049800E1;-2.243502378E0;2.784433842E0;-1.918038964E0
3.171032700E1;-2.913110256E0;1.793483257E0;-5.465033650E-1
3.173021900E1;-2.893793583E0;1.328903198E0;9.744215012E-2
3.174022400E1;-2.710590839E0;1.199005127E0;7.575539351E-1
3.176021200E1;-2.158373117E0;8.950996399E-1;2.278400660E0
3.177022100E1;-2.170943737E0;4.111995697E-1;2.856402874E0
3.178059400E1;-2.656475067E0;-6.389160156E-1;3.104014635E0
3.180019000E1;-2.312521935E0;-2.134902000E0;3.736309767E0
3.181020600E1;-1.946588039E0;-2.648011208E0;3.962149382E0
3.183026300E1;-1.219469547E0;-2.984761238E0;4.084693432E0
3.185020500E1;-6.145105362E-1;-2.742626190E0;3.867859125E0
3.187017900E1;-2.726078033E-2;-2.359625816E0;3.576596975E0
3.188024500E1;3.327426910E-1;-2.186088562E0;3.282530546E0
3.189025500E1;7.373743057E-1;-2.046234131E0;3.024150372E0
3.190047800E1;1.494257689E0;-1.844882011E0;2.848483562E0
3.192019500E1;2.109247684E0;-2.165250778E0;3.156046867E0
3.193024100E1;2.463344812E0;-2.347306252E0;3.181197882E0
3.195028500E1;2.998885393E0;-2.185384274E0;3.563256979E0
3.196029600E1;3.042223930E0;-2.059898853E0;3.572937489E0
3.198022200E1;2.980237007E0;-1.654263020E0;3.120269537E0
3.199048400E1;2.954391241E0;-1.451232433E0;2.795587540E0
3.201052000E1;3.082784891E0;-1.266938210E0;2.022189140E0
3.203033200E1;3.198717833E0;-1.179456234E0;1.535129189E0
3.205021600E1;3.469665766E0;-9.339098930E-1;1.352025151E0
3.206027900E1;3.637547970E0;-7.147073746E-1;1.202613354E0
3.208001100E1;3.766993999E0;-6.634712219E-2;6.989103556E-1
3.209003200E1;3.660952568E0;3.546566963E-1;5.513851643E-1
3.210016000E1;3.247894287E0;1.131168842E0;4.397753477E-1
3.211034300E1;3.177226067E0;1.459216595E0;3.916184902E-1
3.213019300E1;3.263201714E0;1.884133339E0;1.460921764E-1
3.214022400E1;3.410684586E0;1.988011360E0;-1.128685474E-1
3.215035000E1;3.641437531E0;2.059171677E0;-2.522717714E-1
3.217045200E1;3.933605433E0;2.069560051E0;-1.474169493E-1
3.219021800E1;4.061882496E0;1.959622383E0;1.194956303E-1
3.220030600E1;4.097975731E0;1.902622700E0;6.959342957E-2
3.222016100E1;4.048263550E0;1.849546432E0;-1.729761362E-1
3.223024000E1;3.951401234E0;1.851386070E0;-4.022983909E-1
3.225019100E1;3.592733383E0;1.783141613E0;-1.091512799E0
3.226024500E1;3.502027512E0;1.739449501E0;-1.390813470E0
3.228050900E1;3.597394705E0;1.470961094E0;-1.239130616E0
3.229078500E1;3.496464968E0;-4.510307312E-2;-3.776478767E-1
3.231028900E1;3.778610945E0;-1.844750404E0;4.665701389E-1
3.232034800E1;3.945377350E0;-2.699122429E0;2.930252552E-1
3.234022100E1;4.017136574E0;-3.818286896E0;-9.602894783E-1
3.236049000E1;2.143536568E0;-5.116013527E0;-2.465378761E0
3.238018000E1;-2.513227463E-1;-6.971148491E0;-3.574831963E0
