"Time (s)";"Gyroscope x (rad/s)";"Gyroscope y (rad/s)";"Gyroscope z (rad/s)"
7.500877800E-2;-9.224065393E-2;-1.999972761E-1;2.616946772E-2
9.472477800E-2;-1.209513247E-1;-3.258355260E-1;5.400048569E-3
1.146987780E-1;-2.651154995E-1;-2.519208193E-1;8.725599200E-2
1.247197780E-1;-3.878994286E-1;-1.535715163E-1;2.387505770E-1
1.347277780E-1;-5.186246037E-1;-1.199739277E-1;4.293405116E-1
1.447307780E-1;-5.858197808E-1;-1.816713214E-1;5.845003128E-1
1.547757780E-1;-5.583308339E-1;-2.610838115E-1;6.639127731E-1
1.647767780E-1;-4.825835228E-1;-2.733011246E-1;6.846821904E-1
1.847057780E-1;-3.616322279E-1;-1.169196069E-1;7.329405546E-1
2.049367780E-1;-3.701843321E-1;7.244861126E-2;8.050226569E-1
2.277587780E-1;-3.640756607E-1;2.453234941E-1;5.625091195E-1
2.448707780E-1;-3.451388478E-1;4.585154355E-1;3.975755274E-1
2.561507780E-1;-2.926044464E-1;4.915021658E-1;4.140688777E-1
2.775897780E-1;-6.108652800E-3;1.555262953E-1;4.440012872E-1
2.946427780E-1;2.993239760E-1;-4.364021420E-1;2.772350609E-1
3.046967780E-1;3.323107064E-1;-4.895474315E-1;1.544511765E-1
3.148307780E-1;2.492330223E-1;-3.459940851E-1;3.288898617E-2
3.346907780E-1;-2.052507252E-1;1.958433986E-1;-6.546031684E-2
3.448327780E-1;-4.569271803E-1;3.882659376E-1;-1.842369512E-2
3.646287780E-1;-6.798930168E-1;5.544213057E-1;1.636141539E-1
3.749117780E-1;-6.542366743E-1;5.635842681E-1;2.375288457E-1
3.850787780E-1;-5.736024380E-1;5.055520535E-1;2.595199943E-1
4.049977780E-1;-3.213151097E-1;3.284011483E-1;1.104688719E-1
4.247667780E-1;-1.154535264E-1;1.940108091E-1;-6.179512665E-2
4.347767780E-1;-9.590584040E-2;1.952325404E-1;-6.362771988E-2
4.449717780E-1;-1.093448848E-1;2.318844497E-1;-3.430619463E-2
4.651147780E-1;-6.108652800E-3;2.544864416E-1;-6.817256100E-3
4.846977780E-1;1.502728462E-1;2.907718718E-2;-9.783617407E-2
4.947017780E-1;1.814269722E-1;-2.030515969E-1;-1.436510682E-1
5.054637780E-1;1.777617782E-1;-3.319441974E-1;-1.741943359E-1
5.251227780E-1;4.489859641E-1;-9.605244994E-1;-2.786523104E-1
5.447367780E-1;1.025031924E0;-9.580810666E-1;-3.440148830E-1
5.647837780E-1;1.242499948E0;-1.969429553E-1;-8.928406239E-2
5.848857780E-1;8.423832059E-1;8.201476932E-1;-1.717508733E-1
6.052377780E-1;9.896016121E-2;3.986506462E-1;-5.565959811E-1
6.246907780E-1;-1.099557430E-1;4.572937191E-1;-3.770016134E-1
6.347837780E-1;-1.032362282E-1;3.320663273E-1;-4.307577610E-1
6.547847780E-1;5.253441259E-2;-1.841147840E-1;-5.498764515E-1
6.747327780E-1;-4.886921495E-3;-3.050661087E-1;-4.539706409E-1
6.850937780E-1;-1.948660165E-1;-1.425759494E-1;-3.721146882E-1
7.046657780E-1;-5.021312237E-1;1.014036313E-2;-1.344880909E-1
7.151557780E-1;-5.681046844E-1;-7.782423496E-2;-5.568647757E-2
7.348647780E-1;-6.688974500E-1;-1.896125674E-1;-1.109331194E-2
7.547077780E-1;-3.652974069E-1;3.962071836E-1;-4.240382314E-1
7.647107780E-1;-3.365867436E-1;-2.162462845E-2;-6.054652333E-1
7.847327780E-1;4.703662172E-2;-3.753156066E-1;-7.649010420E-1
7.948727780E-1;1.502728462E-1;-8.212472200E-1;-8.284310102E-1
8.148487780E-1;2.205223590E-1;-1.467542648E0;-1.042233825E0
8.348787780E-1;-9.346237779E-2;-1.386908412E0;-9.365541935E-1
8.547307780E-1;-9.773844481E-2;-1.516411901E0;-7.911682725E-1
8.650317780E-1;-3.237585723E-2;-1.799853325E0;-8.345396519E-1
8.864167780E-1;4.886921868E-2;-2.196304798E0;-8.211006522E-1
9.049027780E-1;-7.391469181E-2;-2.356962442E0;-4.643553495E-1
9.247407780E-1;-2.840523422E-1;-2.715540409E0;2.983465791E-2
9.348137780E-1;-2.987130880E-1;-3.044796705E0;2.020986676E-1
9.547117780E-1;-2.370157242E-1;-3.982474804E0;4.928705096E-1
9.649507780E-1;-2.730567753E-1;-4.210938454E0;6.046588421E-1
9.850907780E-1;-5.204572082E-1;-3.600684166E0;6.993429661E-1
1.004902778E0;-7.544185519E-1;-2.344745159E0;8.508375287E-1
1.024921778E0;-7.067710757E-1;-1.333763242E0;1.290660620E0
1.044939778E0;-1.037860036E0;-1.148671031E0;1.469033241E0
1.064658778E0;-1.524719596E0;-9.904569387E-1;1.316316962E0
1.074703778E0;-1.695151091E0;-8.224689960E-1;1.171541810E0
1.085084778E0;-1.789224267E0;-6.337116361E-1;1.078079462E0
1.104726778E0;-1.679268599E0;-2.054950595E-1;1.090296745E0
1.114813778E0;-1.521665335E0;-6.621779501E-2;1.128170371E0
1.125058778E0;-1.313971162E0;8.100073040E-2;1.161767960E0
1.144707778E0;-9.755517840E-1;2.113593742E-2;1.244845629E0
1.154717778E0;-8.442157507E-1;-1.767843962E-1;1.249732614E0
1.165003778E0;-7.000515461E-1;-4.290717542E-1;1.211858988E0
1.184991778E0;-4.758640230E-1;-9.147096276E-1;1.114731431E0
1.204730778E0;-4.111123085E-1;-1.100412607E0;1.099459767E0
1.215434778E0;-3.652974069E-1;-5.793446302E-1;9.791192412E-1
1.234701778E0;-3.457497060E-1;2.318844497E-1;8.056334853E-1
1.254766778E0;-3.323106766E-1;5.037194490E-1;7.708141804E-1
1.269524778E0;-3.390302062E-1;2.984687388E-1;7.995248437E-1
1.284968778E0;-3.316998184E-1;-6.502049565E-1;8.661091924E-1
1.304727778E0;-2.266310155E-1;-1.410732150E0;1.012105942E0
1.325161778E0;2.382374182E-2;-1.679512858E0;1.176428795E0
1.335516778E0;1.734857261E-1;-1.606819987E0;1.193532944E0
1.354748778E0;4.025602043E-1;-1.233581305E0;1.141609430E0
1.374675778E0;5.265658498E-1;-9.421985745E-1;1.056088328E0
1.385039778E0;5.925393105E-1;-9.342573285E-1;9.858387709E-1
1.404780778E0;6.615670919E-1;-1.057041287E0;7.940270901E-1
1.425119778E0;5.528330803E-1;-7.858170867E-1;7.329405546E-1
1.444848778E0;3.915646374E-1;-7.363370061E-1;7.390491962E-1
1.456174778E0;3.872885704E-1;-7.772649527E-1;7.732576728E-1
1.476055778E0;5.320636630E-1;-1.036271811E0;9.003176093E-1
1.494790778E0;7.061602473E-1;-1.415619135E0;9.247522354E-1
1.505474778E0;7.739662528E-1;-1.589104891E0;8.697743416E-1
1.524826778E0;8.020660877E-1;-1.686232448E0;7.873075604E-1
1.535783778E0;7.538077235E-1;-1.690508485E0;8.062443733E-1
1.554773778E0;5.937610269E-1;-1.768088341E0;9.559063315E-1
1.574977778E0;4.941899776E-1;-1.912252545E0;1.132446527E0
1.594735778E0;7.525860071E-1;-1.997773767E0;1.120840073E0
1.604749778E0;9.798278809E-1;-2.039312601E0;9.693453908E-1
1.615014778E0;1.023810148E0;-2.009990931E0;9.284174442E-1
1.635004778E0;1.066570759E0;-1.959289193E0;7.805880308E-1
1.654717778E0;1.017701507E0;-1.960510969E0;7.500447631E-1
1.674882778E0;8.643743396E-1;-1.863383412E0;9.174218774E-1
1.686102778E0;7.953465581E-1;-1.786414385E0;1.015771270E0
1.704723778E0;8.741481900E-1;-1.618426442E0;1.036540627E0
1.714754778E0;1.047633886E0;-1.623313308E0;9.607932568E-1
1.725257778E0;1.234558702E0;-1.683789015E0;8.734395504E-1
1.735906778E0;1.362840414E0;-1.738766789E0;8.496158123E-1
1.754789778E0;1.309084177E0;-1.721662641E0;9.626258612E-1
1.774742778E0;1.061683774E0;-1.691730261E0;1.125726938E0
1.784828778E0;9.737192392E-1;-1.550620317E0;1.171541810E0
1.804775778E0;8.674286604E-1;-1.536570430E0;1.134889960E0
1.814818778E0;9.010262489E-1;-1.518855333E0;9.913365245E-1
1.824822778E0;9.370672703E-1;-1.412564754E0;8.312898278E-1
1.844766778E0;8.582656980E-1;-1.115684271E0;5.899980664E-1
1.864694778E0;5.797111392E-1;-1.207314134E0;7.017863989E-1
1.874893778E0;5.192354918E-1;-1.449216723E0;9.100914598E-1
1.887194778E0;5.668829679E-1;-1.765034080E0;1.148939848E0
1.904740778E0;8.796459436E-1;-2.202413559E0;1.379846931E0
1.914744778E0;8.900306821E-1;-2.203635216E0;1.405503273E0
1.935141778E0;2.926044762E-1;-1.424782157E0;1.346860170E0
1.954767778E0;6.352998316E-2;-6.783047915E-1;9.693453908E-1
1.974709778E0;7.171558142E-1;-6.740286946E-1;6.504737139E-1
1.985220778E0;8.582656980E-1;-7.491651773E-1;6.077131629E-1
2.004687778E0;5.235115290E-1;-6.080552936E-1;1.008440852E0
2.014702778E0;5.455026627E-1;-5.365840197E-1;1.189256907E0
2.034840778E0;5.491678715E-1;-6.636440158E-1;1.423218369E0
2.045754778E0;6.273586154E-1;-1.041158676E0;1.273556352E0
2.064778778E0;1.062294722E0;-1.385075927E0;1.009051681E0
2.084746778E0;8.417723179E-1;-9.428094029E-1;1.026155949E0
2.104859778E0;7.012733221E-1;-7.198436260E-1;9.723997116E-1
2.115231778E0;7.605272532E-1;-7.057937384E-1;8.007465601E-1
2.134709778E0;3.995058835E-1;-7.400021553E-1;-2.798740268E-1
2.154705778E0;-2.907718420E-1;4.951673746E-1;-1.333616495E0
2.164735778E0;-1.307251602E-1;1.825631857E0;-1.345833778E0
2.185397778E0;2.785545588E-1;2.591046095E0;-1.537034631E0
2.204664778E0;5.002986193E-1;5.220454335E-1;-4.411424696E-1
2.214804778E0;2.290744632E-1;-2.152689099E-1;2.772350609E-1
2.224820778E0;7.330384105E-3;-9.128770232E-1;8.520592451E-1
2.235006778E0;1.832595840E-2;-1.458990574E0;1.238126159E0
2.245049778E0;1.050688177E-1;-1.820622802E0;1.523400187E0
2.264796778E0;-4.276055843E-3;-1.280007005E0;1.538061023E0
2.284654778E0;-6.676756740E-1;5.263214707E-1;1.629690766E0
2.294702778E0;-9.834930301E-1;1.137186766E0;1.651681900E0
2.304800778E0;-1.146594048E0;1.264246702E0;1.625414729E0
2.314810778E0;-1.102000833E0;9.020035863E-1;1.586319327E0
2.335121778E0;-6.524040699E-1;-2.311514020E-1;1.503852487E0
2.354718778E0;-4.660901725E-1;-3.557679355E-1;1.616862655E0
2.374812778E0;-5.277875662E-1;1.084896624E-1;1.455594182E0
2.394725778E0;-7.018841505E-1;1.241033792E0;9.003176093E-1
2.404778778E0;-6.224716902E-1;1.565403223E0;7.866966724E-1
2.424747778E0;-3.249802887E-1;1.229427338E0;5.069203973E-1
2.435676778E0;-1.386664063E-1;5.299866796E-1;4.470556080E-1
2.454761778E0;4.300491512E-1;-5.005429983E-1;6.016045213E-1
2.464770778E0;7.599163651E-1;-6.972416043E-1;7.176688910E-1
2.474892778E0;1.047023058E0;-9.831265211E-1;7.561534047E-1
2.494786778E0;1.461189628E0;-1.467542648E0;7.921944857E-1
2.505149778E0;1.455080986E0;-1.301387310E0;8.667200208E-1
2.524811778E0;4.001167417E-1;-8.414058089E-1;7.824206352E-1
2.534995778E0;-4.184426963E-1;-9.183748364E-1;8.245703578E-1
2.555011778E0;-1.069625020E0;-8.218581080E-1;1.070138216E0
2.574773778E0;-4.807509482E-1;-1.871691048E-1;1.013938665E0
2.584838778E0;1.832595840E-2;-3.649308980E-1;7.384383082E-1
2.594841778E0;1.252273768E-1;-4.162435830E-1;7.030081749E-1
2.614664778E0;1.105666012E-1;-1.028697044E-1;7.781445980E-1
2.624727778E0;3.176499531E-2;1.304808259E-1;8.691635132E-1
2.635693778E0;-4.337143153E-2;3.265685439E-1;9.876713753E-1
2.654744778E0;-5.558873713E-2;6.790378094E-1;1.104346633E0
2.664792778E0;-3.054326400E-2;8.390845060E-1;1.167876601E0
2.676252778E0;-5.192354694E-2;9.588140845E-1;1.246678233E0
2.694741778E0;-2.755002081E-1;1.077321887E0;1.186202645E0
2.704780778E0;-3.750712574E-1;9.313251376E-1;9.192544222E-1
2.725094778E0;-4.043927789E-1;4.921130538E-1;5.631200075E-1
2.744716778E0;-2.926044464E-1;1.854586899E-1;5.588439703E-1
2.764777778E0;-1.136209369E-1;1.158200502E-1;5.838894248E-1
2.774810778E0;-4.886921868E-2;2.086715698E-1;6.510846019E-1
2.794734778E0;-2.070833296E-1;6.271142364E-1;1.078690290E0
2.804821778E0;-4.966334403E-1;1.610240787E-1;7.805880308E-1
2.815167778E0;-6.053674221E-1;-1.224173903E-1;4.232318699E-1
2.835512778E0;-6.707300544E-1;-3.343876600E-1;1.294056922E-1
2.852139778E0;-7.079927921E-1;2.178345472E-1;1.226861775E-1
2.864796778E0;-7.617489696E-1;1.075122878E-2;1.709445268E-1
2.884910778E0;-9.022479653E-1;-5.536882877E-1;3.688648641E-1
2.904731778E0;-8.600982428E-1;-3.893655241E-1;3.865799606E-1
2.915343778E0;-7.489207983E-1;-4.046371579E-1;3.077783287E-1
2.935245778E0;-2.351831198E-1;-4.547280967E-1;2.265332639E-1
2.954800778E0;1.032362282E-1;-1.022588462E-1;2.784568071E-1
2.964816778E0;1.350012124E-1;4.068362340E-2;2.051529884E-1
2.984835778E0;2.596177459E-1;9.246056080E-1;-1.332663596E-1
3.004730778E0;2.443460971E-1;1.131078124E0;-3.617299795E-1
3.024670778E0;7.574729621E-2;1.135354161E0;-3.165259361E-1
3.034704778E0;3.359758481E-2;1.237368584E0;1.080254093E-1
3.044719778E0;-3.543018550E-2;1.462167025E0;4.397252202E-1
3.065093778E0;-3.750712574E-1;1.235535979E0;8.270137906E-1
3.084827778E0;-5.027421117E-1;3.351206481E-1;1.191089511E0
3.104965778E0;-4.361577630E-1;-4.247957170E-1;1.425661802E0
3.124692778E0;-2.602286041E-1;-1.430890799E0;1.451928973E0
3.135468778E0;-2.516764700E-1;-2.068634033E0;1.447652936E0
3.154706778E0;-2.382374555E-1;-3.225612879E0;1.478807092E0
3.164773778E0;-1.954768896E-1;-3.523715019E0;1.356023192E0
3.184759778E0;1.553430319E0;-2.473026752E0;2.460809648E-1
3.205787778E0;2.476447821E0;-1.572611451E0;-1.286579847E0
3.225157778E0;2.511878014E0;-1.936076283E0;-1.450291753E0
3.244924778E0;5.222898126E-1;-5.521244526E0;-8.925718665E-1
3.254940778E0;-1.325577646E-1;-5.888985157E0;-5.333831310E-1
3.274826778E0;-2.241875529E-1;-2.982488394E0;3.658105433E-1
3.286236778E0;-1.557706445E-1;-1.085751891E0;5.985502005E-1
3.304728778E0;-1.844813079E-1;1.855564237E0;3.951320648E-1
3.325179778E0;-2.962696254E-1;3.147544146E0;-7.279069722E-2
3.344810778E0;-4.202752709E-1;3.077905655E0;-2.572720051E-1
3.364663778E0;-6.615670323E-1;1.861672878E0;-1.503705829E-1
3.374688778E0;-7.831292152E-1;1.872912943E-1;-1.467053890E-1
3.384773778E0;-6.725625992E-1;-4.156327248E-1;-1.424293369E-1
3.394791778E0;-4.581489265E-1;-7.705454230E-1;-1.234925091E-1
3.414730778E0;1.014036238E-1;-8.029212952E-1;-6.179512665E-2
3.434820778E0;4.795292020E-1;-4.339586794E-1;-1.536936965E-2
3.445581778E0;5.442809463E-1;-3.386636972E-1;-1.930334605E-3
3.464816778E0;3.995058835E-1;-2.684141994E-1;-3.919311613E-2
3.485085778E0;2.687807009E-2;-7.110472023E-2;-3.736051917E-2
3.504817778E0;-2.797762752E-1;1.921782047E-1;-3.125186637E-2
3.525211778E0;-3.188716471E-1;2.520429790E-1;-7.034724206E-2
3.545778778E0;-1.441642046E-1;1.518611014E-1;-5.018868670E-2
3.564823778E0;1.710422710E-2;7.855726779E-2;-4.285830632E-2
3.586346778E0;-6.352998316E-2;3.640756756E-2;-2.147802338E-2
3.604777778E0;-1.215621829E-1;-1.279151887E-1;-3.762929700E-3
3.624811778E0;-1.117883474E-1;-8.148942888E-2;-1.048244815E-2
3.636076778E0;-1.117883474E-1;4.190535471E-2;-3.308446333E-2
3.654790778E0;-1.429424733E-1;2.984687388E-1;-4.957782477E-2
3.674696778E0;-1.936442852E-1;3.748269081E-1;-4.041484371E-2
3.686675778E0;-1.814269871E-1;2.447126061E-1;-1.903456077E-2
3.704722778E0;-7.696902007E-2;-6.927211583E-2;-1.048244815E-2
3.714769778E0;-9.162979200E-3;-1.609019041E-1;-1.781282946E-2
3.734751778E0;9.346237779E-2;-1.914451569E-1;-2.758667618E-2
3.744776778E0;1.117883325E-1;-1.755626649E-1;-2.147802338E-2
3.755038778E0;1.325577497E-1;-3.252246678E-1;2.128254622E-2
3.775173778E0;1.441641897E-1;-3.429397643E-1;-7.086033002E-4
3.794712778E0;1.099557430E-1;-1.266934574E-1;1.578475721E-2
3.804733778E0;1.026253551E-1;-7.660250366E-2;4.449542239E-2
3.824831778E0;1.075122803E-1;-1.541823894E-1;3.838677332E-2
3.844914778E0;2.382374182E-2;-1.175304800E-1;-4.652349651E-2
3.864741778E0;-1.246165037E-1;-2.443464473E-4;-4.346917197E-2
3.884806778E0;-1.869247705E-1;1.915673465E-1;-6.607118249E-2
3.904928778E0;-1.514945775E-1;2.471560687E-1;-6.301685423E-2
3.924694778E0;-1.649336219E-1;2.764776051E-1;-4.957782477E-2
3.936645778E0;-1.875356287E-1;2.764776051E-1;-3.003013507E-2
3.954722778E0;-2.761110961E-1;5.043303370E-1;-4.469090328E-2
3.964832778E0;-3.011565506E-1;5.855754018E-1;-6.423858553E-2
3.985090778E0;-3.426953852E-1;6.698747873E-1;-7.462329417E-2
4.004693778E0;-3.628539443E-1;6.283359528E-1;-4.285830632E-2
4.014742778E0;-3.268128932E-1;5.648059845E-1;-2.208888903E-2
4.024901778E0;-2.871066630E-1;5.990144610E-1;-2.208888903E-2
4.045295778E0;-2.626720667E-1;7.865501046E-1;-4.408003762E-2
4.064735778E0;-1.912008226E-1;5.122715831E-1;-3.308446333E-2
4.075173778E0;-1.075122803E-1;3.381749988E-1;-8.038987406E-3
4.094719778E0;1.185078472E-1;3.247359395E-1;5.793445930E-2
4.104814778E0;1.954768747E-1;3.674965203E-1;4.754975066E-2
4.114950778E0;2.101376355E-1;3.729943037E-1;2.006081492E-2
4.134993778E0;6.719517708E-2;4.151439965E-1;-1.536936965E-2
4.154792778E0;-1.820378453E-1;8.506909013E-1;9.825156629E-2
4.174833778E0;-2.663372457E-1;1.394361019E0;1.312382817E-1
4.184893778E0;-2.938261628E-1;1.536692619E0;1.550620347E-1
4.204920778E0;-2.950479090E-1;1.715065241E0;2.210354805E-1
4.225206778E0;-2.089159191E-1;1.387641430E0;8.847772330E-2
4.244837778E0;-1.252273768E-1;7.999891043E-1;2.250427566E-2
4.264820778E0;-9.957103431E-2;3.607769907E-1;-9.260716848E-3
4.284793778E0;-1.288925707E-1;1.365894675E-1;-1.045556962E-1
4.304838778E0;-5.925393105E-2;5.473352596E-2;3.960850090E-2
4.315152778E0;1.099557430E-2;-1.865582466E-1;1.495642513E-1
4.334659778E0;2.565633878E-2;-2.824640870E-1;9.092118591E-2
4.344685778E0;-6.108652800E-3;-1.981646866E-1;1.019167602E-1
4.354770778E0;-3.420845419E-2;-1.466076821E-3;1.281839609E-1
4.364937778E0;-7.269296050E-2;1.341460049E-1;2.433687076E-2
4.384785778E0;-1.075122803E-1;2.587625086E-1;-1.198273301E-1
4.404721778E0;-6.902777404E-2;3.057991266E-1;-3.797138482E-2
4.424660778E0;-7.024950534E-2;2.630385756E-1;-5.446474627E-2
4.434702778E0;-5.192354694E-2;2.471560687E-1;5.121494085E-2
4.445231778E0;-1.160643995E-2;1.885130256E-1;4.693888500E-2
4.464679778E0;1.649336144E-2;1.317025572E-1;1.944994926E-2
4.474789778E0;-9.773844853E-3;1.653001457E-1;5.304753780E-2
4.484799778E0;-5.436700583E-2;1.237612963E-1;1.883908361E-2
4.504990778E0;-1.368338168E-1;2.984687388E-1;-5.079955235E-2
4.525125778E0;-1.478293836E-1;4.017049670E-1;1.055819541E-1
4.545142778E0;-2.889392674E-1;4.322482347E-1;-3.125186637E-2
4.564849778E0;-2.357939929E-1;2.734232843E-1;1.428447366E-1
4.584943778E0;-1.551597714E-1;3.907094002E-1;2.644068897E-1
4.604722778E0;-4.129448831E-1;6.478836536E-1;1.139776826E0
4.614726778E0;-5.442809463E-1;3.827681541E-1;7.909727693E-1
4.625262778E0;-5.949827433E-1;7.794640958E-2;2.143159658E-1
4.645487778E0;-4.074470997E-1;6.100100279E-1;3.572584093E-1
4.655850778E0;-2.290744781E-1;5.605299473E-1;4.201775491E-1
4.674717778E0;1.130100638E-1;-1.199739277E-1;2.754024863E-1
4.685193778E0;2.498438805E-1;-3.643200397E-1;2.381397039E-1
4.704664778E0;4.911356568E-1;-6.104987264E-1;1.929356754E-1
4.714690778E0;5.516113043E-1;-6.893003583E-1;1.202427149E-1
4.734778778E0;5.760459304E-1;-1.227472663E0;1.642250121E-1
4.754778778E0;8.161159754E-1;-2.589091301E0;2.173702866E-1
4.764794778E0;9.608910084E-1;-3.196902275E0;1.923248172E-1
4.774819778E0;1.113607407E0;-3.966592312E0;1.239079088E-1
4.794718778E0;1.500895977E0;-5.373414993E0;-2.639915347E-1
4.804720778E0;1.712255239E0;-5.914641857E0;-5.669807196E-1
4.814747778E0;1.901623487E0;-6.199915886E0;-8.131594062E-1
4.834786778E0;1.450194120E0;-4.026457310E0;-2.841500938E-1
4.844795778E0;7.037167549E-1;-1.499918580E0;1.275731027E-1
4.854809778E0;-5.742133409E-2;9.301034212E-1;1.837726980E-1
4.864819778E0;-4.746422768E-1;2.194594383E0;7.809301466E-2
4.885007778E0;-5.626068711E-1;2.024163008E0;5.426926911E-2
4.898869778E0;-4.233295918E-1;1.323500633E0;-1.720196381E-2
4.914785778E0;1.209513098E-1;-1.407433450E-1;4.178318195E-3
4.924846778E0;4.276056886E-1;-6.654766202E-1;9.397551417E-2
4.935809778E0;8.032878041E-1;-1.202427149E0;1.623924226E-1
4.954944778E0;6.902777553E-1;-1.336817503E0;1.385686696E-1
4.968908778E0;5.070181489E-1;-1.326432824E0;1.465099305E-1
4.984732778E0;6.719517708E-2;-1.181657791E0;1.666684747E-1
4.994736778E0;-1.466076523E-1;-1.094303966E0;1.758314520E-1
5.004994778E0;-3.378084600E-1;-1.024054527E0;1.959900111E-1
5.024826778E0;-5.864306092E-1;-1.006339431E0;2.454700917E-1
5.035399778E0;-6.725625992E-1;-1.105299592E0;2.509678602E-1
5.055004778E0;-8.576548100E-1;-1.306274295E0;1.996552050E-1
5.074719778E0;-1.177748203E0;-1.351478338E0;1.239079088E-1
5.094735778E0;-1.880243182E0;-1.719830036E0;-1.045556962E-1
5.104800778E0;-2.293798923E0;-2.052140713E0;-2.603263557E-1
5.124686778E0;-2.973691940E0;-2.760133505E0;-3.379062414E-1
5.134776778E0;-3.338378668E0;-3.254323483E0;2.277549952E-1
5.144868778E0;-3.328604698E0;-3.312966585E0;4.812640548E-1
5.164696778E0;-3.046385050E0;-2.421714306E0;4.910379052E-1
5.184920778E0;-2.730567694E0;3.152064607E-2;-9.871582501E-3
5.204711778E0;-2.344500780E0;5.513669848E-1;-4.875681996E-1
5.214807778E0;-2.105652571E0;-1.908342987E-1;-6.977058649E-1
5.225223778E0;-1.805717707E0;-1.362473845E0;-9.035674334E-1
5.235502778E0;-1.676214218E0;-2.727757692E0;-1.026351333E0
5.255127778E0;-2.409252405E0;-5.595769882E0;-1.266421318E0
5.274995778E0;-3.320052624E0;-6.071022987E0;-8.278201818E-1
5.285050778E0;-3.330437422E0;-5.449162483E0;-3.947167099E-1
5.304882778E0;-2.685974360E0;-4.279355526E0;9.458637983E-2
5.324785778E0;-2.429411173E0;-4.793093204E0;3.462628424E-1
5.335817778E0;-2.776382446E0;-4.884111881E0;4.580511749E-1
5.354905778E0;-2.931542397E0;-3.538986683E0;5.087530017E-1
5.374946778E0;-2.334727049E0;-2.247617483E0;3.603127301E-1
5.385090778E0;-2.170404196E0;-1.934854627E0;3.932994604E-1
5.395370778E0;-2.116037130E0;-1.600711346E0;4.531642497E-1
5.414787778E0;-1.870469332E0;-1.044213057E0;3.920777440E-1
5.434770778E0;-1.411098719E0;-1.127901554E0;1.422338635E-1
5.444951778E0;-1.182024240E0;-1.109575629E0;-2.453234792E-2
5.464988778E0;-8.234463334E-1;-7.442782521E-1;-4.509162903E-1
5.484847778E0;-6.737843752E-1;-6.056118011E-1;-7.948334217E-1
5.494864778E0;-5.815436840E-1;-7.210653424E-1;-8.620285988E-1
5.514865778E0;-3.090977967E-1;-7.161784172E-1;-9.518257976E-1
5.534809778E0;4.703662172E-2;-2.922379375E-1;-1.019631743E0
5.544870778E0;1.624901444E-1;2.357940003E-2;-1.041012049E0
5.565368778E0;6.719517708E-2;1.775174439E-1;-9.542692900E-1
5.584989778E0;-6.621779203E-1;1.781283021E-1;-4.246490896E-1
5.595069778E0;-9.126326442E-1;9.443975985E-2;-1.864116341E-1
5.614897778E0;-3.500257730E-1;-2.156598568E0;-3.831102550E-1
5.634809778E0;1.227228284E0;-4.274468422E0;-1.256036639E0
5.654824778E0;1.502728462E0;1.425515175E0;-1.321399212E0
5.674777778E0;1.098946571E0;2.452379704E0;-1.864116341E-1
5.684859778E0;1.607797384E0;1.070602417E0;-4.713436216E-2
5.704786778E0;1.613906026E0;1.818912387E0;-1.114315867E0
5.724678778E0;1.423926950E0;2.194594383E0;-7.557380795E-1
5.734797778E0;1.537547827E0;1.600222588E0;-8.565308452E-1
5.744895778E0;1.601688743E0;1.519588351E0;-8.479787111E-1
5.754902778E0;1.614516854E0;1.633209348E0;-6.928189397E-1
5.775057778E0;1.499063373E0;2.078530073E0;-2.450547069E-1
5.794840778E0;1.459967971E0;2.423058033E0;2.861292660E-2
5.804926778E0;1.524719715E0;2.580661297E0;1.275731027E-1
5.824771778E0;1.675603390E0;3.157318115E0;3.193847835E-1
5.844907778E0;1.640173197E0;3.642345190E0;4.055167735E-1
5.864729778E0;1.620625496E0;3.799337387E0;3.694757223E-1
5.874920778E0;1.662164330E0;3.738861799E0;3.633670807E-1
5.894865778E0;1.789224267E0;3.406551123E0;3.279368877E-1
5.905187778E0;1.855808616E0;2.914804697E0;3.761952519E-1
5.924780778E0;1.862528086E0;2.526905060E0;5.301333070E-1
5.935247778E0;1.824654460E0;2.427944899E0;6.144326925E-1
5.954819778E0;1.807550311E0;2.214142084E0;6.761300564E-1
5.965521778E0;1.844202161E0;2.207422733E0;6.242065430E-1
5.985125778E0;1.937053680E0;2.184209824E0;3.981863856E-1
5.995339778E0;1.959655762E0;2.145725250E0;2.100399137E-1
6.014689778E0;1.909564734E0;1.903211713E0;-3.262997866E-1
6.025293778E0;1.873523712E0;1.516534090E0;-6.598322392E-1
6.045104778E0;1.801441669E0;7.535633445E-1;-1.312236190E0
6.064832778E0;1.621236324E0;2.880840302E-1;-1.495495796E0
6.084823778E0;1.265712857E0;2.776993215E-1;-1.191895843E0
6.104693778E0;9.896017313E-1;1.252640247E0;-6.751038432E-1
6.125667778E0;7.134906054E-1;2.666793346E0;1.251296401E-1
6.144698778E0;5.839871764E-1;2.751703501E0;9.947329760E-2
6.154869778E0;5.962045193E-1;2.440773249E0;-1.292590890E-2
6.164899778E0;6.243042946E-1;2.022941351E0;-1.283794343E-1
6.174955778E0;6.359107494E-1;1.539136052E0;-1.772486567E-1
6.195076778E0;5.210680366E-1;7.077484727E-1;-6.240599230E-2
6.214766778E0;4.563163519E-1;9.893573523E-1;3.328238130E-1
6.224939778E0;4.923573732E-1;1.566624999E0;5.264680982E-1
6.235125778E0;5.882632136E-1;2.036991119E0;6.730757356E-1
6.254825778E0;9.731082916E-1;2.211698771E0;7.976922393E-1
6.274698778E0;1.549765110E0;1.417573929E0;7.097276449E-1
6.284767778E0;1.866804242E0;1.252640247E0;6.248173714E-1
6.294781778E0;2.180788994E0;1.540968657E0;5.851111412E-1
6.314699778E0;2.483167171E0;1.450560570E0;4.207884073E-1
6.334995778E0;1.944994926E0;-1.487090349E0;4.342274368E-1
6.354717778E0;1.382998943E0;-3.995913982E0;1.171883941E-1
6.365053778E0;1.304197311E0;-3.868242979E0;6.893003732E-2
6.384930778E0;8.869763613E-1;-2.548774242E0;4.494990706E-1
6.405032778E0;-2.437352389E-1;-2.168816090E0;6.083240509E-1
6.424769778E0;-2.037235737E0;-1.780305624E0;5.392962694E-1
6.434794778E0;-3.247359514E0;-1.961732626E0;5.496809483E-1
6.445010778E0;-4.479475021E0;-2.606806278E0;5.857220292E-1
6.464773778E0;-6.151412964E0;-2.671558142E0;1.020047307E0
6.484737778E0;-5.376224995E0;1.856786013E0;1.752474666E0
6.494823778E0;-4.662734509E0;4.054678917E0;1.770189762E0
6.514767778E0;-3.649919748E0;5.897659779E0;7.182797790E-1
6.524790778E0;-3.571118116E0;5.966687202E0;4.757662714E-1
6.545341778E0;-3.138625622E0;4.577579975E0;1.318491548E-1
6.564846778E0;-2.225382090E0;-1.144761443E-1;-1.027230993E-1
6.584932778E0;-3.183829546E0;-7.648277283E0;1.575054973E-1
6.604685778E0;-5.106833458E0;-8.406971931E0;8.618330956E-1
6.614686778E0;-5.500841618E0;-4.872505665E0;1.114120483E0
6.624881778E0;-5.237558365E0;-1.374691129E0;1.109844446E0
6.635890778E0;-4.549724102E0;5.904623270E-1;8.233485818E-1
6.654752778E0;-4.450764179E0;-9.061574936E-1;2.534113228E-1
6.674751778E0;-6.130643368E0;-5.145562172E0;9.259739518E-1
6.694690778E0;-5.445252895E0;-6.882863045E0;1.456205010E0
6.704735778E0;-3.550959587E0;-5.980004311E0;1.177039623E0
6.724692778E0;-3.053104401E0;-3.411315918E0;1.717044473E0
6.734809778E0;-2.910772800E0;-2.767463923E0;1.868539095E0
6.744811778E0;-2.492330074E0;-2.622688770E0;1.773244143E0
6.764808778E0;-1.549765110E0;-2.795563698E0;1.511793733E0
6.775234778E0;-1.338405728E0;-2.728979349E0;1.115342259E0
6.795241778E0;-1.054353356E0;-2.105285883E0;6.358129978E-1
6.814969778E0;-6.139195561E-1;-1.465099216E0;5.148616433E-1
6.834911778E0;-1.521054506E-1;-3.630983233E-1;2.240898162E-1
6.854802778E0;3.720169365E-1;5.959601402E-1;-2.086715773E-2
6.874769778E0;7.134906054E-1;1.223318696E0;-7.034724206E-2
6.885087778E0;8.900306821E-1;1.167119145E0;-1.503705829E-1
6.904842778E0;1.522887111E0;3.180164397E-1;-9.157847762E-1
6.924850778E0;2.665205002E0;-5.033529550E-2;-1.435020208E0
6.934972778E0;2.877175331E0;1.139874607E-1;-1.268253922E0
6.954683778E0;1.001208186E0;2.333871841E0;1.055819541E-1
6.964813778E0;1.095281363E0;1.904433489E0;1.996552050E-1
6.984688778E0;2.593733788E0;-1.011837125E0;-1.285358191E0
7.004713778E0;3.130684376E0;1.745608568E0;-1.593845129E0
7.024786778E0;2.450180531E0;3.291708469E0;-1.022075295E0
7.045047778E0;1.929112434E0;2.222083330E0;-6.873211265E-1
7.064790778E0;1.853365183E0;2.954510927E0;-5.853066444E-1
7.084758778E0;2.266921043E0;2.639915228E0;-1.717508733E-1
7.104786778E0;2.136195660E0;2.900754690E0;-1.851899028E-1
7.114792778E0;2.018909693E0;3.273382425E0;-6.616647840E-1
7.134869778E0;1.883908391E0;3.722368479E0;-1.141804814E0
7.154730778E0;1.998140335E0;3.448700905E0;-9.023457170E-1
7.174801778E0;2.058005095E0;3.363790512E0;-4.784052372E-1
7.185114778E0;2.085494041E0;3.499402523E0;-1.778595150E-1
7.204765778E0;2.018909693E0;3.764518261E0;4.519425333E-1
7.214789778E0;1.998751163E0;3.956329823E0;7.671489716E-1
7.234766778E0;2.065335512E0;4.586132050E0;1.218578458E0
7.244871778E0;2.136195660E0;4.777332783E0;1.279664993E0
7.264863778E0;2.232101679E0;5.102313042E0;1.238736987E0
7.284722778E0;2.484389067E0;4.668598652E0;6.883473992E-1
7.294765778E0;2.501493216E0;4.277034283E0;3.297694921E-1
7.314715778E0;2.274251223E0;3.311256170E0;-7.722314000E-1
7.324874778E0;1.984090328E0;2.555615902E0;-1.215719581E0
7.334939778E0;1.599245191E0;1.602666020E0;-1.439296246E0
7.345017778E0;1.213178396E0;5.788558722E-1;-1.416694164E0
7.365125778E0;7.171558142E-1;-1.101634383E0;-9.652648568E-1
7.385038778E0;1.079398870E0;-7.986452579E-1;-1.054451108E0
7.404895778E0;1.551597714E0;8.641299605E-1;-1.326897025E0
7.424791778E0;1.571756244E0;1.796921253E0;-9.640430808E-1
7.442250778E0;1.415374756E0;2.324097872E0;9.886243194E-2
7.454789778E0;1.317025423E0;2.464596987E0;7.115602493E-1
7.474716778E0;9.162978530E-1;1.944139719E0;1.369462132E0
7.484741778E0;1.771509200E-1;1.117639065E0;7.195014954E-1
7.504709778E0;-2.987130880E-1;1.004018068E0;3.899763897E-2
7.514761778E0;-2.565633953E-1;1.094426155E0;2.250427566E-2
7.524792778E0;-8.246681094E-2;1.449338913E0;4.938234389E-2
7.544748778E0;2.553416789E-1;2.733988523E0;5.131270736E-4
7.564771778E0;5.045747161E-1;3.406551123E0;-2.880840749E-2
7.574824778E0;6.072000861E-1;3.416324854E0;8.454374969E-3
7.586027778E0;7.458664775E-1;3.182974339E0;1.232970431E-1
7.604816778E0;1.238223910E0;2.130453587E0;5.234137774E-1
7.614877778E0;1.535104394E0;1.429180264E0;6.883473992E-1
7.625006778E0;1.777006984E0;6.912550926E-1;7.225558162E-1
7.636963778E0;1.913840771E0;-7.110472023E-2;6.046588421E-1
7.654856778E0;1.784337401E0;-1.415619135E0;1.355143487E-1
7.664931778E0;1.789224267E0;-2.604973793E0;-1.106643453E-1
7.685158778E0;8.466592431E-1;-2.882917404E0;-2.481090277E-1
7.704758778E0;-9.975429177E-1;-1.169440389E0;1.336817443E-1
7.714769778E0;-2.123367548E0;-4.357912838E-1;4.592729211E-1
7.724825778E0;-3.196047068E0;7.428121567E-2;7.085059285E-1
7.734896778E0;-4.107458115E0;3.357315361E-1;8.306789994E-1
7.754814778E0;-5.115385532E0;1.093204379E0;8.056334853E-1
7.774687778E0;-5.126992226E0;2.415116787E0;7.036190033E-1
7.785176778E0;-4.954728127E0;2.754147053E0;5.643417239E-1
7.804713778E0;-4.465425014E0;2.834781170E0;4.531642497E-1
7.825036778E0;-3.906483173E0;1.627100706E0;7.463795543E-1
7.835060778E0;-3.731775761E0;7.340156436E-1;9.021502137E-1
7.854761778E0;-4.133114338E0;-8.194146752E-1;1.271112919E0
7.864850778E0;-4.729318619E0;-1.813292384E0;1.285773635E0
7.884735778E0;-5.635842800E0;-3.765373528E-1;1.169098377E0
7.894768778E0;-5.368283749E0;8.610756397E-1;1.144663811E0
7.905124778E0;-4.941288948E0;1.558072925E0;1.014549494E0
7.924959778E0;-4.201530933E0;1.561371535E-1;3.969646692E-1
7.935092778E0;-4.383568764E0;-1.758925438E0;1.892704964E-1
7.954737778E0;-6.355442047E0;-4.714291573E0;4.953139722E-1
7.964994778E0;-7.144069195E0;-5.380745411E0;7.616512179E-1
7.984714778E0;-6.145915031E0;-6.540167809E0;8.795481920E-1
7.994827778E0;-4.729929447E0;-6.720983982E0;8.373985291E-1
8.014722778E0;-3.055547953E0;-5.917085171E0;1.358466625E0
8.025322778E0;-2.762332678E0;-5.529185772E0;1.669396996E0
8.035893778E0;-2.423302412E0;-4.860288143E0;1.878312945E0
8.054794778E0;-1.589471340E0;-3.554869175E0;1.825778484E0
8.074756778E0;-1.233947754E0;-3.328849077E0;7.677598596E-1
8.084896778E0;-1.266934514E0;-2.507235289E0;4.843183756E-1
8.104825778E0;-7.831292152E-1;-9.507507086E-1;7.561534047E-1
8.124829778E0;-1.490511149E-1;3.668856621E-1;8.062443733E-1
8.144822778E0;3.866777122E-1;9.465968013E-1;5.301333070E-1
8.155708778E0;5.558874011E-1;1.040670037E0;3.804712892E-1
8.175192778E0;7.800749540E-1;7.040832639E-1;-3.064100072E-2
8.185194778E0;8.649852276E-1;3.736051619E-1;-3.324084580E-1
8.204847778E0;1.318858027E0;-3.826459944E-1;-1.201669574E0
8.224778778E0;2.626720667E0;-1.543900847E0;-2.156452179E0
8.234918778E0;3.612046242E0;-1.234192133E0;-2.634148836E0
8.244918778E0;3.397632599E0;9.160535336E-1;-2.322607517E0
8.264703778E0;2.572964430E0;-1.294667840E0;5.704503655E-1
8.274728778E0;2.807536602E0;-1.292835236E0;-1.577351809E0
8.285428778E0;3.057380676E0;1.315559387E0;-2.749602318E0
8.304789778E0;3.841731548E0;3.536054611E0;-1.671424985E0
8.324752778E0;9.022479653E-1;8.366410136E-1;-6.140173078E-1
8.334929778E0;1.486235142E0;1.852509975E0;-9.066217542E-1
8.355142778E0;1.949270964E0;2.696114779E0;-6.024108529E-1
8.374810778E0;2.431854486E0;2.509800911E0;-2.147802338E-2
8.385045778E0;2.670092106E0;2.896478653E0;4.789183848E-3
8.404729778E0;2.395813465E0;3.913569212E0;-7.392446995E-1
8.424883778E0;2.038457394E0;4.143865585E0;-1.293299437E0
8.444725778E0;2.119091511E0;4.361944199E0;-1.069111824E0
8.454783778E0;2.081828833E0;4.427307129E0;-7.954443097E-1
8.464950778E0;2.047620296E0;4.588575363E0;-1.589227021E-1
8.485003778E0;2.224160433E0;4.367442131E0;4.537751377E-1
8.505083778E0;2.438574076E0;4.405315876E0;1.106790185E0
8.524703778E0;2.693304777E0;4.936157703E0;1.698718548E0
8.534963778E0;2.809369326E0;5.080321789E0;1.746976852E0
8.545403778E0;2.916270733E0;5.154847622E0;1.563717365E0
8.564713778E0;2.813645363E0;5.080932617E0;8.532810211E-1
8.574719778E0;2.562579632E0;4.744956970E0;4.482773542E-1
8.584842778E0;2.208277941E0;4.138367653E0;-1.063882858E-1
8.594855778E0;1.745852828E0;3.154874563E0;-7.477968335E-1
8.614778778E0;8.747590184E-1;4.682892859E-1;-1.814367414E0
8.636325778E0;7.904596329E-1;-9.018814564E-1;-2.049550772E0
8.654721778E0;8.833111525E-1;-3.747047484E-1;-1.744728804E0
8.664901778E0;7.141014934E-1;6.411641240E-1;-1.404476881E0
8.685048778E0;2.504547536E-1;1.308228970E0;-3.745581508E-1
8.704710778E0;-2.748893574E-2;1.887329221E0;7.647055387E-1
8.714816778E0;-7.574729621E-2;2.033326149E0;1.117174864E0
8.734716778E0;-3.921754658E-1;1.758436680E0;1.081744671E0
8.744925778E0;-4.703662395E-1;1.565403223E0;6.895691156E-1
8.764668778E0;-2.974913716E-1;2.236744165E0;-3.980398178E-2
8.774699778E0;-6.902777404E-2;3.051027536E0;-1.784703881E-1
8.794887778E0;4.129449129E-1;3.514063358E0;-3.317975700E-1
8.814659778E0;5.137376785E-1;1.741332412E0;-2.737653852E-1
8.835225778E0;5.729916096E-1;3.607769907E-1;1.150870137E-2
8.854884778E0;9.492846131E-1;1.168340802E0;1.526185721E-1
8.864886778E0;1.197906733E0;1.770653963E0;1.825509667E-1
8.885718778E0;2.018909693E0;2.415116787E0;4.806531966E-1
8.904741778E0;2.976746321E0;2.594100237E0;6.547498107E-1
8.914826778E0;3.279124737E0;2.622200251E0;5.044769645E-1
8.934814778E0;2.910161972E0;1.229427338E0;1.416230053E-1
8.944816778E0;1.946216702E0;-1.488922954E0;1.593380868E-1
8.954851778E0;9.981538057E-1;-3.172467470E0;2.631851733E-1
8.974713778E0;4.459315911E-2;-2.238454580E0;1.078079462E0
8.985042778E0;-1.240056455E-1;-1.880487561E0;1.352357984E0
9.005028778E0;-3.005456924E-1;-6.050009727E-1;1.101292372E0
9.024722778E0;-1.117272496E0;4.426329434E-1;6.602475643E-1
9.034840778E0;-1.680490255E0;8.855102658E-1;5.551787615E-1
9.045181778E0;-2.788599730E0;1.242866397E0;2.616946772E-2
9.064729778E0;-3.666413307E0;8.409171104E-1;-5.504873395E-1
9.085654778E0;-3.943746090E0;1.019289732E0;-3.006434441E-1
9.105142778E0;-3.585168123E0;1.383365393E0;1.856053025E-1
9.125285778E0;-2.887559891E0;1.575177073E0;6.089348793E-1
9.135719778E0;-2.508212805E0;1.584340096E0;7.451578379E-1
9.154812778E0;-1.915062547E0;1.175060391E0;9.015393257E-1
9.174952778E0;-2.149024010E0;-1.356365204E0;8.966524005E-1
9.185693778E0;-2.571131706E0;-2.561602354E0;8.135747313E-1
9.204790778E0;-3.211929560E0;-2.314812660E0;6.846821904E-1
9.214797778E0;-3.342654705E0;-1.093082309E0;5.228028893E-1
9.235582778E0;-2.879007816E0;2.418171167E0;-3.770016134E-1
9.254759778E0;-2.280970812E0;1.921537757E0;-1.209610820E0
9.274719778E0;-2.918714046E0;-1.185078546E-2;-1.522984743E0
9.285486778E0;-3.694513083E0;-1.130955935E0;-1.332394838E0
9.304702778E0;-4.837441921E0;-3.259821415E0;-4.142643809E-1
9.324827778E0;-4.797735691E0;-5.267735481E0;4.268970490E-1
9.345021778E0;-4.303545475E0;-5.476651192E0;8.160182238E-1
9.364938778E0;-4.023158550E0;-5.295224190E0;8.648874164E-1
9.385038778E0;-3.619987488E0;-4.944587708E0;8.422853947E-1
9.404787778E0;-3.109915018E0;-3.805934906E0;9.473542571E-1
9.424700778E0;-2.719572067E0;-3.540819407E0;9.809518456E-1
9.434762778E0;-2.606561899E0;-3.642833710E0;9.162001014E-1
9.444897778E0;-2.200947523E0;-3.103439808E0;6.492519975E-1
9.455647778E0;-2.072054863E0;-2.688662291E0;5.533461571E-1
9.474763778E0;-2.207666874E0;-2.491963625E0;5.716721416E-1
9.494812778E0;-1.962099195E0;-2.049086332E0;3.487063050E-1
9.514704778E0;-1.565647602E0;-1.323989391E0;1.593380868E-1
9.524763778E0;-1.372614145E0;-1.027719736E0;6.343224645E-2
9.535461778E0;-1.236391187E0;-8.945510983E-1;3.838677332E-2
9.554722778E0;-7.910704613E-1;-1.111408234E0;9.092118591E-2
9.565111778E0;-4.129448831E-1;-1.129123330E0;6.709744036E-2
9.584829778E0;3.341433108E-1;-5.255884528E-1;-3.125186637E-2
9.604853778E0;8.747590184E-1;-2.390926480E-1;-2.371134460E-1
9.624804778E0;1.525330544E0;-4.357912838E-1;-6.054652333E-1
9.635068778E0;2.138639212E0;-3.905872405E-1;-8.999022841E-1
9.646369778E0;1.870469332E0;-4.254065752E-1;-6.500583887E-1
9.657280778E0;1.505782843E0;-4.406782091E-1;-3.073629737E-1
9.674746778E0;1.852754354E0;-2.956587821E-2;-6.201259494E-1
9.694730778E0;2.517375708E0;4.068362340E-2;-1.582849503E0
9.704820778E0;2.729346037E0;9.252164960E-1;-1.653709888E0
9.724675778E0;2.217440844E0;2.519574881E0;-1.139361382E0
9.734846778E0;1.906510472E0;1.956967831E0;-9.548801184E-1
9.755453778E0;1.795332909E0;2.424890757E0;-8.711915612E-1
9.774701778E0;2.023796558E0;2.096856117E0;-5.938587785E-1
9.784960778E0;2.216219187E0;2.140838385E0;-4.435859323E-1
9.804888778E0;2.340835571E0;2.584326506E0;-4.906225204E-1
9.824654778E0;2.174069405E0;3.575760841E0;-7.380229831E-1
9.836392778E0;2.069000483E0;4.234273434E0;-6.292889714E-1
9.854717778E0;2.019520521E0;4.255653858E0;-3.073629737E-1
9.874775778E0;1.892460585E0;3.875084639E0;4.449542239E-2
9.887098778E0;1.927890778E0;3.711983681E0;2.002660632E-1
9.904863778E0;2.127032757E0;3.636236429E0;3.786387146E-1
9.925404778E0;2.204001904E0;3.631349564E0;4.403360784E-1
9.944682778E0;2.289522886E0;3.471913815E0;4.947030842E-1
9.954847778E0;2.344500780E0;3.272160769E0;5.056986809E-1
9.974692778E0;2.269364357E0;3.106005430E0;6.064914465E-1
9.984780778E0;2.205834389E0;3.242228270E0;7.359948754E-1
1.000476578E1;2.169793367E0;3.789563656E0;1.028599381E0
1.002468878E1;2.107485056E0;4.639887810E0;1.251565218E0
1.003470578E1;2.034181356E0;5.115752220E0;1.142831206E0
1.004517678E1;2.075109243E0;4.876903534E0;9.388021231E-1
1.006465478E1;2.017076969E0;3.414492369E0;3.932994604E-1
1.007470578E1;1.832595706E0;2.514076948E0;8.236907423E-2
1.008539278E1;1.589471340E0;1.499429822E0;-2.212309539E-1
1.010487678E1;9.883799553E-1;-8.820894361E-2;-5.474330187E-1
1.012493378E1;8.130616546E-1;-7.125132084E-1;-6.769364476E-1
1.013507378E1;1.084285855E0;-5.121493936E-1;-7.728422880E-1
1.015477678E1;1.514945865E0;-1.450194120E-1;-1.135085344E0
1.016482878E1;1.469741821E0;-1.193630695E-1;-1.215719581E0
1.018490778E1;1.208902359E0;-3.356093764E-1;-1.057505488E0
1.020471978E1;9.578366876E-1;-1.401324868E-1;-5.883609653E-1
1.021475278E1;9.376781583E-1;3.180164397E-1;-1.858007759E-1
1.023486178E1;3.329215646E-1;1.897347420E-1;4.336165786E-1
1.025992278E1;-9.523389339E-1;4.102571011E-1;-3.550104499E-1
1.027471178E1;-1.345125318E0;1.854342580E0;-3.556213379E-1
1.029484578E1;-7.965682745E-1;2.551339865E0;-2.682676017E-1
1.031473478E1;-2.034181356E-1;1.743775964E0;-2.633806765E-1
1.032476778E1;-3.848451003E-2;9.979094267E-1;-2.780414224E-1
1.034479378E1;4.440990388E-1;9.160535336E-1;2.922379225E-2
1.035483378E1;7.452555895E-1;1.252029419E0;2.949501574E-1
1.037480578E1;1.437976837E0;2.163440228E0;9.265848398E-1
1.038519378E1;1.604743004E0;2.174435854E0;1.216745853E0
1.040480778E1;3.909537792E-1;-5.017647147E-1;8.667200208E-1
1.041501078E1;1.594358236E-1;-3.068987131E-1;-1.631987542E-1
1.043515478E1;5.949827433E-1;2.061425924E0;-5.272744298E-1
1.045478078E1;1.103833556E0;1.932533264E0;6.098878384E-2
1.047476978E1;1.509448051E0;9.795835018E-1;8.911546469E-1
1.048477478E1;1.832595706E0;7.627263069E-1;8.581679463E-1
1.050483078E1;2.461176157E0;1.836261004E-1;1.654467434E-1
1.052484078E1;2.492941141E0;-1.082086682E0;2.124833763E-1
1.054520678E1;2.109928608E0;-4.394564629E-1;5.270789266E-1
1.056473978E1;1.204015374E0;2.514321208E-1;8.435071707E-1
1.057478678E1;6.688974500E-1;6.026796103E-1;8.221268654E-1
1.058501478E1;1.569923609E-1;9.404881001E-1;7.524882555E-1
1.060472978E1;-8.167268038E-1;1.234314322E0;5.044769645E-1
1.062515878E1;-2.067778826E0;9.050579071E-1;3.227812052E-2
1.064480678E1;-2.411085129E0;5.043303370E-1;-4.984661005E-3
1.065561178E1;-2.500271320E0;3.308446109E-1;-3.762929700E-3
1.067478178E1;-2.674368143E0;2.355496436E-1;-4.285830632E-2
1.068579778E1;-2.726291656E0;3.253468275E-1;-3.919311613E-2
1.070475278E1;-2.714685202E0;7.346265316E-1;8.786685765E-2
1.072478278E1;-2.618779182E0;1.023565769E0;3.163304329E-1
1.073481978E1;-2.534479856E0;8.323649764E-1;4.672141671E-1
1.075481378E1;-2.412306786E0;-5.170363784E-1;6.859039068E-1
1.077484178E1;-2.376265764E0;-1.983723760E0;7.622620463E-1
1.078526678E1;-2.350609541E0;-2.267776251E0;7.738685012E-1
1.080472878E1;-2.316401005E0;-1.455325365E0;7.555425763E-1
1.082498678E1;-2.205834389E0;9.056687951E-1;7.640946507E-1
1.084467578E1;-2.112982988E0;1.594113946E0;3.554258347E-1
1.085488978E1;-2.305405378E0;1.890994430E0;-5.874080583E-2
1.087472178E1;-2.646879196E0;2.170159817E0;-7.850595713E-1
1.088482578E1;-2.554027557E0;1.981402516E0;-9.573236108E-1
1.090536878E1;-2.026850939E0;1.087095737E0;-9.218934178E-1
1.092470378E1;-1.603521228E0;-1.004262418E-1;-8.149920106E-1
1.093484078E1;-1.678657651E0;-5.683490634E-1;-7.795618176E-1
1.095479978E1;-2.437352419E0;-1.077199817E0;-6.903755069E-1
1.097470478E1;-3.357315302E0;-1.258626819E0;-5.028398633E-1
1.098476778E1;-3.624874353E0;-1.427225590E0;-4.173187017E-1
1.100480578E1;-3.701232433E0;-2.008769274E0;-3.598973751E-1
1.102492578E1;-2.886949062E0;-2.909184694E0;-3.043086529E-1
1.104512878E1;-2.299907684E0;-3.279368877E0;-2.453234792E-2
1.106473978E1;-2.159408569E0;-3.004479647E0;3.456519842E-1
1.108473378E1;-1.890017033E0;-1.835283518E0;4.983682930E-1
1.109503178E1;-1.655444860E0;-1.502362013E0;4.586620629E-1
1.111873778E1;-1.252273798E0;-1.490755558E0;2.680720985E-1
1.113507478E1;-9.120218158E-1;-7.253413796E-1;1.917139441E-1
1.115475778E1;-6.896668673E-1;4.304156303E-1;1.135232002E-1
1.116485478E1;-5.754350424E-1;7.993782759E-1;2.067168057E-2
1.117488278E1;-3.909537494E-1;1.107254386E0;-5.874080583E-2
1.118492878E1;-1.600466967E-1;1.258138061E0;-8.378627151E-2
1.120476778E1;3.720169365E-1;1.158200502E-1;-9.111665934E-2
1.122476878E1;6.481280327E-1;-3.233920634E-1;-2.086715773E-2
1.123479878E1;7.715228200E-1;-4.871039689E-1;9.031032026E-2
1.125473678E1;1.215011001E0;-5.158146024E-1;3.560366929E-1
1.126478578E1;1.552208543E0;-2.183232307E-1;4.494990706E-1
1.127500878E1;1.948049307E0;2.068389803E-1;4.916487634E-1
1.128562978E1;2.375654936E0;7.309613228E-1;4.910379052E-1
1.130474878E1;2.819753885E0;1.933144093E0;6.901800036E-1
1.131481978E1;2.372600555E0;2.478646755E0;8.551135659E-1
1.133502778E1;5.210680366E-1;1.209268808E0;4.183449447E-1
1.135537878E1;2.248594999E0;-1.305052519E0;-3.159150779E-1
1.137510778E1;1.934610248E0;9.771400094E-1;6.168761253E-1
1.138526078E1;1.336573124E0;1.024787545E0;7.787554264E-1
1.140477378E1;1.811826348E0;3.206187248E0;5.264680982E-1
1.142469678E1;2.426967621E0;4.203730106E0;2.582982481E-1
1.143875778E1;2.411695957E0;3.505511284E0;2.931175530E-1
1.145472178E1;2.527149439E0;2.915415525E0;4.268970490E-1
1.146477378E1;2.409252644E0;3.395555496E0;4.690467715E-1
1.148484478E1;2.367713690E0;3.746803045E0;6.975103617E-1
1.150531578E1;2.549140692E0;2.914193630E0;8.086878061E-1
1.152488278E1;2.321287870E0;2.324708700E0;5.667852163E-1
1.153554678E1;2.031126976E0;2.153055668E0;4.342274368E-1
1.155511978E1;1.484402537E0;1.855564237E0;4.146797657E-1
1.157510978E1;1.450194120E0;1.585561872E0;6.804061532E-1
1.158512978E1;1.529606581E0;1.482325554E0;8.233485818E-1
1.160529578E1;1.589471340E0;1.258748889E0;7.964705229E-1
1.162469578E1;1.503950238E0;9.392663836E-1;5.215811729E-1
1.163472478E1;1.409266114E0;7.767762542E-1;4.006298482E-1
1.164479678E1;1.287703991E0;6.521597505E-1;2.888415158E-1
1.165573578E1;1.183856845E0;5.672494769E-1;2.057638466E-1
1.167515978E1;1.182635069E0;5.733581185E-1;1.538403034E-1
1.169474278E1;1.415374756E0;7.926587462E-1;2.006081492E-2
1.170490978E1;1.425148606E0;8.879536986E-1;-1.577009708E-1
1.171506178E1;1.348790526E0;8.720712066E-1;-4.130426645E-1
1.173533678E1;1.033583999E0;8.451931477E-1;-6.097412705E-1
1.175569178E1;8.087856174E-1;8.622973561E-1;-5.779762864E-1
1.177468278E1;1.004873395E0;1.564792395E0;-1.540357769E-1
1.178471278E1;1.134987593E0;1.881220579E0;2.644068897E-1
1.179474178E1;9.975429773E-1;1.346713543E0;7.372165918E-1
1.180478478E1;8.564330935E-1;6.466619372E-1;5.753372908E-1
1.182480478E1;8.271115422E-1;1.023810208E-1;-1.638096273E-1
1.183489578E1;9.590584636E-1;5.348736048E-1;-3.214128613E-1
1.185489778E1;9.779952765E-1;1.315559387E0;-2.804848850E-1
1.187514578E1;6.475171447E-1;1.432234645E0;-8.317540586E-2
1.189473078E1;3.494149446E-1;1.044335246E0;2.020986676E-1
1.190476478E1;3.084869683E-1;6.069557071E-1;3.028914034E-1
1.192482678E1;-9.285151958E-2;-6.123313308E-1;2.625743151E-1
1.194467478E1;-1.326799273E0;-7.717671394E-1;1.214644462E-1
1.195476178E1;-1.994475007E0;-1.071457714E-1;7.992561162E-2
1.196507178E1;-2.629774809E0;7.236309648E-1;6.343224645E-2
1.198521478E1;-3.907094002E0;1.564792395E0;-2.908695936E-1
1.200470178E1;-4.006665230E0;1.412076116E0;-2.334482521E-1
1.201478478E1;-3.820351124E0;1.417573929E0;-1.027230993E-1
1.202479678E1;-3.609602690E0;1.462167025E0;4.571715370E-2
1.204513878E1;-3.300504923E0;1.982624173E0;1.599489599E-1
1.206479978E1;-3.153897285E0;2.313713074E0;9.153205156E-2
1.207493878E1;-3.151453733E0;2.214752913E0;1.385686696E-1
1.208502278E1;-3.145345211E0;1.971628666E0;2.234789431E-1
1.210499078E1;-3.082426071E0;6.772052050E-1;2.503570020E-1
1.212500478E1;-3.641367674E0;-1.024054527E0;-8.101050854E-1
1.213507278E1;-3.758653879E0;-4.553389549E-1;-1.337281704E0
1.215474378E1;-3.241861820E0;1.201327562E0;-1.540699840E0
1.216475178E1;-2.951700926E0;7.541742325E-1;-1.424635410E0
1.218471478E1;-3.050050259E0;-3.585412502E0;-7.288599610E-1
1.219514978E1;-3.273626804E0;-4.664811134E0;-4.551923573E-1
1.221477178E1;-4.422053337E0;-3.702698708E0;-1.069991514E-1
1.222500278E1;-5.169752598E0;-1.774196982E0;1.639562286E-2
1.223547678E1;-5.185635090E0;-1.108964801E0;-4.408003762E-2
1.225475578E1;-3.494760036E0;-4.290350914E0;-4.325903356E-1
1.226480278E1;-2.792264938E0;-5.659299850E0;-3.421822786E-1
1.228518778E1;-2.182010651E0;-4.537751198E0;4.195666611E-1
1.230525978E1;-1.653612256E0;-1.886596203E0;6.877365112E-1
1.232487178E1;-8.350527883E-1;-2.483411551E0;-1.112752110E-1
1.233494978E1;-5.400048494E-1;-2.947669268E0;-4.411424696E-1
1.235477278E1;-2.663372457E-1;-2.149879217E0;-3.305758536E-1
1.237470878E1;1.380555481E-1;-6.856351495E-1;2.295875996E-1
1.238477978E1;3.872885704E-1;-2.311514020E-1;4.378926158E-1
1.240476678E1;6.469063163E-1;1.324111462E0;3.132761121E-1
1.241487078E1;8.136725426E-1;1.851899028E0;1.917139441E-1
1.242515978E1;9.217956662E-1;1.556240320E0;-3.064100072E-2
1.244486178E1;1.302975535E0;-3.105638921E-1;-8.052181602E-1
1.246492078E1;2.235156059E0;-1.093693137E0;-1.159519911E0
1.247501978E1;2.820364952E0;-1.044823885E0;-1.092324734E0
1.249535978E1;4.013384819E0;1.140851974E0;-9.738169312E-1
1.251487778E1;2.829527855E0;4.825591087E0;-6.567779183E-1
1.253501978E1;-1.775785208E0;-4.822170436E-1;9.039828181E-1
1.255472378E1;5.350568771E0;-7.049384713E-2;1.106179237E0
1.257470278E1;-4.202752709E-1;2.884261370E0;1.084188104E0
1.258493478E1;-2.748893574E-2;3.793228865E0;5.942741036E-1
1.259499078E1;1.930945039E0;4.793826103E0;6.954090297E-2
1.261473678E1;3.010954857E0;3.705875158E0;-1.454836577E-1
1.262500978E1;2.544864655E0;3.635625601E0;-2.029049993E-1
1.263739178E1;2.136195660E0;3.873862982E0;-1.033339649E-1
1.265478978E1;2.196671486E0;4.701585293E0;5.478484035E-1
1.266479878E1;2.513099670E0;5.037561417E0;7.714250684E-1
1.268509578E1;2.907107830E0;4.797491074E0;6.235956550E-1
1.270473078E1;2.582738161E0;3.799948215E0;-9.844703972E-2
1.271481278E1;2.133752346E0;3.195802689E0;-3.543995917E-1
1.272481378E1;1.627955914E0;2.336925983E0;-3.934949636E-1
1.273567478E1;1.203404546E0;1.391917586E0;-1.894659549E-1
1.275476478E1;8.576548100E-1;-2.836858332E-1;6.498628855E-1
1.276490878E1;9.242390990E-1;-7.644367814E-1;1.082355499E0
1.277518978E1;1.331686258E0;-8.927184939E-1;9.607932568E-1
1.279471978E1;1.624901533E0;-4.687780142E-1;4.305622578E-1
1.280480778E1;1.625512481E0;-3.319441974E-1;1.746097207E-1
1.282469778E1;1.416596532E0;-8.943067491E-2;-4.729074538E-1
1.283584478E1;1.306029916E0;-3.750712425E-2;-7.862813473E-1
1.285479578E1;1.001208186E0;2.929709554E-1;-1.232823730E0
1.287470878E1;5.265658498E-1;1.300287724E0;-1.160741687E0
1.288471678E1;3.109304309E-1;1.715065241E0;-9.304454923E-1
1.290476978E1;-5.070181563E-2;1.701015353E0;-3.403497040E-1
1.292491678E1;-2.987130880E-1;8.928406239E-1;9.641897678E-2
1.294477978E1;-4.068362415E-1;3.070208728E-1;5.243667215E-2
1.295487278E1;-3.207042515E-1;4.200309217E-1;-1.308228970E-1
1.297489978E1;4.654793143E-1;1.711400032E0;-1.705291420E-1
1.298493778E1;5.797111392E-1;1.806084156E0;-1.668639481E-1
1.300479578E1;7.434229851E-1;1.480492949E0;-1.888550967E-1
1.302486578E1;9.236282706E-1;1.054719925E0;-6.912551075E-2
1.303504478E1;5.925393105E-1;1.567480266E-1;1.739988625E-1
1.305482478E1;-1.496619880E-1;-7.754323483E-1;7.494339347E-1
1.307473978E1;-2.400700450E-1;6.882007718E-1;9.223087430E-1
1.309501478E1;6.536258757E-2;2.533013821E0;5.808351040E-1
1.311473878E1;1.023199320E0;2.826229095E0;1.334129740E-2
1.312477778E1;1.618182063E0;2.184820652E0;2.372600511E-2
1.314478078E1;2.695748329E0;6.515488625E-1;4.372817576E-1
1.316537078E1;2.983465910E0;-1.389962792E0;2.821219862E-1
1.318473578E1;2.706743956E0;-2.775771916E-1;1.025276259E-1
1.319481578E1;2.456289053E0;5.006651282E-1;2.411940396E-1
1.321517178E1;1.514945865E0;6.827029586E-1;9.021502137E-1
1.322559078E1;9.108000994E-1;3.546683490E-1;9.003176093E-1
1.323605378E1;2.510656118E-1;1.685988158E-2;7.017863989E-1
1.325478378E1;-9.926559925E-1;-2.977357209E-1;3.823038936E-1
1.326504478E1;-1.513113260E0;-1.541823894E-1;2.723481357E-1
1.328488378E1;-2.556471109E0;5.544213057E-1;-4.163657501E-2
1.330677878E1;-3.436727762E0;1.153680086E0;-5.853066444E-1
1.332492678E1;-3.767816782E0;1.338772297E0;-8.156028390E-1
1.334497478E1;-3.853948832E0;1.342437506E0;-7.038145065E-1
1.336483978E1;-3.266296387E0;1.292346478E0;4.293405116E-1
1.337487478E1;-2.919935942E0;1.192775488E0;6.865147948E-1
1.338636478E1;-2.585181713E0;9.716422558E-1;7.873075604E-1
1.340497478E1;-2.142915249E0;3.198490441E-1;6.779626608E-1
1.342493078E1;-2.093435287E0;-4.156327248E-1;3.670322597E-1
1.344469778E1;-2.532036543E0;-7.742106318E-1;6.709744036E-2
1.345490078E1;-2.882673025E0;-7.210653424E-1;-5.018868670E-2
1.346501278E1;-3.184440613E0;-4.657236636E-1;-1.210490614E-1
1.348478378E1;-3.307224512E0;2.202780098E-1;-2.468872815E-1
1.350492278E1;-3.001791716E0;8.128172755E-1;-3.861645758E-1
1.352478778E1;-2.918103218E0;5.073846579E-1;-4.130426645E-1
1.353578378E1;-3.176499367E0;-2.345722541E-2;-3.262997866E-1
1.355478378E1;-4.368908405E0;-1.496253371E0;1.006950289E-1
1.357474678E1;-4.601037025E0;-2.402777433E0;3.364889920E-1
1.358479578E1;-4.557054520E0;-2.809613705E0;4.336165786E-1
1.360511078E1;-4.472755432E0;-3.537765026E0;4.733228087E-1
1.362540778E1;-4.191146374E0;-3.683151007E0;3.682540059E-1
1.364475878E1;-3.717725754E0;-2.758911848E0;2.637960315E-1
1.365586878E1;-3.425732374E0;-2.533502579E0;2.906741202E-1
1.367473878E1;-3.034778595E0;-2.203635216E0;4.959248304E-1
1.368478578E1;-2.943759680E0;-2.639182329E0;5.392962694E-1
1.370474278E1;-2.722015619E0;-3.532267094E0;5.435723066E-1
1.371477778E1;-2.514321327E0;-3.462628603E0;5.625091195E-1
1.373484178E1;-1.981646895E0;-2.669114590E0;7.714250684E-1
1.374508978E1;-1.515556693E0;-1.624535084E0;6.150435805E-1
1.376480778E1;-1.081842303E0;-8.591209054E-1;4.898161888E-1
1.378545978E1;-7.214318514E-1;5.864305422E-3;5.991610289E-1
1.380524878E1;-7.556402683E-1;1.213178486E-1;4.360600412E-1
1.382467878E1;-7.214318514E-1;5.351179466E-2;9.065240622E-3
1.383485978E1;-5.381723046E-1;-7.721336186E-2;-1.839681715E-1
1.385484878E1;-1.887573600E-1;-9.079900980E-1;-4.081557393E-1
1.387468878E1;1.545488983E-1;-1.501751184E0;-5.291070342E-1
1.388476478E1;3.005457222E-1;-1.605598211E0;-5.480438471E-1
1.390577178E1;7.220427394E-1;-1.340482712E0;-6.751038432E-1
1.392472578E1;1.445307136E0;-9.397550821E-1;-1.097211719E0
1.394475678E1;2.185065031E0;-1.206092358E0;-1.489387155E0
1.395485678E1;1.646281838E0;-1.638584971E0;-1.492441535E0
1.397471778E1;1.614516854E0;-6.587570906E-1;-1.786878586E0
1.398597178E1;1.655444860E0;-8.454374969E-2;-1.706244349E0
1.400473078E1;1.796554685E0;1.436510682E0;-1.770996094E0
1.402473978E1;1.770287514E0;2.497583628E0;-1.551695466E0
1.404485978E1;1.836260915E0;2.272174358E0;-1.367825031E0
1.406474578E1;1.891238809E0;2.259957075E0;-7.740640044E-1
1.407478978E1;1.802052498E0;1.939863682E0;-4.020470679E-1
1.408560678E1;1.903456092E0;1.720563054E0;-6.546031684E-2
1.410475678E1;2.025629282E0;2.085860491E0;1.395216212E-2
1.412475878E1;2.055561543E0;2.934352398E0;-4.484728277E-1
1.413477778E1;2.032959461E0;3.206187248E0;-4.594684243E-1
1.414479278E1;1.973094702E0;3.570262909E0;-4.163657501E-2
1.416570278E1;2.206445217E0;3.667390585E0;3.010588288E-1
1.417580178E1;2.295020819E0;3.653951645E0;3.389324546E-1
1.419471978E1;2.486832380E0;3.923954010E0;2.845654488E-1
1.420483078E1;2.548529863E0;4.240993023E0;3.407650590E-1
1.422468678E1;2.797152042E0;4.479841232E0;5.105856061E-1
1.423554978E1;3.006067991E0;4.391876698E0;5.063095689E-1
1.425539978E1;3.330437422E0;4.627670765E0;2.961719036E-1
1.427469978E1;3.254079103E0;5.124915123E0;2.925066948E-1
1.428489978E1;3.174666643E0;5.284350872E0;4.146797657E-1
1.430501378E1;3.039665461E0;5.098648071E0;6.730757356E-1
1.432486378E1;2.577851295E0;4.061398506E0;7.702033520E-1
1.433490478E1;2.321898699E0;3.322862625E0;8.264029026E-1
1.435474778E1;1.534493566E0;8.977275491E-1;1.078079462E0
1.436500978E1;1.356731772E0;1.775174439E-1;1.103735805E0
1.438546978E1;9.077457786E-1;-5.097059608E-1;7.689815760E-1
1.440474378E1;1.116661668E0;4.627915025E-1;4.134580195E-1
1.441485378E1;1.670105577E0;1.322889805E0;3.688648641E-1
1.443486978E1;2.094656944E0;1.911763906E0;2.845654488E-1
1.444498378E1;2.039679050E0;1.719952226E0;1.630032808E-1
1.446493478E1;1.750739813E0;1.078543663E0;-2.401677817E-1
1.448590478E1;1.428202987E0;6.087883115E-1;-4.026579559E-1
1.450491178E1;1.258993268E0;4.035375714E-1;-3.415714204E-1
1.452484678E1;1.293812633E0;7.156897187E-1;-8.500800282E-2
1.453544778E1;1.423926950E0;1.473773479E0;4.110145569E-1
1.455481478E1;1.126435518E0;1.371758938E0;5.741155744E-1
1.456486278E1;9.144653082E-1;9.423207045E-1;3.187738955E-1
1.458485778E1;7.660250068E-1;6.882007718E-1;-2.261178792E-1
1.460476578E1;7.067710757E-1;1.288070440E0;-2.591046095E-1
1.462482778E1;4.569272101E-1;1.495153785E0;-6.179512665E-2
1.463663478E1;3.652974367E-1;1.293568254E0;-3.369532898E-2
1.465487278E1;6.389650702E-1;8.476365805E-1;1.483425200E-1
1.467476978E1;1.222341418E0;2.813645303E-1;4.464447498E-1
1.469475478E1;1.767233133E0;-4.883256853E-1;5.044769645E-1
1.470476378E1;1.731802940E0;-6.080552936E-1;3.138870001E-1
1.472478978E1;1.783726513E-1;-4.638910890E-1;-8.038987406E-3
1.473533978E1;-1.836871743E0;-1.621236354E-1;-2.542176843E-1
1.475474278E1;-3.574783325E0;-8.719490767E-1;-3.287432492E-1
1.476476178E1;-4.068973541E0;-9.024923444E-1;-4.270925522E-1
1.477480378E1;-4.280943394E0;-4.266282916E-1;-4.942877293E-1
1.478509578E1;-4.335310459E0;3.968180418E-1;-5.187223554E-1
1.480464778E1;-4.271780491E0;1.970406890E0;-4.289251566E-1
1.481474278E1;-4.211305141E0;2.366247654E0;-3.299649954E-1
1.483471178E1;-4.022547722E0;2.333871841E0;-2.389460355E-1
1.484483478E1;-3.852116108E0;2.195816278E0;-1.357098222E-1
1.486479578E1;-3.538131475E0;1.629544139E0;1.446773261E-1
1.488481278E1;-3.371976137E0;4.725653529E-1;5.838894248E-1
1.490485678E1;-3.408017159E0;-1.251907229E0;7.537099719E-1
1.492502378E1;-4.668231964E0;-1.062905509E-2;-3.666169047E-1
1.494480578E1;-4.937012672E0;1.719341278E0;-9.487714767E-1
1.496474278E1;-3.900374651E0;1.263635874E0;-1.161963344E0
1.498468978E1;-3.364034891E0;-8.609535098E-1;-9.457171559E-1
1.499474678E1;-3.582724571E0;-2.171259403E0;-7.410773039E-1
1.501607478E1;-4.926628113E0;-3.396655083E0;-2.346699834E-1
1.503491378E1;-6.329785824E0;-3.688037872E0;2.943392992E-1
1.505473678E1;-5.691431522E0;-5.520633698E0;2.809002697E-1
1.506493978E1;-4.815450668E0;-6.011769295E0;2.986153662E-1
1.508493478E1;-3.384804249E0;-4.551190376E0;6.565824151E-1
1.510475878E1;-2.895501137E0;-3.234164953E0;9.186435938E-1
1.512476878E1;-2.394591808E0;-3.554258347E0;5.301333070E-1
1.513498178E1;-2.144136906E0;-3.039909840E0;3.560366929E-1
1.515471478E1;-1.794111252E0;-1.506027222E0;1.006950289E-1
1.516484678E1;-1.585195303E0;-8.261341453E-1;8.725599200E-2
1.517537978E1;-1.353066564E0;-3.252246678E-1;1.000841632E-1
1.519472078E1;-1.022588491E0;9.749409556E-2;2.717372775E-1
1.520479578E1;-7.580837607E-1;2.612059712E-1;3.499280214E-1
1.521537178E1;-5.222898126E-1;3.137403727E-1;2.809002697E-1
1.522605078E1;-4.355469048E-1;1.029918790E-1;1.000841632E-1
1.523612678E1;-4.227187335E-1;-2.983466089E-1;-1.106643453E-1
1.525483678E1;-1.123992056E-1;-1.035660982E0;-4.625227451E-1
1.527501678E1;4.477642477E-1;-1.210368395E0;-7.997203469E-1
1.529499178E1;1.162476540E0;-1.208535790E0;-1.132030964E0
1.531481378E1;1.643838406E0;-1.025276184E0;-8.638612032E-1
1.532482278E1;2.210721254E0;-1.130955935E0;-8.351505399E-1
1.534514078E1;2.077552795E0;1.490877748E0;-1.290856004E0
1.536487578E1;2.685363531E0;7.706675529E-1;-1.051396728E0
1.538481778E1;2.408641577E0;2.390071392E0;-9.615996480E-1
1.540470678E1;2.479501963E0;2.295998096E0;-5.260527134E-1
1.541497978E1;2.531425476E0;2.350365162E0;-4.258708358E-1
1.543490278E1;2.681698322E0;2.441994905E0;-3.195802867E-1
1.545483778E1;2.700635195E0;2.817677021E0;-1.668639481E-1
1.547471478E1;2.719572067E0;3.521393776E0;-3.064100072E-2
1.548474178E1;2.772717476E0;3.669223070E0;2.494773641E-2
1.549476778E1;2.787988901E0;3.710151196E0;7.503868639E-2
1.551484078E1;2.794097662E0;3.808500528E0;3.157195747E-1
1.553476878E1;2.917492390E0;3.887302160E0;3.859690726E-1
1.554491578E1;3.059213161E0;3.879971743E0;4.091819525E-1
1.556482878E1;3.330437422E0;3.590421438E0;5.374636650E-1
1.558511978E1;3.368921757E0;3.520172119E0;7.268319130E-1
1.560477178E1;3.119688749E0;3.801170111E0;9.669019580E-1
1.561481978E1;2.957809448E0;3.737640142E0;1.026155949E0
1.563506678E1;2.649322510E0;3.167702913E0;1.064640403E0
1.565473078E1;2.348776817E0;2.300884962E0;8.771047592E-1
1.566474578E1;2.174680233E0;1.859229445E0;6.968994737E-1
1.568508978E1;1.822211027E0;9.398772717E-1;3.291586041E-1
1.570495078E1;1.704313993E0;2.728123963E-1;1.862161607E-1
1.572469578E1;2.039679050E0;3.143512309E-1;3.535932302E-1
1.573516978E1;2.155132532E0;5.269323587E-1;2.863980532E-1
1.575472178E1;2.259590626E0;5.318192840E-1;-1.253251135E-1
1.576476578E1;2.219273329E0;4.163657427E-1;-2.908695936E-1
1.578519578E1;2.053117990E0;2.105041742E-1;-4.454185069E-1
1.580469978E1;1.793500423E0;3.192381561E-1;-5.291070342E-1
1.581472178E1;1.735468149E0;6.307794452E-1;-4.380881190E-1
1.582480778E1;1.746463776E0;1.090150118E0;-1.522031873E-1
1.583546878E1;1.748907208E0;1.611218214E0;2.088181823E-1
1.585477478E1;1.400103211E0;1.747441053E0;7.353839874E-1
1.587472078E1;7.959574461E-1;7.560068369E-1;5.710612535E-1
1.588490278E1;6.511823535E-1;5.336518884E-1;2.833437324E-1
1.590465978E1;5.992588401E-1;1.173227787E0;-1.619770229E-1
1.591478678E1;4.324926138E-1;1.704069734E0;-1.931311488E-1
1.592495478E1;3.023782969E-1;1.520810127E0;-1.937420219E-1
1.594489478E1;3.109304309E-1;9.319360256E-1;-5.202128366E-2
1.595597578E1;3.897320330E-1;7.144680023E-1;-1.964542642E-2
1.597472878E1;5.479461551E-1;6.002361774E-1;-1.964542642E-2
1.598545178E1;6.401867867E-1;6.906442642E-1;1.123991795E-3
1.600504978E1;7.837401032E-1;5.904623270E-1;4.938234389E-2
1.602484978E1;9.841039181E-1;1.762957126E-1;9.580811113E-2
1.604466078E1;5.583308339E-1;-9.287595153E-1;3.969646692E-1
1.605475978E1;1.423316002E-1;-1.265346289E0;4.849292636E-1
1.607469978E1;-1.019534111E0;-4.577824175E-1;2.570765316E-1
1.608486978E1;-1.719585657E0;1.714087874E-1;1.239079088E-1
1.610469278E1;-2.811812639E0;1.745608568E0;-1.839681715E-1
1.612519978E1;-2.974913836E0;1.706513166E0;-5.474330187E-1
1.614480978E1;-3.365867376E0;5.849645734E-1;-5.791980028E-1
1.616496678E1;-3.583946466E0;-2.696359158E-1;-3.256889284E-1
1.618486878E1;-3.478266716E0;3.015230596E-1;-1.475850400E-2
1.620473478E1;-3.166114569E0;1.178114653E0;7.442782074E-2
1.622493678E1;-2.806925774E0;1.154901862E0;-1.021122336E-1
1.624487178E1;-2.706743956E0;1.038837433E0;-1.231504325E-2
1.626483178E1;-3.173444986E0;7.505090237E-1;-6.484945118E-2
1.628488678E1;-3.824016333E0;8.158715963E-1;-3.489018083E-1
1.630490678E1;-2.657874584E0;7.816631794E-1;-2.591046095E-1
1.632530478E1;-1.885740995E0;-6.072000414E-2;-3.324084580E-1
1.633550778E1;-1.857030392E0;-4.345695376E-1;-4.661879241E-1
1.635473978E1;-2.818532228E0;-1.000841618E0;-7.196969986E-1
1.636497778E1;-3.674965382E0;-1.202427149E0;-6.262346506E-1
1.638494978E1;-4.565606594E0;-1.470597029E0;-1.381532848E-1
1.640474678E1;-3.795916557E0;-2.126666307E0;5.915619060E-2
1.641479078E1;-3.126408339E0;-2.549385071E0;7.015176862E-2
1.643579378E1;-2.205834389E0;-3.240884542E0;2.216463536E-1
1.645478378E1;-2.021353245E0;-3.110770226E0;3.951320648E-1
1.646485978E1;-1.919949412E0;-2.846876383E0;4.061276317E-1
1.648482478E1;-1.042136073E0;-2.228680849E0;3.261042833E-1
1.650484878E1;-5.131268129E-2;-1.228083491E0;4.403360784E-1
1.652468878E1;2.357939929E-1;5.696929097E-1;5.148616433E-1
1.653473378E1;4.361577928E-1;1.045556903E0;4.311731160E-1
1.654474378E1;6.963863969E-1;1.137186766E0;3.083891869E-1
1.655477878E1;1.047023058E0;1.137797594E0;1.623924226E-1
1.656482278E1;1.510058880E0;1.284405231E0;-2.208888903E-2
1.658481578E1;1.981646776E0;1.894048810E0;9.214291722E-2
1.659499878E1;1.841758728E0;1.913596511E0;4.085710943E-1
1.661470578E1;1.817934990E0;1.472551703E0;7.011755705E-1
1.662485578E1;2.054339886E0;1.379700184E0;3.951320648E-1
1.663540478E1;2.177734613E0;1.718730450E0;7.232644595E-3
1.664673078E1;2.005470514E0;2.395569086E0;3.044552356E-2
1.666491078E1;2.270586014E0;2.454212189E0;5.411288738E-1
1.667692778E1;2.160630465E0;3.233676195E0;6.687996984E-1
1.669479578E1;2.403754711E0;3.413270712E0;5.936632752E-1
1.671474278E1;2.811201811E0;2.710164785E0;7.176688910E-1
1.673504778E1;3.053104401E0;2.380297422E0;9.876713753E-1
1.675471178E1;2.993850470E0;2.811568260E0;1.059753537E0
1.677478278E1;2.575407982E0;2.738264561E0;7.946379185E-1
1.678538178E1;2.370768070E0;2.377243280E0;6.358129978E-1
1.680472478E1;1.970651388E0;1.357709050E0;3.871908188E-1
1.682525578E1;1.514334917E0;6.057339907E-1;3.383215964E-1
1.684471778E1;1.191187263E0;7.305948436E-2;3.743626475E-1
1.685478478E1;1.169806957E0;-9.248499572E-2;4.971465468E-1
1.687471278E1;1.391551018E0;-3.997502327E-1;7.378274798E-1
1.688473178E1;1.550986886E0;-4.693888724E-1;5.857220292E-1
1.689476178E1;1.646892667E0;-4.809952974E-1;4.782097340E-1
1.691474078E1;1.541213036E0;-6.893003583E-1;2.063747197E-1
1.692480478E1;1.474017859E0;-6.459289193E-1;7.748214900E-2
1.694466578E1;1.265712857E0;-5.400048941E-2;-2.346699834E-1
1.695514478E1;1.196074128E0;3.919311166E-1;-3.849428594E-1
1.697481778E1;1.125213742E0;1.438954115E0;-3.666169047E-1
1.698504878E1;1.045190454E0;1.863505483E0;-1.424293369E-1
1.700484878E1;9.230173826E-1;2.121901512E0;1.483425200E-1
1.701490178E1;8.918632865E-1;1.866559863E0;9.153205156E-2
1.703493478E1;8.637634516E-1;7.065267563E-1;3.411071375E-2
1.705485078E1;6.279695034E-1;-8.023104072E-1;6.010914221E-3
1.706491578E1;4.673119187E-1;-1.244576812E0;-9.600357711E-2
1.708482578E1;-2.400700450E-1;-1.143784046E0;-3.293541074E-1
1.710473078E1;-9.822713137E-1;-9.354790449E-1;-7.156896591E-2
1.711480078E1;-1.491732955E0;-1.044213057E0;1.232970431E-1
1.712486478E1;-2.093435287E0;-1.122403860E0;3.432085216E-1
1.714028678E1;-2.704300404E0;-9.660223126E-1;5.936632752E-1
1.715472978E1;-3.414736748E0;2.269975245E-1;1.152605057E0
1.716473778E1;-3.395189047E0;1.091982722E0;1.346249342E0
1.717478078E1;-3.209486008E0;1.997284889E0;1.393285990E0
1.718482378E1;-2.874120951E0;2.871433258E0;1.265004277E0
1.720471278E1;-1.910175562E0;4.133480549E0;2.955610156E-1
1.721474678E1;-1.530217409E0;4.129815578E0;-3.250780702E-1
1.723472978E1;-2.109928608E0;3.208630800E0;-7.313034534E-1
1.725475478E1;-3.558900833E0;8.952841163E-1;-8.510330319E-1
1.727468178E1;-3.501479626E0;-1.239689946E0;-9.823690653E-1
1.728481478E1;-1.932166815E0;-2.523117781E0;-7.032036185E-1
1.729485178E1;-1.379944563E0;-2.422935963E0;-3.220237494E-1
1.731467378E1;-2.185065031E0;-3.264463842E-1;1.342926174E-1
1.732500278E1;-4.240015507E0;3.322251797E0;-1.717508733E-1
1.734478578E1;-3.087923765E0;2.394958258E0;-1.020853519E0
1.735489278E1;-2.131919622E0;4.923573881E-2;-9.884777665E-1
1.737480978E1;-8.607091308E-1;-2.565878391E0;-4.924551249E-1
1.738486378E1;-7.354817390E-1;-2.705155611E0;-3.812776506E-1
1.740490778E1;-2.385428667E0;-6.734178662E-1;-5.382700562E-1
1.742478878E1;-3.957185030E0;4.487415850E-1;-6.415062547E-1
1.743480878E1;-3.794694901E0;-1.987755448E-1;-5.883609653E-1
1.744483478E1;-3.057380438E0;-1.186544657E0;-4.539706409E-1
1.745567278E1;-2.083050489E0;-2.313591003E0;-2.639915347E-1
1.747468178E1;-1.167974353E0;-5.076534748E0;4.959248304E-1
1.748468278E1;-1.446528912E0;-5.416786671E0;7.201123834E-1
1.749480978E1;-1.566258430E0;-5.328821659E0;8.007465601E-1
1.751477378E1;-1.090394497E0;-3.564643145E0;5.991610289E-1
1.752499678E1;-5.406157374E-1;-1.862772465E0;5.148616433E-1
1.754467778E1;1.044579595E-1;2.605951130E-1;4.965356886E-1
1.755481678E1;2.559525371E-1;5.678603053E-1;5.038660765E-1
1.757469278E1;5.919284225E-1;1.168951750E0;5.661743283E-1
1.758477678E1;8.362745047E-1;1.379089355E0;3.529823720E-1
1.759482378E1;1.177748203E0;1.413297772E0;-5.996252969E-2
1.761483778E1;2.251038551E0;1.680245876E0;-3.482909501E-1
1.763481478E1;2.796541214E0;8.494691849E-1;1.349034756E-1
1.765562078E1;2.453845739E0;1.380311131E0;4.299513698E-1
1.767476478E1;1.643227577E0;4.132869720E0;-4.069339931E-1
1.768529978E1;2.334116220E0;2.927632809E0;-1.515923142E-1
1.770498878E1;2.081828833E0;2.062281072E-1;8.795481920E-1
1.772478178E1;1.389718413E0;2.419392824E0;8.251811862E-1
1.773522978E1;1.841758728E0;3.460307360E0;5.747264624E-1
1.775481378E1;2.626109600E0;2.760255575E0;3.187738955E-1
1.777476578E1;2.858238459E0;2.529348612E0;3.468737006E-1
1.779478978E1;2.713463545E0;2.842722416E0;4.837075174E-1
1.781478878E1;2.265088320E0;2.741318941E0;8.111312985E-1
1.783533878E1;1.887573600E0;1.536081791E0;9.009284973E-1
1.785472078E1;1.530217409E0;5.855754018E-1;7.952488065E-1
1.787467678E1;1.521665335E0;5.458691716E-1;7.390491962E-1
1.788482678E1;1.661553502E0;5.770233274E-1;7.152254581E-1
1.790468278E1;1.869858503E0;4.737870693E-1;5.038660765E-1
1.791475878E1;1.853976011E0;2.850297093E-1;3.957429230E-1
1.792517578E1;1.754405022E0;5.864305422E-3;3.309912086E-1
1.794476378E1;1.546099901E0;-6.679200530E-1;2.790676653E-1
1.795478478E1;1.491122127E0;-8.859989643E-1;2.118725032E-1
1.796481978E1;1.485013366E0;-1.002063274E0;8.786685765E-2
1.798483278E1;1.568091154E0;-8.786686063E-1;-2.786523104E-1
1.800495778E1;1.656666517E0;-8.393289149E-2;-5.223875642E-1
1.802467478E1;1.657277465E0;1.012570262E0;-4.606901407E-1
1.803495978E1;1.541213036E0;1.368704677E0;-2.224526852E-1
1.804497478E1;1.361007810E0;1.559294581E0;3.044552356E-2
1.806482678E1;9.120218158E-1;1.787147403E0;3.047240078E-1
1.808480578E1;9.755518436E-1;1.478049517E0;3.218282461E-1
1.810486278E1;1.221730471E0;6.839247346E-1;3.175521791E-1
1.812471078E1;1.208291411E0;-2.635272741E-1;1.831618398E-1
1.813493578E1;1.119105101E0;-4.895474315E-1;5.304753780E-2
1.815477478E1;1.054964304E0;-4.113566577E-1;-1.412076056E-1
1.816494278E1;1.163087487E0;-3.282789886E-1;-1.179947257E-1
1.818540378E1;1.450194120E0;-7.574729156E-3;5.365840346E-2
1.820488578E1;1.461800575E0;4.450764060E-1;3.151087165E-1
1.822469478E1;1.028697133E0;3.962071836E-1;3.768061101E-1
1.823476578E1;6.640105247E-1;1.579697579E-1;3.303803504E-1
1.825492778E1;-8.368854225E-2;6.475171074E-3;1.623924226E-1
1.827474278E1;-1.214400053E0;2.239432037E-1;-1.662530750E-1
1.828480678E1;-1.676825047E0;-1.185078546E-2;-1.552575082E-1
1.829489278E1;-2.161241293E0;-2.378709167E-1;-1.552575082E-1
1.831476178E1;-3.120299578E0;-5.481904745E-1;-1.986289471E-1
1.833497978E1;-4.009719372E0;-8.432384133E-1;-2.096245140E-1
1.834499278E1;-4.276667595E0;-5.048190355E-1;-2.615480721E-1
1.836470378E1;-3.976732731E0;1.805473328E0;-2.261178792E-1
1.837480678E1;-3.559511662E0;3.067520857E0;-9.905790538E-2
1.839485778E1;-3.227200985E0;4.074226856E0;-2.346699834E-1
1.841472378E1;-3.276681185E0;3.722979307E0;-5.199440718E-1
1.843515878E1;-3.488040447E0;2.854939699E0;-3.366844952E-1
1.845483678E1;-4.292550087E0;-2.137050867E0;5.313550234E-1
1.846529078E1;-4.563774109E0;-4.739947796E0;8.209051490E-1
1.848485378E1;-3.682906628E0;-5.689232349E0;1.255230427E0
1.849512578E1;-3.315165758E0;-3.463239431E0;1.214913249E0
1.851476578E1;-3.265074730E0;2.844555140E0;5.698395371E-1
1.852515078E1;-3.223535776E0;4.107824326E0;-9.871582501E-3
1.854489078E1;-3.299283266E0;2.217196465E0;-7.380229831E-1
1.856479478E1;-4.463592529E0;-1.793744683E0;-7.166426778E-1
1.858481278E1;-5.599801540E0;-3.103439808E0;-2.438329607E-1
1.860478978E1;-4.848437309E0;-3.499891281E0;2.014877945E-1
1.861480878E1;-4.244902611E0;-4.074104786E0;3.425976634E-1
1.863478978E1;-3.866166115E0;-4.331278801E0;6.003828049E-1
1.865653878E1;-3.389691353E0;-2.579317331E0;6.431433558E-1
1.867480278E1;-2.699413538E0;-2.480968237E0;5.881654620E-1
1.869479578E1;-2.174069405E0;-2.417438030E0;6.352021098E-1
1.871473978E1;-1.695151091E0;-2.002049685E0;8.215159774E-1
1.873482778E1;-1.380555391E0;-1.730825543E0;9.253631234E-1
1.875467578E1;-1.104444385E0;-1.241522551E0;7.744793892E-1
1.876489578E1;-1.035416603E0;-8.731707931E-1;6.266499758E-1
1.878494478E1;-7.550294399E-1;-2.116037160E-1;3.694757223E-1
1.880533478E1;-4.850269854E-1;-1.279151887E-1;2.955610156E-1
1.882467578E1;-2.180788964E-1;-3.221703470E-1;1.251296401E-1
1.883497878E1;-7.696902007E-2;-1.804495901E-1;-4.591263458E-2
1.885517578E1;5.522221923E-1;2.907718718E-2;-8.149920106E-1
1.887468378E1;6.829473376E-1;-9.495289326E-1;-1.179067612E0
1.888487678E1;-4.703662544E-2;-1.518244505E0;-9.127304554E-1
1.889548878E1;-4.764748812E-1;-2.366125345E0;-4.429750443E-1
1.891464878E1;1.638951421E0;-3.571362495E0;-1.262145281E0
1.893476978E1;1.762957096E0;1.347935200E0;-2.125908852E0
1.895472778E1;2.648100853E0;9.869138598E-1;-1.020242691E0
1.897470878E1;2.346333504E0;7.889935374E-1;-1.392259598E0
1.898479478E1;2.135584831E0;1.943528891E0;-1.301851511E0
1.900491178E1;2.115426302E0;1.256305456E0;-6.970949769E-1
1.902466478E1;2.219273329E0;1.569068432E0;-4.814595580E-1
1.903477978E1;2.409252644E0;2.016832590E0;-3.226346076E-1
1.905486578E1;2.561968803E0;3.465194225E0;-5.590394735E-1
1.907472878E1;2.463008642E0;3.923954010E0;-5.865283608E-1
1.908506178E1;2.425745964E0;3.940447330E0;-5.162788630E-1
1.910505378E1;2.249205828E0;3.905017138E0;-2.511633635E-1
1.912470778E1;2.231490850E0;3.695490360E0;8.114734292E-2
1.913500478E1;2.287079573E0;3.625240803E0;1.721662581E-1
1.914509478E1;2.354885578E0;3.595308542E0;2.082073092E-1
1.916503578E1;2.522262573E0;3.628295183E0;2.705155611E-1
1.918504378E1;2.709187269E0;3.556213140E0;4.653815627E-1
1.919504878E1;2.774549961E0;3.460918188E0;5.490701199E-1
1.921467578E1;2.912605524E0;3.347908020E0;5.686178207E-1
1.922477778E1;2.945592165E0;3.353405952E0;5.356310606E-1
1.924480178E1;2.681698322E0;3.200078726E0;5.276898146E-1
1.926469378E1;2.412917614E0;2.591656923E0;5.252463818E-1
1.928485978E1;1.977981567E0;2.143281698E0;4.195666611E-1
1.930464678E1;1.681712031E0;1.729115129E0;2.570765316E-1
1.931468278E1;1.679879427E0;1.479271293E0;1.636141539E-1
1.932498578E1;1.685377240E0;1.257527232E0;1.232970431E-1
1.933679778E1;1.678046823E0;1.093815327E0;1.251296401E-1
1.934995978E1;1.683544636E0;8.751255274E-1;1.623924226E-1
1.936475678E1;1.718364000E0;8.103738427E-1;1.819401085E-1
1.937496078E1;1.755015850E0;7.951021791E-1;2.473026961E-1
1.938497178E1;1.718974829E0;7.963238955E-1;2.815111279E-1
1.940466678E1;1.452026725E0;6.020687819E-1;8.359080553E-2
1.941470078E1;1.290147424E0;6.130643487E-1;-1.613661647E-1
1.943587278E1;8.985828161E-1;7.303504944E-1;-9.615996480E-1
1.945475778E1;8.063421249E-1;8.739038110E-1;-7.490185499E-1
1.946481178E1;8.185594678E-1;1.111530423E0;-4.521380365E-1
1.948490878E1;7.275404930E-1;1.352211237E0;-1.222707778E-1
1.950481578E1;1.130100638E-1;8.097629547E-1;-1.082208827E-1
1.951484778E1;-3.390302062E-1;6.045122147E-1;-1.173838675E-1
1.953484878E1;-9.162978530E-1;1.093815327E0;-1.350989491E-1
1.955496378E1;-7.751879692E-1;1.601444364E0;-1.693074107E-1
1.956496778E1;-4.856378734E-1;1.510425448E0;-2.627698183E-1
1.958533478E1;-7.330383360E-2;7.859392166E-1;-2.334482521E-1
1.960470878E1;-4.031710625E-1;-6.404311061E-1;-5.690820888E-2
1.961486878E1;-2.693915665E-1;-4.247957170E-1;2.922379225E-2
1.963500878E1;7.299839854E-1;8.109846711E-1;3.358781338E-1
1.964915178E1;2.321287841E-1;-6.988298893E-2;3.926886022E-1
1.966523878E1;3.316998482E-1;5.574756265E-1;3.401542008E-1
1.968470678E1;1.149648428E0;1.762101889E0;2.479135543E-1
1.969470978E1;1.323745012E0;1.366872072E0;2.534113228E-1
1.970499978E1;1.310916781E0;4.291939139E-1;2.766242027E-1
1.972471478E1;1.398270607E0;-5.610186458E-1;3.169413209E-1
1.973480078E1;1.575421453E0;-3.215594888E-1;3.914668858E-1
1.975478878E1;2.262644768E0;9.032253623E-1;5.289115310E-1
1.977473078E1;2.762943506E0;1.462167025E0;2.418048978E-1
1.978497978E1;2.756223917E0;9.856921434E-1;1.171883941E-1
1.980475978E1;2.561357975E0;-3.872885555E-2;4.055167735E-1
1.982479878E1;7.165449262E-1;2.785545588E-2;1.291271448E0
1.983490778E1;4.948008433E-2;7.144680023E-1;1.312651753E0
1.985479178E1;-8.955284357E-1;1.857396841E0;7.983031273E-1
1.987498078E1;-1.585195303E0;1.502484202E0;1.770531833E-1
1.989518278E1;-1.960877419E0;6.497162580E-1;-1.344880909E-1
1.991478078E1;-1.996918440E0;5.849645734E-1;-2.145114392E-1
1.993478178E1;-2.012800932E0;7.731110454E-1;-2.169549018E-1
1.995489078E1;-2.118480682E0;8.525235057E-1;-3.073629737E-1
1.996495378E1;-2.160019398E0;8.470257521E-1;-2.499416322E-1
1.998502778E1;-2.223549366E0;6.191729903E-1;-9.417098016E-2
2.000488678E1;-2.406809092E0;4.652349651E-1;1.080254093E-1
2.002472478E1;-2.714074373E0;2.113593742E-2;6.211522222E-1
2.003505778E1;-2.735454559E0;-2.702468038E-1;6.516954899E-1
2.005490278E1;-2.725069761E0;-7.864279151E-1;4.947030842E-1
2.007472478E1;-2.727513313E0;-9.538050294E-1;4.030733109E-1
2.008486278E1;-2.709798098E0;-9.617462754E-1;4.006298482E-1
2.009546878E1;-2.644435644E0;-9.525832534E-1;4.220101237E-1
2.011473478E1;-2.257147074E0;-5.152037740E-1;4.904270470E-1
2.012474278E1;-1.974927306E0;-1.795943826E-2;5.063095689E-1
2.013486578E1;-1.723861694E0;6.539922953E-1;4.702684879E-1
2.015471178E1;-1.452637553E0;2.100521326E0;2.998370826E-1
2.016496278E1;-1.406822681E0;2.715662479E0;2.442483604E-1
2.018475978E1;-1.412320495E0;3.046140671E0;5.915619060E-2
2.020471778E1;-1.193019867E0;1.856786013E0;-2.420003861E-1
2.021471778E1;-1.173472166E0;9.539271593E-1;-3.232454658E-1
2.022481278E1;-1.805717707E0;-9.727418423E-1;-3.391279578E-1
2.024484778E1;-2.544253826E0;-1.786414385E0;-2.175657600E-1
2.026475478E1;-2.439795732E0;-1.196318507E0;-1.063882858E-1
2.027475578E1;-2.164906502E0;-7.228979468E-1;-1.094426140E-1
2.028479178E1;-1.916284323E0;-3.014009297E-1;-1.436510682E-1
2.030474378E1;-1.845423937E0;-7.843509316E-2;-1.088317484E-1
2.032467178E1;-2.200947523E0;-8.554556966E-1;1.883908361E-2
2.033480778E1;-2.439184904E0;-1.377134562E0;6.159964949E-2
2.034495378E1;-2.654209375E0;-1.808405519E0;4.388456047E-2
2.036482278E1;-2.842355967E0;-2.119946718E0;-3.125186637E-2
2.038503978E1;-2.814867020E0;-1.848111749E0;7.076263428E-2
2.040512978E1;-2.897333860E0;-1.910419941E0;4.409469664E-1
2.042472978E1;-3.095865011E0;-2.708209991E0;6.199304461E-1
2.044471678E1;-2.930320501E0;-2.229291677E0;7.225558162E-1
2.045473178E1;-2.828917027E0;-2.066190720E0;7.390491962E-1
2.046483178E1;-2.724458933E0;-2.138272762E0;7.231667042E-1
2.048511578E1;-2.505769253E0;-1.842003107E0;7.115602493E-1
2.050486878E1;-2.276694775E0;-1.579331040E0;6.199304461E-1
2.051535078E1;-2.188119411E0;-1.513357520E0;5.985502005E-1
2.053473578E1;-1.865582466E0;-1.399736643E0;5.576221943E-1
2.055480778E1;-1.496619821E0;-1.625756741E0;5.753372908E-1
2.056481578E1;-1.389718413E0;-1.553063869E0;5.930523872E-1
2.057564778E1;-1.266934514E0;-1.454714537E0;5.808351040E-1
2.059468578E1;-1.117272496E0;-9.177639484E-1;3.816930354E-1
2.060558378E1;-8.026769161E-1;-4.180761874E-1;3.242717087E-1
2.062478578E1;-5.461134911E-1;-9.737192094E-2;2.900632322E-1
2.063493178E1;-4.202752709E-1;4.495968297E-2;2.473026961E-1
2.064495578E1;-3.109304011E-1;1.610240787E-1;2.020986676E-1
2.065561678E1;-2.107485086E-1;3.112969100E-1;1.287948340E-1
2.067594978E1;-2.382374555E-1;8.894197643E-2;-3.247359768E-2
2.069493878E1;-3.543018401E-1;-5.732359290E-1;-2.114571035E-1
2.071484078E1;-3.885102868E-1;-1.388741016E0;-3.763907552E-1
2.072504678E1;-4.056145251E-1;-1.752816796E0;-4.350337982E-1
2.074467478E1;-5.589416623E-1;-1.608652592E0;-5.718676448E-1
2.075475078E1;-6.151412725E-1;-1.254961610E0;-5.028398633E-1
2.077472278E1;-4.263839424E-1;-8.188037872E-1;-3.613878787E-2
2.078480478E1;-2.675589621E-1;-9.018814564E-1;5.121494085E-2
2.080470078E1;1.108720422E0;-2.950112581E0;-1.574908257E0
2.081470478E1;2.047009468E0;-2.835880756E0;-1.962196827E0
2.082478978E1;2.505769253E0;-7.216762304E-1;-1.874843121E0
2.084500778E1;2.270586014E0;1.842125177E0;-1.048953295E0
2.086488878E1;2.328007460E0;9.582031965E-1;-8.632503152E-1
2.088499178E1;2.097711325E0;2.230635405E0;-1.354385972E0
2.090481278E1;1.772120118E0;1.471940875E0;-1.238321543E0
2.091510178E1;1.680490255E0;1.333274484E0;-1.267032266E0
2.093479278E1;1.909564734E0;1.850677371E0;-1.144859195E0
2.095489478E1;2.085494041E0;2.124955893E0;-9.860342741E-1
2.097522978E1;2.177734613E0;2.491474867E0;-8.198789358E-1
2.099478278E1;2.171625853E0;2.933741331E0;-4.582466781E-1
2.100491578E1;2.109317780E0;3.031479836E0;-5.595524795E-3
2.102474378E1;2.042122602E0;3.011932135E0;3.731409013E-1
2.104484578E1;2.163073778E0;2.967339039E0;3.615344763E-1
2.106488578E1;2.255925417E0;2.636860847E0;1.336817443E-1
2.108481178E1;2.393370152E0;2.655186892E0;-6.206390448E-3
2.110469478E1;2.521651745E0;2.820120573E0;1.456302777E-2
2.111470978E1;2.560747147E0;2.836613894E0;7.137349993E-2
2.112520678E1;2.594344616E0;2.818898678E0;1.556729078E-1
2.114473778E1;2.632218361E0;2.846387625E0;3.340455294E-1
2.116471678E1;2.678644180E0;2.956343412E0;3.780278265E-1
2.117483478E1;2.678033352E0;2.998493195E0;3.664214015E-1
2.118495378E1;2.654820442E0;3.034534216E0;3.322129548E-1
2.120476978E1;2.434298038E0;3.145100832E0;1.727771312E-1
2.121484778E1;2.280970812E0;3.311256170E0;1.281839609E-1
2.123487978E1;1.960266590E0;3.404718637E0;1.239079088E-1
2.125998278E1;1.596801758E0;2.922745943E0;1.019167602E-1
2.127471478E1;1.215011001E0;2.153666496E0;-3.247359768E-2
2.128479378E1;1.064127326E0;1.739499807E0;-1.222707778E-1
2.130479278E1;9.816604853E-1;9.875247478E-1;-2.927021980E-1
2.132474478E1;1.147815824E0;6.735399961E-1;-6.525018215E-1
2.133497278E1;1.187522054E0;6.808704138E-1;-9.084543586E-1
2.135469678E1;1.145372391E0;5.220454335E-1;-1.511989117E0
2.136976378E1;1.028697133E0;4.560719728E-1;-1.753280997E0
2.138473178E1;4.770857692E-1;4.756196737E-1;-1.361716270E0
2.140546278E1;-7.984008789E-1;1.840292573E0;2.861292660E-2
2.142473778E1;-1.321301460E0;2.566611290E0;2.192028910E-1
2.143478578E1;-1.393383622E0;2.815844536E0;7.809301466E-2
2.144478978E1;-1.219897866E0;3.107837915E0;-1.778595150E-1
2.146468378E1;-1.850921661E-1;3.806667805E0;-2.536068261E-1
2.147477678E1;5.290093422E-1;4.019248962E0;4.693888500E-2
2.149471378E1;2.285246849E0;3.727866173E0;8.233485818E-1
2.150471478E1;3.032945871E0;3.055303574E0;9.045937061E-1
2.151475178E1;3.430008411E0;1.899546504E0;5.728938580E-1
2.153474978E1;2.753169775E0;-1.583607078E0;-3.568430543E-1
2.155482878E1;1.312749386E0;-2.899410725E0;-6.769364476E-1
2.157473078E1;1.337794900E0;6.637661457E-1;-5.303288102E-1
2.158477178E1;1.315803766E0;1.429180264E0;-1.720196381E-2
2.160497378E1;3.010954857E0;2.140227556E0;1.038373232E0
2.162466078E1;2.233323336E0;1.908098698E0;1.053033948E0
2.163495678E1;1.527163148E0;1.869614124E0;6.822387576E-1
2.164835378E1;8.564330935E-1;1.858007669E0;2.741807401E-1
2.166474378E1;-1.643227488E-1;1.162843108E0;3.041131496E-1
2.167474678E1;-3.457497060E-1;1.032117963E0;4.183449447E-1
2.168497678E1;-4.037819207E-1;1.113363028E0;3.572584093E-1
2.170470878E1;-7.226535678E-1;1.305785537E0;-7.828848809E-2
2.171480078E1;-1.134987593E0;1.139630198E0;-2.920913398E-1
2.173473778E1;-2.122756720E0;5.049412251E-1;-3.440148830E-1
2.175505578E1;-3.088534594E0;1.158200502E-1;-3.873863220E-1
2.177473278E1;-3.907705069E0;3.583335280E-1;-2.603263557E-1
2.178502178E1;-4.125173092E0;6.753726006E-1;1.575054973E-1
2.180475178E1;-3.572340012E0;1.163453937E0;5.203594565E-1
2.182479878E1;-2.607783794E0;6.002361774E-1;6.773518324E-1
2.184480578E1;-1.932777643E0;-5.255884528E-1;6.327586174E-1
2.186469178E1;-1.794722080E0;-1.512135863E0;4.647707045E-1
2.188523078E1;-2.176512957E0;-1.578720093E0;4.983682930E-1
2.190478878E1;-2.803871393E0;-3.997502327E-1;5.887763500E-1
2.192465478E1;-3.392134666E0;9.166643620E-1;5.130290389E-1
2.193471978E1;-3.492316484E0;1.491488576E0;4.488882124E-1
2.194499678E1;-3.403130293E0;1.897713900E0;3.957429230E-1
2.196490778E1;-2.891836166E0;1.882442355E0;3.267151415E-1
2.198492378E1;-2.486832380E0;2.569299042E-1;-1.155512631E-1
2.200466878E1;-3.074484825E0;-9.187413752E-2;-4.215947688E-1
2.201470878E1;-3.406795502E0;-1.857030392E-2;-4.533597529E-1
2.202474778E1;-3.669467449E0;-3.200934082E-2;-4.209839106E-1
2.203505578E1;-3.861279249E0;-1.755626649E-1;-3.824993968E-1
2.205475878E1;-3.976732731E0;-1.032606602E0;-4.735183120E-1
2.206492378E1;-3.970623970E0;-1.813292384E0;-5.553742647E-1
2.208470578E1;-4.299269676E0;-3.241495371E0;-4.258708358E-1
2.210481978E1;-4.666399479E0;-4.046615601E0;7.748214900E-2
2.212469278E1;-4.312097549E0;-4.685580730E0;5.209702849E-1
2.213497378E1;-4.137390137E0;-4.677639484E0;7.530990839E-1
2.215480978E1;-3.952908993E0;-3.702087641E0;1.149550676E0
2.217546378E1;-3.183218718E0;-2.849930763E0;8.337333202E-1
2.219501578E1;-2.525927782E0;-2.756468296E0;6.987320781E-1
2.221477478E1;-2.117869854E0;-2.488298416E0;5.973284841E-1
2.222513278E1;-1.996918440E0;-2.168816090E0;4.268970490E-1
2.224475978E1;-1.705535769E0;-1.645915270E0;2.289767265E-1
2.226484478E1;-1.232726097E0;-1.182268620E0;2.668503523E-1
2.227484478E1;-9.566149712E-1;-1.021000147E0;2.308093309E-1
2.229496478E1;-2.351831198E-1;-9.257051945E-1;3.105638921E-2
2.231472178E1;2.492330223E-1;-7.528303266E-1;-8.867319673E-2
2.232491178E1;1.954768747E-1;-6.001140475E-1;-7.034724206E-2
2.234514478E1;3.194825351E-1;-9.676104784E-2;-3.360736370E-1
2.235517878E1;5.876523852E-1;1.396438032E-1;-5.498764515E-1
2.237479078E1;5.992588401E-1;-1.541823894E-1;-7.923899889E-1
2.238493178E1;-1.649336144E-2;-1.048489094E0;-4.894008040E-1
2.240470978E1;4.911356568E-1;-3.276925564E0;-5.541525483E-1
2.242470978E1;2.113593817E0;-2.645901680E0;-1.744728804E0
2.243472778E1;2.357939959E0;-8.640078306E-1;-1.981744528E0
2.245469778E1;2.656042099E0;2.194594383E0;-1.489387155E0
2.246476078E1;2.266309977E0;1.555629373E0;-6.977058649E-1
2.248480878E1;2.031737804E0;1.832351327E0;-8.058289886E-1
2.249490078E1;2.125200272E0;2.254459381E0;-8.644720912E-1
2.250492878E1;2.079385281E0;2.046154261E0;-7.111449242E-1
2.251515478E1;2.171625853E0;1.872668505E0;-5.669807196E-1
2.253468078E1;2.421469927E0;2.525683403E0;-6.824342012E-1
2.254488178E1;2.389093876E0;2.674734592E0;-8.375939727E-1
2.255493278E1;2.310903311E0;2.757201433E0;-9.218934178E-1
2.256493578E1;2.264477491E0;2.959397793E0;-6.836559772E-1
2.258477278E1;2.428189278E0;3.502456903E0;-3.953275681E-1
2.259477278E1;2.346944332E0;3.706485987E0;-2.481090277E-1
2.260590278E1;2.257147074E0;3.961216688E0;-1.088317484E-1
2.262472778E1;2.225382090E0;4.238549709E0;1.776640564E-1
2.263517578E1;2.340224743E0;4.130426407E0;2.534113228E-1
2.265481978E1;2.545475483E0;3.743748665E0;3.493171632E-1
2.266532978E1;2.585792542E0;3.441981316E0;3.871908188E-1
2.267614378E1;2.584570885E0;3.184807062E0;4.482773542E-1
2.269481578E1;2.484999895E0;2.942293644E0;5.386853814E-1
2.271477578E1;2.501493216E0;2.767585993E0;6.529172063E-1
2.273477778E1;2.572353601E0;2.944736958E0;7.402709126E-1
2.275479778E1;2.469728231E0;3.201911211E0;7.775337100E-1
2.277473178E1;2.316401005E0;3.243450165E0;6.352021098E-1
2.278486978E1;2.257757902E0;3.201911211E0;5.594547987E-1
2.280474078E1;2.118480682E0;2.725436449E0;4.317839742E-1
2.281475578E1;2.011579275E0;2.271563530E0;3.658105433E-1
2.282484278E1;1.865582466E0;1.741332412E0;2.931175530E-1
2.284464578E1;1.651168823E0;8.897863030E-1;2.448592335E-1
2.285467778E1;1.655444860E0;5.098281503E-1;2.356962562E-1
2.286480978E1;1.715309620E0;1.286482215E-1;1.507859826E-1
2.288483478E1;1.696372747E0;-4.425107837E-1;-1.522031873E-1
2.289536678E1;1.564425945E0;-4.052480161E-1;-1.405967474E-1
2.291533278E1;1.329242826E0;-8.210028708E-2;-1.821355820E-1
2.293490278E1;1.167974353E0;4.984660447E-2;-6.402845383E-1
2.294518078E1;1.068403363E0;9.138543904E-2;-8.369831443E-1
2.296470478E1;6.572909951E-1;1.720196605E-1;-9.347215891E-1
2.298470378E1;2.357939929E-1;9.932668507E-2;-7.728422880E-1
2.300478478E1;-4.056145251E-1;2.899166346E-1;-4.796269536E-1
2.302491178E1;-1.157589674E0;7.688350081E-1;-1.943528801E-1
2.304481978E1;-1.431257248E0;1.017457128E0;2.008769363E-1
2.306498578E1;-9.590584040E-1;1.360763431E0;4.097928405E-1
2.308531378E1;3.359758481E-2;2.063869238E0;-5.079955235E-2
2.310474478E1;5.424483418E-1;1.990565538E0;-5.541525483E-1
2.312481478E1;4.654793143E-1;9.960768223E-1;-7.209187150E-1
2.314511678E1;3.506366611E-1;-4.178318381E-2;-3.091955781E-1
2.316481478E1;7.611380816E-1;2.874731719E-1;4.928705096E-1
2.318476078E1;9.834930897E-1;7.022506595E-1;7.311079502E-1
2.320481178E1;3.371976316E-1;-3.221703470E-1;8.209051490E-1
2.322483078E1;6.188064814E-1;1.099313140E0;5.875546336E-1
2.324483478E1;1.100168347E0;2.215363979E0;5.246354938E-1
2.325489078E1;1.505782843E0;3.026592970E0;4.140688777E-1
2.326508178E1;1.864971638E0;3.303925753E0;1.660576165E-1
2.328479678E1;2.564412355E0;2.095023394E0;-4.160969853E-1
2.330519178E1;3.166725397E0;8.307768032E-3;-3.116390109E-1
2.332470678E1;2.711019993E0;-1.834672689E0;1.709445268E-1
2.333506178E1;2.204612732E0;-1.431501627E0;4.207884073E-1
2.335505178E1;8.637634516E-1;1.705902219E0;8.819916844E-1
2.337483578E1;2.272418588E-1;1.800586343E0;8.764938712E-1
2.339495578E1;-5.222898126E-1;7.566176653E-1;5.423505902E-1
2.341583178E1;-1.530217409E0;3.510031700E-1;-2.331062034E-2
2.343477178E1;-2.428189278E0;2.899166346E-1;-7.279069722E-2
2.345478978E1;-2.949868202E0;1.378111988E-1;-8.012108505E-2
2.346486778E1;-3.040276289E0;2.984687388E-1;-1.350989491E-1
2.348479978E1;-2.974913836E0;1.002185464E0;-1.546466500E-1
2.350482278E1;-2.798984528E0;1.602666020E0;-8.989492804E-2
2.352469178E1;-2.724458933E0;1.697350144E0;8.725599200E-2
2.353497078E1;-2.748893499E0;1.394361019E0;2.344745249E-1
2.355538778E1;-2.744006634E0;-1.981646866E-1;8.227377534E-1
2.357475578E1;-2.688417912E0;-8.988271356E-1;9.687345028E-1
2.358478278E1;-2.706133127E0;-1.097358346E0;9.980560541E-1
2.360472378E1;-2.767830372E0;-1.257405043E0;1.128170371E0
2.362466078E1;-2.676811457E0;-1.546955109E0;1.213691592E0
2.363479478E1;-2.463008642E0;-1.668517351E0;1.123283505E0
2.365474078E1;-1.661553502E0;-1.179214239E0;6.822387576E-1
2.367479278E1;-1.099557400E0;6.265034080E-1;2.301984578E-1
2.368490778E1;-9.731083512E-1;1.922759414E0;2.479135543E-1
2.370468778E1;-9.217956662E-1;3.893410683E0;3.633670807E-1
2.371472278E1;-9.755517840E-1;4.325903416E0;3.493171632E-1
2.372485478E1;-1.086729288E0;4.226332188E0;2.778459489E-1
2.374469178E1;-3.284011602E0;1.443230271E0;-9.417098016E-2
2.375477378E1;-3.872885704E0;-2.320310593E0;6.648657471E-2
2.377470578E1;-3.999334812E0;-3.115657091E0;6.602475643E-1
2.378492478E1;-3.671300173E0;-2.452257395E0;8.740504384E-1
2.380582278E1;-2.835636377E0;-4.846605062E-1;9.876713753E-1
2.382479678E1;-2.657874584E0;1.714087874E-1;1.046925306E0
2.383485878E1;-2.858238459E0;-3.734830320E-1;1.127559543E0
2.385471778E1;-3.499036074E0;-1.888428807E0;1.138555169E0
2.386472578E1;-3.715282440E0;-2.180422306E0;1.048147082E0
2.387477978E1;-3.753767014E0;-2.168205023E0;9.510194659E-1
2.388485578E1;-3.590054989E0;-2.098566532E0;9.131457806E-1
2.390465078E1;-3.073262930E0;-2.034425735E0;1.159935355E0
2.391485478E1;-3.010344028E0;-1.994719386E0;1.353579640E0
2.392487978E1;-3.028059006E0;-1.880487561E0;1.483693957E0
2.393492478E1;-3.002402782E0;-1.743653774E0;1.457426786E0
2.395474578E1;-2.404365540E0;-8.603426218E-1;1.136111617E0
2.396537778E1;-2.167349815E0;-8.597317338E-1;1.079912066E0
2.398485978E1;-1.966986060E0;-6.911329627E-1;1.021268964E0
2.400491178E1;-1.678657651E0;-5.933945179E-1;8.813807964E-1
2.401515378E1;-1.521665335E0;-5.616295338E-1;7.928053141E-1
2.403486978E1;-1.368338108E0;-6.630331278E-1;6.828495860E-1
2.405479178E1;-1.185078621E0;-5.842315555E-1;5.936632752E-1
2.407470778E1;-9.040805697E-1;-5.255884528E-1;5.283007026E-1
2.408483678E1;-8.032878041E-1;-4.192979038E-1;4.989791512E-1
2.410473078E1;-7.312057018E-1;-6.743952632E-2;4.696576297E-1
2.412470578E1;-6.615670323E-1;-9.407324716E-3;5.124182105E-1
2.413563678E1;-5.729916096E-1;-6.010913849E-2;4.299513698E-1
2.415522478E1;-3.158173263E-1;-7.241196632E-1;9.065240622E-3
2.417470878E1;-6.963863969E-2;-1.176159978E0;-4.191513062E-1
2.418501978E1;1.857030243E-1;-1.082086682E0;-7.264165282E-1
2.419502078E1;4.373795390E-1;-9.299812317E-1;-9.787038565E-1
2.421477078E1;1.221730560E-2;-8.389623165E-1;-8.913501501E-1
2.423476178E1;1.295034289E-1;-1.974560857E0;-5.303288102E-1
2.425475778E1;1.299921274E0;-2.363682032E0;-1.102098584E0
2.427476578E1;2.123367548E0;-1.370781660E-1;-2.033668280E0
2.429470478E1;2.626109600E0;1.382754564E0;-1.408142090E0
2.430504978E1;2.207667112E0;1.058385134E0;-8.021638393E-1
2.432477678E1;2.045176744E0;7.621154785E-1;-9.054000378E-1
2.433495078E1;2.105041742E0;1.577620625E0;-9.554910064E-1
2.434537178E1;2.106874228E0;1.312505007E0;-7.258056402E-1
2.436492378E1;2.095267773E0;1.824410081E0;-7.441316247E-1
2.438488878E1;2.213775635E0;2.611815453E0;-9.628213644E-1
2.440487178E1;2.356107235E0;3.138381243E0;-9.341107011E-1
2.442474778E1;2.481945515E0;3.167702913E0;-8.217114806E-1
2.443495378E1;2.507601738E0;3.209241629E0;-7.178643942E-1
2.445477778E1;2.397035122E0;3.590421438E0;-3.360736370E-1
2.446543278E1;2.317011833E0;3.749857426E0;-9.111665934E-2
2.448488178E1;2.395813465E0;3.415103197E0;2.014877945E-1
2.450494878E1;2.469728231E0;3.151209354E0;2.906741202E-1
2.452469578E1;2.450180531E0;3.142046452E0;3.963537812E-1
2.453485178E1;2.441017628E0;3.074240446E0;5.502918363E-1
2.455477278E1;2.558303595E0;2.926410913E0;8.068552613E-1
2.457467978E1;2.728124142E0;2.928854465E0;8.154073358E-1
2.458499978E1;2.688417912E0;2.931298018E0;7.023972869E-1
2.460479978E1;2.367102861E0;2.917858839E0;4.128471613E-1
2.461533478E1;2.165517330E0;2.895867825E0;3.157195747E-1
2.464041278E1;1.880854130E0;2.898311138E0;3.542040884E-1
2.465472578E1;1.868636847E0;2.754147053E0;3.261042833E-1
2.466514978E1;1.898569226E0;2.493918419E0;2.198137492E-1
2.468473578E1;1.894904017E0;1.909931302E0;-9.966877103E-2
2.469605778E1;1.816102386E0;1.609996438E0;-2.755979896E-1
2.471479178E1;1.576032400E0;1.002185464E0;-4.869573414E-1
2.472503978E1;1.491122127E0;4.798957109E-1;-5.248309970E-1
2.474473178E1;1.441031098E0;2.166128159E-1;-5.327722430E-1
2.475478478E1;1.357953429E0;2.233323306E-1;-5.034506917E-1
2.476478878E1;1.257771492E0;1.958433986E-1;-5.107811093E-1
2.478472178E1;1.050077319E0;1.624901593E-2;-7.722314000E-1
2.480474578E1;8.210029006E-1;8.588765562E-2;-8.974587917E-1
2.482466178E1;7.672467828E-1;6.405532956E-1;-2.542176843E-1
2.483482078E1;6.487389207E-1;9.142209291E-1;1.544511765E-1
2.485475378E1;-1.221730560E-2;9.062796831E-1;1.440664679E-1
2.487466878E1;-6.035348773E-1;1.154290915E0;-2.438329607E-1
2.488480978E1;-6.554583907E-1;1.577620625E0;-2.548285723E-1
2.490472078E1;-4.269948006E-1;1.994230747E0;-6.546031684E-2
2.491481178E1;-2.364048511E-1;1.760269284E0;-9.260716848E-3
2.492543278E1;3.017674387E-1;1.630154967E0;-1.344880909E-1
2.494478878E1;9.902125597E-1;2.034547806E0;-2.872044146E-1
2.496466978E1;1.109331250E0;1.288070440E0;5.488013104E-2
2.497497978E1;5.925393105E-1;-7.904596627E-2;2.674612403E-1
2.498509878E1;3.335324228E-1;-7.235088348E-1;3.584801555E-1
2.500470978E1;8.497135639E-1;3.772703707E-1;2.760133445E-1
2.501490978E1;7.568620443E-1;2.019520551E-1;6.465397775E-2
2.503522178E1;8.136725426E-1;8.818450570E-1;-5.932478905E-1
2.505474878E1;1.705535769E0;2.159164190E0;-2.755979896E-1
2.506486078E1;2.150856495E0;1.876944542E0;2.876197696E-1
2.508586278E1;2.709187269E0;7.095810771E-1;4.513316751E-1
2.510471578E1;2.819753885E0;1.219287068E-1;-1.723617315E-1
2.511471678E1;2.595566511E0;-3.056769669E-1;-1.723617315E-1
2.512489878E1;1.607797384E0;-4.431216717E-1;1.044481874E0
2.513494078E1;1.029918790E0;3.839898705E-1;1.006608248E0
2.514503178E1;6.646214128E-1;1.386419773E0;9.418564439E-1
2.516493678E1;1.600466967E-1;1.997895956E0;1.059142590E0
2.517562178E1;-1.417207420E-1;1.679024220E0;8.990958929E-1
2.519477378E1;-9.321803451E-1;2.807536423E-1;1.611706913E-1
2.520477678E1;-1.423316002E0;-5.494121909E-1;-1.906876862E-1
2.521479078E1;-1.889406204E0;-1.116295218E0;-3.562321961E-1
2.522504278E1;-2.258368731E0;-1.247631192E0;-3.715038300E-1
2.524480678E1;-2.634050846E0;-4.089131951E-1;-2.169549018E-1
2.526477278E1;-2.804482222E0;7.150788307E-1;-1.137186736E-1
2.528484478E1;-2.998126507E0;1.447506309E0;-1.662530750E-1
2.530473578E1;-3.119688749E0;1.838460088E0;-1.326554865E-1
2.531480178E1;-3.076928139E0;1.960633039E0;1.123991795E-3
2.533478578E1;-2.851518869E0;1.626489758E0;1.465099305E-1
2.534515378E1;-2.725680828E0;1.204992771E0;1.758314520E-1
2.536501478E1;-2.494162798E0;-4.480085969E-1;2.338636518E-1
2.538478078E1;-2.324342251E0;-2.298319340E0;3.517606258E-1
2.540495078E1;-2.249205828E0;-2.716762066E0;5.735046864E-1
2.541496678E1;-2.321287870E0;-2.375288486E0;6.669670939E-1
2.543481078E1;-2.833193064E0;-6.294355392E-1;6.785735488E-1
2.544486678E1;-3.179553509E0;5.519778132E-1;6.804061532E-1
2.546483078E1;-3.519805431E0;2.097466946E0;6.199304461E-1
2.548496378E1;-3.553403139E0;1.996063232E0;6.290934682E-1
2.550486878E1;-3.634648085E0;6.527705789E-1;5.405179858E-1
2.552523578E1;-4.241848469E0;-6.111096144E-1;2.937284410E-1
2.554465978E1;-4.562552452E0;-7.852061987E-1;5.182580650E-2
2.555470878E1;-4.599815369E0;-1.308106899E0;-2.941926941E-2
2.557474478E1;-4.884478569E0;-2.416216373E0;1.123991795E-3
2.559484578E1;-4.940067291E0;-3.290975332E0;2.613525689E-1
2.561469578E1;-4.397007942E0;-3.976366282E0;7.225558162E-1
2.562470978E1;-4.048814774E0;-4.190168858E0;9.198653102E-1
2.563488978E1;-3.784310102E0;-4.143132687E0;1.100070596E0
2.565469578E1;-3.422067165E0;-3.590299368E0;1.142220259E0
2.566476078E1;-3.221092463E0;-3.256767035E0;1.064029574E0
2.567482178E1;-2.960863829E0;-3.011199236E0;9.742323160E-1
2.569473178E1;-2.431243658E0;-2.970271111E0;1.009051681E0
2.570473178E1;-2.070222378E0;-2.696603537E0;1.010273337E0
2.571478078E1;-1.783115625E0;-1.603154778E0;8.942089677E-1
2.573481678E1;-1.391551018E0;-1.165164351E0;8.080769777E-1
2.575548678E1;-1.224784851E0;-1.455325365E0;7.610403299E-1
2.577470578E1;-5.326744914E-1;-1.159666538E0;7.042298913E-1
2.579481578E1;-1.044579595E-1;-4.113566577E-1;7.378274798E-1
2.580503278E1;7.819074392E-2;-8.332201838E-2;6.767409444E-1
2.582478978E1;4.037819505E-1;6.533814669E-1;4.275079072E-1
2.584490478E1;5.369505882E-1;4.120896757E-1;-1.088317484E-1
2.586482078E1;7.470881939E-1;-3.288898468E-1;-8.461461067E-1
2.588472778E1;1.094059706E0;-1.187155485E0;-1.333616495E0
2.590520578E1;2.076941729E-1;-1.376523733E0;-2.646023929E-1
2.592481078E1;1.766622305E0;-3.652607679E0;-1.132030964E0
2.593505678E1;2.469728231E0;-2.125444651E0;-2.139347792E0
2.595476578E1;1.950492740E0;2.160996914E0;-2.061157227E0
2.596480378E1;1.863139033E0;9.820269346E-1;-1.046509862E0
2.597485378E1;2.116648197E0;-2.036624700E-1;-5.089485049E-1
2.598493678E1;1.993253231E0;6.185621619E-1;-8.180463314E-1
2.599541478E1;1.959655762E0;1.498208046E0;-1.044066429E0
2.601531578E1;2.056172371E0;1.245309830E0;-4.808486998E-1
2.603473678E1;2.318233728E0;2.195816278E0;-5.486547351E-1
2.604474078E1;2.298686028E0;2.506135702E0;-7.551271915E-1
2.606473678E1;2.288912058E0;2.869600534E0;-9.854233861E-1
2.608476678E1;2.414139509E0;2.971615076E0;-9.787038565E-1
2.610481178E1;2.495384455E0;3.006434441E0;-7.007601857E-1
2.612492578E1;2.419637203E0;3.138381243E0;-3.727255464E-1
2.614476178E1;2.380541801E0;3.206187248E0;-1.754160672E-1
2.616482578E1;2.354274750E0;3.387003422E0;-1.964542642E-2
2.618496278E1;2.640770435E0;3.110281467E0;9.092118591E-2
2.620469178E1;2.835025549E0;2.751092672E0;2.124833763E-1
2.621479878E1;2.867401361E0;2.699779987E0;3.096109331E-1
2.623481678E1;2.748893499E0;2.868989706E0;4.684358835E-1
2.625494878E1;2.622444391E0;3.107227087E0;4.140688777E-1
2.627470678E1;2.594344616E0;3.247115374E0;3.193847835E-1
2.628483878E1;2.588846922E0;3.244060993E0;3.554258347E-1
2.630507578E1;2.381152630E0;2.917858839E0;4.091819525E-1
2.632502578E1;2.192395449E0;2.356473684E0;1.239079088E-1
2.634475278E1;1.706146598E0;1.851288199E0;-2.346699834E-1
2.636478178E1;1.331686258E0;1.402913094E0;-3.751690090E-1
2.638485678E1;1.300532103E0;1.063271999E0;-2.670458555E-1
2.639492878E1;1.421483397E0;1.012570262E0;-2.334482521E-1
2.641477078E1;1.534493566E0;1.245309830E0;-3.464583457E-1
2.642479178E1;1.477072120E0;1.465832233E0;-5.193331838E-1
2.643547878E1;1.343292713E0;1.711400032E0;-7.575706840E-1
2.645469578E1;9.199630618E-1;1.727893472E0;-1.042844653E0
2.646496278E1;7.470881939E-1;1.424293399E0;-9.218934178E-1
2.648476178E1;3.359758854E-1;6.998072267E-1;-3.666169047E-1
2.650473278E1;-6.401867867E-1;6.252816319E-1;-3.531778753E-1
2.651482478E1;-1.031751394E0;9.563705921E-1;-4.509162903E-1
2.652533778E1;-1.466687441E0;1.336328745E0;-4.826813042E-1
2.654490278E1;-1.854586840E0;2.000339270E0;-3.873863220E-1
2.656474978E1;-1.249219418E0;2.313102245E0;-1.167729944E-1
2.658470678E1;-2.229658216E-1;2.047375917E0;5.426926911E-2
2.659473478E1;2.211332172E-1;1.956357002E0;1.251296401E-1
2.660487878E1;5.821545720E-1;1.854953408E0;1.739988625E-1
2.662486878E1;1.061683774E0;1.523253560E0;3.444302380E-1
2.663495178E1;1.189354658E0;1.363206863E0;5.093638897E-1
2.664506178E1;1.181413412E0;1.092593551E0;6.364238262E-1
2.666472478E1;5.992588401E-1;-1.315803677E-1;5.270789266E-1
2.667497278E1;3.005457222E-1;-5.359731913E-1;2.387505770E-1
2.669474878E1;4.758640528E-1;1.567480266E-1;-6.665517092E-1
2.670509778E1;8.142833710E-1;5.250997543E-1;-7.007601857E-1
2.672493678E1;2.399478674E0;1.086484909E0;3.700865805E-1
2.673559678E1;2.994461536E0;1.255083680E0;8.935980797E-1
2.675475878E1;3.346930742E0;1.550742507E0;8.661091924E-1
2.677477178E1;2.687196255E0;-1.511280537E-1;6.150435805E-1
2.679472078E1;2.031737804E0;-1.088806272E0;4.543859959E-1
2.681477678E1;1.604132175E0;-2.171014994E-1;9.192544222E-1
2.683475778E1;4.667010307E-1;1.307007313E0;1.355412245E0
2.685471878E1;-6.743952036E-1;1.462167025E0;8.923763633E-1
2.686477878E1;-1.130711555E0;9.447641969E-1;4.287296534E-1
2.688499878E1;-1.784948230E0;-4.932126105E-1;-4.521380365E-1
2.690472278E1;-2.098322153E0;-2.061059326E-1;-5.956913829E-1
2.692504978E1;-2.472171545E0;5.849645734E-1;-4.448076487E-1
2.693551278E1;-2.612059832E0;9.093340039E-1;-3.434040248E-1
2.695470178E1;-2.753169537E0;1.337550521E0;-1.475850400E-2
2.696496778E1;-2.777604342E0;1.373591542E0;2.326419204E-1
2.698493578E1;-2.681698322E0;7.718893290E-1;5.337984562E-1
2.700476578E1;-2.445904493E0;1.555262953E-1;5.002009273E-1
2.701504478E1;-2.361604929E0;-8.796459064E-3;4.556077123E-1
2.703476178E1;-2.329229116E0;1.588249579E-3;4.690467715E-1
2.704482378E1;-2.401311159E0;-9.004153311E-2;4.049059153E-1
2.705486778E1;-2.607172966E0;-3.038443923E-1;2.595199943E-1
2.707476778E1;-3.174055815E0;-3.924198449E-1;2.922379225E-2
2.708502478E1;-3.420234442E0;2.282192558E-1;-1.842369512E-2
2.710480678E1;-3.141069174E0;6.002361774E-1;-9.966877103E-2
2.712482578E1;-2.750115395E0;6.106209159E-1;-1.039448306E-1
2.714470778E1;-2.832582235E0;5.354844332E-1;3.044552356E-2
2.715483578E1;-3.112358332E0;4.572937191E-1;1.257404983E-1
2.717494578E1;-3.904650688E0;-2.773328125E-2;1.526185721E-1
2.719470578E1;-4.423274994E0;-5.194798112E-1;-4.896695912E-2
2.721471478E1;-4.610810757E0;-1.472429633E0;-1.980180740E-1
2.722482978E1;-4.603480339E0;-1.980058670E0;-1.845790446E-1
2.723580778E1;-4.491081238E0;-2.379564524E0;-1.198273301E-1
2.725472778E1;-4.313930511E0;-3.089389801E0;7.137349993E-2
2.726477278E1;-4.257119656E0;-3.278147221E0;1.990443319E-1
2.728539078E1;-3.894876719E0;-2.887804270E0;6.999537945E-1
2.730498778E1;-3.404962778E0;-2.461420536E0;8.691635132E-1
2.732469578E1;-2.885727406E0;-2.579928398E0;8.319007158E-1
2.733475978E1;-2.699413538E0;-2.794342041E0;8.734395504E-1
2.734486378E1;-2.501493216E0;-2.796785355E0;9.455216527E-1
2.736487178E1;-2.124589205E0;-2.187752724E0;9.076480269E-1
2.738513378E1;-1.764789701E0;-1.644082785E0;5.509027243E-1
2.740476478E1;-1.396437883E0;-1.033217430E0;3.957429230E-1
2.742490978E1;-7.458664775E-1;-1.108109504E-1;5.838894248E-1
2.744473978E1;-4.764748812E-1;1.976760030E-1;6.174870133E-1
2.746481878E1;-1.050688177E-1;7.132462263E-1;3.749735057E-1
2.748480178E1;3.298671916E-2;6.084217504E-2;-1.589227021E-1
2.750482178E1;4.660902023E-1;-7.784866691E-1;-6.005783081E-1
2.752472078E1;9.395107627E-1;-9.464746118E-1;-8.369831443E-1
2.753493878E1;9.987646341E-1;-8.945510983E-1;-7.294708490E-1
2.755471978E1;1.054964304E0;-2.007547379E0;-7.105340362E-1
2.756502878E1;1.491122127E0;-2.462642193E0;-1.196171880E0
2.758477978E1;1.949881911E0;-2.824640870E-1;-1.527260780E0
2.760476878E1;2.573575258E0;9.459859133E-1;-1.460676551E0
2.762469678E1;2.267531872E0;1.927646399E0;-1.037957788E0
2.763480578E1;2.455678225E0;2.419392824E0;-7.850595713E-1
2.764644678E1;2.186286688E0;2.231246471E0;-5.510982275E-1
2.766471378E1;2.075109243E0;1.972239494E0;-4.979529381E-1
2.767480378E1;2.150245667E0;1.939863682E0;-3.415714204E-1
2.769472278E1;2.171625853E0;2.434053659E0;-2.291722000E-1
2.770512478E1;2.285246849E0;2.738875389E0;-2.981999815E-1
2.772471878E1;2.408030748E0;2.939850092E0;-1.815247089E-1
2.773490978E1;2.408030748E0;2.945958614E0;2.372600511E-2
2.775473878E1;2.467895508E0;3.007656097E0;4.666033089E-1
2.777469978E1;2.491719246E0;2.894035101E0;6.046588421E-1
2.778475078E1;2.427578449E0;2.944736958E0;5.893872380E-1
2.780479578E1;2.342668295E0;3.391890287E0;6.016045213E-1
2.782465278E1;2.442850113E0;3.522615433E0;6.657453775E-1
2.783469678E1;2.500271559E0;3.497570038E0;7.030081749E-1
2.784553078E1;2.598620653E0;3.269717216E0;6.523063183E-1
2.786487178E1;2.546086311E0;3.102951050E0;6.284825802E-1
2.788471878E1;2.475836754E0;2.899533033E0;6.907908320E-1
2.790468078E1;2.421469927E0;2.661906481E0;8.202942610E-1
2.791484778E1;2.305405378E0;2.548896313E0;8.618330956E-1
2.793485578E1;2.001805305E0;2.397401810E0;8.190725446E-1
2.795476278E1;1.862528086E0;2.341813087E0;8.502267003E-1
2.796500378E1;1.861306429E0;2.247128963E0;7.830315232E-1
2.798483178E1;1.828930497E0;1.738278151E0;4.421686828E-1
2.799499878E1;1.771509171E0;1.261803269E0;1.990443319E-1
2.801491178E1;1.523497939E0;3.827681541E-1;-2.114571035E-1
2.802491178E1;1.326188445E0;1.738522500E-1;-2.487198859E-1
2.804472478E1;1.231504321E0;1.530828327E-1;-1.842369512E-2
2.806483078E1;1.363451242E0;1.433089972E-1;-3.324084580E-1
2.808499278E1;1.149648428E0;3.192381561E-1;-7.013710737E-1
2.810469778E1;9.944885969E-1;6.497162580E-1;-6.005783081E-1
2.811469778E1;9.089674950E-1;8.977275491E-1;-3.360736370E-1
2.812490378E1;8.075638413E-1;1.229427338E0;-5.141041800E-2
2.813492578E1;6.243042946E-1;1.458501816E0;1.636141539E-1
2.815491978E1;6.108652800E-3;1.371758938E0;1.336817443E-1
2.817479478E1;-6.719517708E-1;1.471940875E0;-1.418184787E-1
2.819468178E1;-9.156869650E-1;1.731558561E0;-1.118860766E-1
2.820524678E1;-8.814785480E-1;1.636874557E0;-9.844703972E-2
2.822467778E1;-6.273586154E-1;8.158715963E-1;-1.265468448E-1
2.823481178E1;-4.129448831E-1;3.473379612E-1;-1.100534797E-1
2.825476578E1;3.347541690E-1;1.259359837E0;3.138870001E-1
2.827468778E1;8.466592431E-1;2.104186296E0;3.700865805E-1
2.828483478E1;1.031140566E0;2.000950098E0;4.397252202E-1
2.830491778E1;1.350012183E0;1.079154491E0;7.195014954E-1
2.831533678E1;1.633453727E0;6.582683921E-1;8.679417372E-1
2.833488978E1;2.411695957E0;5.538104177E-1;9.235305190E-1
2.835486378E1;2.576629639E0;2.776993215E-1;2.894523740E-1
2.837475078E1;1.958433986E0;-9.476963282E-1;-3.537887335E-1
2.838475678E1;1.750739813E0;-9.586919546E-1;-4.344229400E-1
2.840481778E1;1.267545342E0;-7.900931239E-1;1.813292354E-1
2.842497178E1;1.357342601E0;1.512257934E0;1.104957581E0
2.843501778E1;1.067792416E0;2.200703144E0;1.330977678E0
2.844511678E1;3.402519524E-1;2.184820652E0;1.238736987E0
2.846488778E1;-2.351831198E-1;9.936333895E-1;5.936632752E-1
2.848484178E1;-1.195463300E0;-5.280319452E-1;-2.316156626E-1
2.850481778E1;-2.059837580E0;-1.055819511E0;-4.454185069E-1
2.851492278E1;-2.298074961E0;-8.004778028E-1;-4.338120818E-1
2.853510378E1;-2.458121777E0;2.233323306E-1;-3.861645758E-1
2.855472978E1;-2.462397814E0;1.145128012E0;-4.435859323E-1
2.856493478E1;-2.489275932E0;1.442619324E0;-4.466402531E-1
2.858663278E1;-2.540588617E0;1.789590836E0;-2.701001763E-1
2.860468278E1;-2.494773626E0;1.784703851E0;1.593380868E-1
2.861473978E1;-2.408641577E0;1.540968657E0;3.664214015E-1
2.863480678E1;-2.220495224E0;2.636494339E-1;4.494990706E-1
2.865498078E1;-2.070222378E0;-1.117516875E0;5.243667215E-2
2.867622578E1;-2.092213392E0;-7.992560863E-1;7.809301466E-2
2.869473178E1;-2.464841366E0;-4.913800061E-1;7.076263428E-2
2.870474378E1;-2.796540976E0;-2.873510122E-1;-9.260716848E-3
2.871481478E1;-3.081204176E0;4.984660447E-2;-1.228816509E-1
2.873524878E1;-3.257133484E0;8.018217087E-1;-1.693074107E-1
2.875477078E1;-3.090978146E0;1.207436204E0;1.043602228E-1
2.876477978E1;-2.988352776E0;1.151847482E0;2.399723083E-1
2.878477178E1;-3.035389423E0;6.173403859E-1;3.474845886E-1
2.879480078E1;-3.269350767E0;3.852116168E-1;2.894523740E-1
2.881476678E1;-3.963904619E0;4.438546896E-1;4.388456047E-2
2.882484078E1;-4.165490150E0;4.505741894E-1;-1.137186736E-1
2.884478978E1;-4.382957935E0;-9.782395959E-1;-4.368664026E-1
2.886465878E1;-4.684725761E0;-2.383840561E0;-3.299649954E-1
2.887469178E1;-4.825835228E0;-2.584204435E0;-1.693074107E-1
2.888482678E1;-4.771468639E0;-2.630630016E0;-2.086715773E-2
2.890466878E1;-4.235128880E0;-2.874976158E0;1.837726980E-1
2.891469578E1;-4.028656483E0;-3.312966585E0;2.735698819E-1
2.892533178E1;-3.923587561E0;-3.823039055E0;4.488882124E-1
2.894468878E1;-3.626706839E0;-3.644055605E0;9.119240642E-1
2.895473678E1;-3.390913010E0;-3.427809238E0;9.980560541E-1
2.896518078E1;-3.147788525E0;-3.358170509E0;1.053033948E0
2.898472678E1;-2.561968803E0;-2.780292034E0;1.107401013E0
2.900473178E1;-1.885130167E0;-1.652634859E0;7.042298913E-1
2.901479378E1;-1.747685432E0;-1.355754375E0;5.912197828E-1
2.903472478E1;-1.449583173E0;-1.018556714E0;7.622620463E-1
2.905496778E1;-7.336491346E-1;-6.104987264E-1;7.078950405E-1
2.907469978E1;-4.129448831E-1;-2.781880498E-1;5.319658518E-1
2.908484478E1;-2.773328125E-1;-8.881980181E-2;3.309912086E-1
2.910476078E1;3.359758481E-2;6.878343225E-2;-6.729291379E-2
2.911489178E1;1.075122803E-1;-2.773328125E-2;-2.163440287E-1
2.913477378E1;3.249803185E-1;-3.099530339E-1;-5.730893612E-1
2.914488378E1;5.296201706E-1;-5.860641003E-1;-7.997203469E-1
2.916488278E1;7.269296646E-1;-1.060706377E0;-1.022075295E0
2.918567578E1;8.497135639E-1;-1.829785824E0;-6.555561423E-1
2.920491978E1;1.306640744E0;-1.675236821E0;-1.092935562E0
2.922472878E1;1.611462474E0;4.860043824E-1;-1.724570274E0
2.923551578E1;2.646879196E0;3.400075734E-1;-1.287801623E0
2.925476478E1;2.336559534E0;1.762712717E0;-1.028183937E0
2.926492478E1;2.434298038E0;1.728504300E0;-9.768712521E-1
2.928471278E1;2.163684607E0;2.385184526E0;-7.563489079E-1
2.930502978E1;1.900401831E0;2.353419542E0;-5.065050125E-1
2.932467278E1;2.025018215E0;2.115181923E0;-2.242852747E-1
2.933492178E1;2.145969629E0;2.128010273E0;-1.589227021E-1
2.934496678E1;2.269975185E0;2.284391642E0;-1.577009708E-1
2.936491778E1;2.386650562E0;2.697947502E0;-1.943528801E-1
2.938469878E1;2.474004269E0;3.048583984E0;2.861292660E-2
2.939473778E1;2.400700331E0;3.075462103E0;2.130942345E-1
2.940505378E1;2.301129341E0;2.973447561E0;3.737517893E-1
2.941513978E1;2.231490850E0;2.885483027E0;5.020334721E-1
2.943478178E1;2.185675859E0;3.376618624E0;8.141856194E-1
2.944487878E1;2.257757902E0;3.579426050E0;8.569461703E-1
2.946485878E1;2.491108418E0;3.680829525E0;8.740504384E-1
2.948490678E1;2.691472292E0;3.711983681E0;8.068552613E-1
2.950475378E1;2.900999069E0;3.685105562E0;5.521244407E-1
2.952481078E1;2.719572067E0;3.611191034E0;4.488882124E-1
2.953485678E1;2.488054037E0;3.577593327E0;4.708793461E-1
2.955538078E1;2.108706951E0;3.379062176E0;6.364238262E-1
2.957479978E1;1.844202161E0;3.188472271E0;6.981212497E-1
2.958502278E1;1.666440368E0;3.022927761E0;6.999537945E-1
2.960477278E1;1.211345792E0;2.482922792E0;5.820568204E-1
2.961477778E1;1.007927656E0;2.048597574E0;4.305622578E-1
2.963474378E1;7.776314616E-1;9.997420311E-1;9.458637983E-2
2.965495178E1;1.012814641E0;8.965058327E-1;1.104688719E-1
2.967485478E1;1.282206178E0;9.722530842E-1;1.129123345E-1
2.969467678E1;1.302364707E0;1.091982722E0;-6.973637640E-2
2.970488978E1;1.279151797E0;1.090150118E0;-2.139005661E-1
2.971501478E1;1.268767118E0;1.037615657E0;-3.776124716E-1
2.973482478E1;1.152091861E0;8.848993778E-1;-6.146281958E-1
2.975473578E1;8.845328689E-1;4.029267132E-1;-8.388157487E-1
2.977470678E1;5.528330803E-1;1.622458100E-1;-6.561670303E-1
2.978472678E1;3.634648323E-1;3.180164397E-1;-4.063231349E-1
2.980470278E1;-1.069014221E-1;8.934515119E-1;-1.607552916E-1
2.981470578E1;-3.714060485E-1;1.173227787E0;-1.607552916E-1
2.983472178E1;-9.645562172E-1;1.685132861E0;-1.063882858E-1
2.984485978E1;-1.010371089E0;1.729115129E0;5.131270736E-4
2.986490578E1;-7.586946487E-1;1.488434196E0;3.224391043E-1
2.988480178E1;-4.141666293E-1;1.138408422E0;5.985502005E-1
2.990529378E1;2.907718718E-1;1.575177073E0;3.835256100E-1
2.992479578E1;1.127046347E0;2.033326149E0;4.476664662E-1
2.994473578E1;1.461189628E0;1.677802444E0;6.730757356E-1
2.995477878E1;1.276097536E0;9.203295708E-1;7.011755705E-1
2.996508878E1;8.643743396E-1;-1.914451569E-1;6.914017200E-1
2.998475578E1;6.994407177E-1;-3.643200397E-1;3.786387146E-1
2.999489078E1;7.709119320E-1;1.054353416E-1;1.153557971E-1
3.001477078E1;6.774495840E-1;5.092172623E-1;-4.774522781E-2
3.003488578E1;3.083647728E0;2.156110048E0;3.511497676E-1
3.004489878E1;3.337156773E0;2.271563530E0;2.509678602E-1
3.006481478E1;3.031724215E0;5.110498667E-1;4.885944426E-1
3.008489678E1;2.313957453E0;-8.010886908E-1;1.249121785E0
3.010481878E1;1.072679400E0;-9.654114246E-1;1.374349117E0
3.012469878E1;-1.649336144E-2;4.902804494E-1;8.453397751E-1
3.013479778E1;-5.931501389E-1;1.175060391E0;4.323948324E-1
3.014510178E1;-1.214400053E0;1.440786719E0;4.327369481E-2
3.016482378E1;-2.271807909E0;1.049222112E0;-4.716857076E-1
3.018479778E1;-2.780658484E0;3.766595125E-1;-5.975239873E-1
3.020489578E1;-2.777604342E0;-7.721336186E-2;-3.226346076E-1
3.021495678E1;-2.611449003E0;1.500285119E-1;-1.809138507E-1
3.023469978E1;-2.456900120E0;7.694458365E-1;2.800206281E-2
3.024483478E1;-2.397035122E0;1.098091364E0;1.739988625E-1
3.026483778E1;-2.250427485E0;9.484293461E-1;2.900632322E-1
3.028486478E1;-2.317622662E0;-2.708576620E-1;2.155376971E-1
3.030468678E1;-2.594344616E0;-5.878967047E-1;5.131270736E-4
3.031479278E1;-2.690250635E0;-4.186870456E-1;-9.050579369E-2
3.033472578E1;-2.890003443E0;3.213151172E-2;-8.561886847E-2
3.034479678E1;-3.021339417E0;3.778812289E-1;-4.835609347E-2
3.035543178E1;-3.154508114E0;8.696277738E-1;-2.880840749E-2
3.037468478E1;-3.186883926E0;1.694295883E0;-1.137186736E-1
3.038475178E1;-3.021950245E0;1.640539646E0;-2.022941262E-1
3.040487878E1;-2.717128515E0;1.004629016E0;-2.010723948E-1
3.042496578E1;-3.185662270E0;4.102571011E-1;-2.187874913E-1
3.044479778E1;-4.034154415E0;8.344419301E-2;-1.729726046E-1
3.046473378E1;-4.532619953E0;-2.225992978E-1;-4.527488947E-1
3.048503578E1;-4.508796215E0;-6.899112463E-1;-8.156028390E-1
3.050484478E1;-4.489248753E0;-2.159042120E0;-7.276382446E-1
3.051490078E1;-4.615697861E0;-2.969660282E0;-5.199440718E-1
3.052497578E1;-4.791626930E0;-3.558534384E0;-2.707110643E-1
3.053568978E1;-4.946786880E0;-3.786387205E0;-2.636494488E-2
3.055475678E1;-4.795903206E0;-3.529823780E0;3.444302380E-1
3.056485478E1;-4.566217899E0;-3.562810421E0;4.611054957E-1
3.058481978E1;-4.109901428E0;-4.198721409E0;6.920125484E-1
3.059506178E1;-3.934582949E0;-4.126028061E0;8.319007158E-1
3.061471878E1;-3.450777769E0;-3.801047802E0;9.992777705E-1
3.062485278E1;-3.171001434E0;-3.542651892E0;8.270137906E-1
3.063546078E1;-2.805093288E0;-2.958053827E0;5.673960447E-1
3.065476778E1;-2.159408569E0;-2.073520899E0;3.578692973E-1
3.066485778E1;-1.844202161E0;-1.761368871E0;4.696576297E-1
3.067490678E1;-1.616960287E0;-1.541457415E0;5.447940230E-1
3.068519678E1;-1.425759435E0;-1.331930637E0;5.447940230E-1
3.070474678E1;-8.356636167E-1;-1.300776482E0;4.733228087E-1
3.071476878E1;-4.373795092E-1;-1.146227598E0;4.238427281E-1
3.072479078E1;-9.040805697E-2;-8.029212952E-1;2.558547854E-1
3.073499978E1;1.631010175E-1;-3.563787937E-1;4.205196351E-2
3.075473778E1;6.395758986E-1;4.053701758E-1;-3.366844952E-1
3.076476778E1;8.655960560E-1;3.980397880E-1;-4.967312217E-1
3.078479678E1;1.291369081E0;-3.445279971E-2;-7.557380795E-1
3.080470378E1;2.314568520E0;-7.601607442E-1;-1.031849146E0
3.081474178E1;1.922392964E0;-3.826459944E-1;-6.964841485E-1
3.083471578E1;7.782423496E-1;-3.200934082E-2;-1.625878960E-1
3.084472078E1;8.973610401E-1;-1.332541466E0;-5.828632116E-1
3.085478678E1;1.469130874E0;-1.454103589E0;-1.337281704E0
3.086491978E1;2.054339886E0;-4.178318381E-2;-1.744728804E0
3.088478378E1;2.341446400E0;2.102353811E0;-1.524817348E0
3.090468378E1;2.031737804E0;1.418184757E0;-6.115738750E-1
3.091485378E1;2.175902128E0;1.533027411E0;-3.708929420E-1
3.092530578E1;2.182010651E0;1.843957782E0;-3.892189264E-1
3.094504678E1;2.108706951E0;1.869003296E0;-2.108462453E-1
3.095541278E1;2.302351236E0;1.799975514E0;5.793445930E-2
3.097506178E1;2.263255835E0;2.076086521E0;6.587570906E-2
3.099467878E1;2.326785803E0;2.834170341E0;-4.222056270E-1
3.100476678E1;2.325563908E0;3.014986515E0;-2.981999815E-1
3.101487678E1;2.208888769E0;3.025982141E0;-1.607552916E-1
3.103470778E1;2.060448408E0;3.176254988E0;1.184101254E-1
3.104475878E1;2.145969629E0;3.328360319E0;2.460809648E-1
3.106482678E1;2.223549604E0;3.610580206E0;4.116254151E-1
3.108500878E1;2.212553978E0;3.611801863E0;5.221920609E-1
3.110496378E1;2.300518513E0;3.785898447E0;6.028262377E-1
3.112524578E1;2.346333504E0;3.417546749E0;5.270789266E-1
3.114493578E1;2.419026375E0;3.192748308E0;5.997719169E-1
3.116494678E1;2.579073191E0;3.286210775E0;7.683707476E-1
3.118502378E1;2.609616280E0;3.656394958E0;8.496158123E-1
3.120479578E1;2.532647371E0;4.587353706E0;9.644584656E-1
3.121488378E1;2.400700331E0;4.787717342E0;9.168109894E-1
3.122528778E1;2.205223560E0;4.714413643E0;8.703852296E-1
3.124485778E1;1.715920448E0;3.809111357E0;9.253631234E-1
3.126475378E1;1.290147424E0;1.848233819E0;1.076857686E0
3.128480278E1;9.828821421E-1;-1.047023088E-1;6.657453775E-1
3.130477678E1;4.856379032E-1;-4.803844392E-1;7.015176862E-2
3.131487378E1;5.510004759E-1;9.993755817E-2;4.021936655E-2
3.133483978E1;1.350012183E0;1.508592844E0;2.082073092E-1
3.134484178E1;1.484402537E0;1.567846775E0;4.205196351E-2
3.136470978E1;1.322523236E0;7.889935374E-1;-5.975239873E-1
3.138490778E1;9.187413454E-1;1.685988158E-2;-5.834740400E-1
3.140467678E1;5.827654600E-1;-5.742133595E-3;-9.356011450E-2
3.141472078E1;3.976732790E-1;2.312735915E-1;1.526185721E-1
3.142485678E1;1.765400469E-1;4.890587330E-1;2.992262244E-1
3.144466378E1;-4.331034422E-1;1.004629016E0;9.676105343E-3
3.145519278E1;-7.727445364E-1;1.471940875E0;-2.786523104E-1
3.147468578E1;-1.430035472E0;2.244685411E0;-4.118209183E-1
3.148488278E1;-1.593136549E0;2.292943716E0;-2.780414224E-1
3.150490678E1;-1.288925648E0;1.838460088E0;-1.475850400E-2
3.152472578E1;-4.324925840E-1;1.267911911E0;2.922379225E-2
3.153476278E1;1.649336144E-2;1.302731156E0;1.361252069E-1
3.154495278E1;3.793473244E-1;1.385197997E0;2.937284410E-1
3.156490278E1;9.169087410E-1;1.584340096E0;4.959248304E-1
3.157554978E1;1.162476540E0;1.777373552E0;7.023972869E-1
3.159482178E1;1.290147424E0;9.783617854E-1;6.071022749E-1
3.161473278E1;1.100779176E0;-6.587570906E-1;1.031384915E-1
3.162473778E1;1.078177214E0;-1.187155485E0;-2.169549018E-1
3.163483378E1;1.231504321E0;-1.279396176E0;-4.729074538E-1
3.164602378E1;1.749518037E0;-1.111408234E0;-4.716857076E-1
3.166481278E1;3.632815599E0;7.367034256E-2;3.658105433E-1
3.168493778E1;3.236364126E0;4.175874591E-1;1.009051681E0
3.170492578E1;2.017687798E0;1.872912943E-1;1.854489207E0
3.172470278E1;7.837401032E-1;-1.871691048E-1;2.065848351E0
3.173477278E1;2.357939929E-1;-3.075095713E-1;1.707270622E0
3.175469578E1;-8.057312369E-1;6.772052050E-1;5.325767398E-1
3.177537378E1;-2.952922583E0;2.239798546E0;-5.602611899E-1
3.179473078E1;-3.695123911E0;2.413895130E0;-1.023296952E0
3.181478878E1;-3.404351950E0;1.186055899E0;-7.368012071E-1
3.182483078E1;-3.268129110E0;4.695110023E-1;-5.529307723E-1
3.184483778E1;-3.230866194E0;-3.075095713E-1;-2.132897079E-1
3.185657078E1;-3.210096836E0;-2.983466089E-1;-9.478184581E-2
3.187471578E1;-3.142290831E0;3.528357446E-1;9.092118591E-2
3.189481778E1;-3.133127928E0;9.502619505E-1;1.739988625E-1
3.190484378E1;-3.222924948E0;1.142073631E0;1.929356754E-1
3.192473678E1;-3.410460711E0;1.397415280E0;1.055819541E-1
3.194482478E1;-3.691458702E0;1.118860722E0;-4.191513062E-1
3.196466978E1;-4.142888069E0;9.294925332E-1;-8.919610381E-1
3.197488078E1;-4.172820568E0;6.827029586E-1;-8.302636147E-1
3.199473778E1;-4.312097549E0;1.714087874E-1;-7.184752822E-1
3.200479378E1;-4.586376190E0;-8.881980181E-2;-7.930008173E-1
3.202467878E1;-5.325523376E0;-6.477615237E-1;-9.652648568E-1
3.203491678E1;-5.630344868E0;-1.235413909E0;-9.652648568E-1
3.205470278E1;-6.207001686E0;-3.300749302E0;-8.064398766E-1
3.206470778E1;-6.267477512E0;-4.220101357E0;-5.804197192E-1
3.208467078E1;-5.703037739E0;-4.689857006E0;-9.539271146E-2
3.209479578E1;-5.230839252E0;-4.402750015E0;1.324600130E-1
3.210496978E1;-4.794681072E0;-4.201775551E0;3.358781338E-1
3.212490178E1;-4.183815956E0;-4.170010567E0;7.384383082E-1
3.214515778E1;-3.505144835E0;-3.764395952E0;9.265848398E-1
3.216479078E1;-2.566244841E0;-2.887804270E0;5.093638897E-1
3.217542478E1;-1.785559058E0;-3.067398787E0;-3.385170996E-1
3.219478278E1;-1.160033107E0;-3.455298185E0;-7.380229831E-1
3.220480678E1;-9.028587937E-1;-2.933619261E0;-6.292889714E-1
3.222477678E1;-5.473352671E-1;-8.426275253E-1;-1.198273301E-1
3.223482678E1;-3.182607889E-1;2.526538670E-1;7.748214900E-2
3.224538978E1;-4.459316283E-2;9.435424209E-1;2.014877945E-1
3.226488778E1;2.748893797E-1;9.496511221E-1;2.020986676E-1
3.228472478E1;2.858849466E-1;2.453234941E-1;-1.729726046E-1
3.230506378E1;2.809980214E-1;-6.072000414E-2;-6.787690520E-1
3.231523278E1;4.612032771E-1;-2.219884247E-1;-9.371650219E-1
3.233473078E1;1.222341418E0;-8.395732045E-1;-1.260312676E0
3.234499378E1;1.470352650E0;-8.304102421E-1;-1.171126366E0
3.236493378E1;4.667010307E-1;-2.225992978E-1;4.940922260E-1
3.238485278E1;2.812423706E0;-3.002646923E0;-5.969130993E-1
3.239520478E1;3.045163155E0;1.127412915E0;-1.183954477E0
3.241469178E1;2.497828007E0;3.156707287E0;-9.677082896E-1
3.242482778E1;2.331672668E0;1.511036277E0;-6.206390448E-3
3.243497978E1;2.517375708E0;1.250196815E0;1.245187744E-1
3.245469378E1;2.829527855E0;2.087692976E0;-4.191513062E-1
3.246496378E1;2.580905676E0;1.759658456E0;-8.073195070E-2
3.248473378E1;2.501493216E0;1.588005304E0;5.069203973E-1
3.249483078E1;2.569299221E0;2.002782822E0;3.444302380E-1
3.250516078E1;2.604729414E0;2.533624649E0;-9.871582501E-3
3.252484478E1;2.763554335E0;3.633792877E0;-4.802378416E-1
3.253498178E1;2.827084303E0;3.760241985E0;-4.881790876E-1
3.255473278E1;2.798984528E0;3.740083456E0;-2.804848850E-1
3.256484278E1;2.800206184E0;4.136535168E0;-6.240599230E-2
3.257487378E1;2.838079929E0;4.200675964E0;-4.373795353E-3
3.258659078E1;2.834414721E0;4.208006382E0;1.043602228E-1
3.260491478E1;2.886338234E0;4.176852226E0;5.967175961E-1
3.261521078E1;2.868623257E0;4.161580563E0;8.593896627E-1
3.263482678E1;2.896112204E0;4.003977299E0;1.202085137E0
3.264489378E1;2.992017984E0;3.800559282E0;1.197809100E0
