"Time (s)";"Acceleration x (m/s^2)";"Acceleration y (m/s^2)";"Acceleration z (m/s^2)"
0.000000000E0;5.470750809E0;3.119644880E0;9.850942612E0
1.023275000E-2;5.421669960E0;2.871845007E0;9.294290543E0
3.025106200E-2;4.104858875E0;2.421735048E0;7.876923561E0
4.028778100E-2;4.134786129E0;2.613271236E0;7.241262913E0
6.034057000E-2;4.121618271E0;2.995146275E0;7.025784969E0
8.329176700E-2;2.950853586E0;2.480392933E0;7.887697697E0
9.978750000E-2;2.950853586E0;2.480392933E0;7.887697697E0
1.099175000E-1;2.552218914E0;2.311601639E0;7.741651058E0
1.298345000E-1;2.207453966E0;2.291250944E0;7.600393295E0
1.402935000E-1;2.195482969E0;2.200271368E0;8.068459511E0
1.601615000E-1;2.106897593E0;2.088941097E0;8.589199066E0
1.807865000E-1;2.105700493E0;2.110488892E0;8.452729225E0
1.932655000E-1;2.225410461E0;2.346317768E0;8.501810074E0
2.073195000E-1;2.257732153E0;2.413355350E0;9.135076523E0
2.197765000E-1;2.282871246E0;2.243366957E0;9.909601212E0
2.298745000E-1;2.128445387E0;1.960851192E0;1.037766743E1
2.499685000E-1;1.397016644E0;1.397016644E0;9.819818497E0
2.605105000E-1;1.185129881E0;1.280897856E0;9.361329079E0
2.799865000E-1;9.995791912E-1;1.331176162E0;8.801085472E0
2.902205000E-1;1.076193690E0;1.294066072E0;8.731653214E0
3.098205000E-1;1.886630893E0;1.473631144E0;9.252392769E0
3.206805000E-1;2.396595955E0;1.746570110E0;9.597157478E0
3.411625000E-1;2.893392801E0;1.928529501E0;1.058476543E1
3.597855000E-1;2.377442360E0;1.401805043E0;1.158554173E1
3.797985000E-1;1.398213744E0;1.325190663E0;9.834183693E0
3.898875000E-1;1.151610970E0;1.419761658E0;9.544485092E0
4.098365000E-1;1.509544134E0;1.341950059E0;9.473855972E0
4.200515000E-1;1.927332401E0;1.440112352E0;9.640253067E0
4.398015000E-1;1.990778685E0;1.306037068E0;9.883264542E0
4.498485000E-1;1.940500498E0;1.198297977E0;9.812635422E0
4.698255000E-1;2.425326347E0;1.648407817E0;9.734824181E0
4.906435000E-1;2.304419041E0;1.673547029E0;8.947132111E0
5.012195000E-1;1.893813491E0;1.398213744E0;8.832210541E0
5.199545000E-1;1.319205165E0;9.433154464E-1;9.338583946E0
5.398895000E-1;1.915361404E0;1.037886381E0;1.041238308E1
5.598885000E-1;2.675520420E0;1.436521053E0;1.170764637E1
5.698925000E-1;2.893392801E0;1.576581836E0;1.166335392E1
5.840535000E-1;3.063380957E0;1.722628117E0;1.130901146E1
5.998485000E-1;3.345896959E0;1.667561531E0;1.148498535E1
6.104825000E-1;3.416525841E0;1.614889026E0;1.182256794E1
6.300705000E-1;3.051409960E0;1.182735682E0;1.181179428E1
6.498035000E-1;2.717418909E0;1.064222693E0;1.121683502E1
6.598485000E-1;2.827552319E0;1.261744261E0;1.087566090E1
6.699055000E-1;2.970007181E0;1.477222443E0;1.044231033E1
6.809215000E-1;3.066972494E0;1.587355733E0;1.016099167E1
6.916775000E-1;3.056198359E0;1.590947032E0;1.012986755E1
7.111325000E-1;2.764105797E0;1.347935557E0;1.025436592E1
7.299455000E-1;2.579752445E0;1.440112352E0;9.645041466E0
7.500695000E-1;2.602497339E0;1.185129881E0;9.205705643E0
7.601845000E-1;2.682703018E0;1.107318282E0;9.337387085E0
7.798295000E-1;2.606088638E0;9.648633003E-1;9.890447617E0
7.899705000E-1;2.426523447E0;8.200140595E-1;9.769539833E0
8.098155000E-1;2.190694571E0;7.266402245E-1;9.794678688E0
8.202485000E-1;2.171540976E0;6.512228847E-1;9.728838921E0
8.409765000E-1;2.220622063E0;6.009446383E-1;9.622296333E0
8.598445000E-1;2.327163935E0;7.649474144E-1;9.573215485E0
8.699325000E-1;2.207453966E0;6.907271743E-1;9.405621529E0
8.899275000E-1;2.146401882E0;8.990227580E-1;9.060855865E0
9.008825000E-1;2.236184359E0;1.077390790E0;8.868123055E0
9.198355000E-1;2.007538080E0;8.236053586E-1;8.585607529E0
9.298765000E-1;1.656787634E0;5.003881454E-1;8.640673637E0
9.420420000E-1;1.685518026E0;2.513911724E-1;9.660603523E0
9.599905000E-1;1.685518026E0;2.513911724E-1;9.660603523E0
9.805155000E-1;1.717839718E0;3.375824392E-1;9.733627319E0
9.910225000E-1;1.923741102E0;4.225766063E-1;9.719262123E0
1.010020500E0;2.369062662E0;9.085995555E-1;9.403226852E0
1.029955500E0;2.202665567E0;9.133879542E-1;8.840589523E0
1.040869500E0;1.857900500E0;7.230489254E-1;8.556877136E0
1.059979500E0;1.553836942E0;1.951274425E-1;8.962694168E0
1.070642000E0;1.756146908E0;1.735796183E-1;9.624691010E0
1.081736500E0;1.756146908E0;1.735796183E-1;9.624691010E0
1.100106500E0;1.991975784E0;3.387795389E-1;9.373299599E0
1.110116500E0;2.249352455E0;4.608838260E-1;9.454702377E0
1.125221500E0;2.395398855E0;8.283938169E-1;9.245209694E0
1.150099500E0;2.172738075E0;5.422866940E-1;8.941145897E0
1.160802500E0;2.187103271E0;5.841852427E-1;1.017655468E1
1.179832500E0;1.866280198E0;1.879448295E-1;1.070327854E1
1.190398500E0;1.434126854E0;2.047042400E-1;9.744400978E0
1.211260500E0;1.499967337E0;5.434837937E-1;9.047688484E0
1.223153500E0;1.675941229E0;5.937620401E-1;8.965087891E0
1.240474500E0;1.499967337E0;3.280056417E-1;8.933963776E0
1.261898500E0;1.580173135E0;3.842693865E-1;9.285911560E0
1.275106000E0;1.685518026E0;2.394201756E-1;1.002691650E1
1.290140500E0;1.813607812E0;1.340752989E-1;1.028429317E1
1.300262500E0;1.805228114E0;1.783680320E-1;1.037048435E1
1.319807500E0;1.155202270E0;-5.147533491E-2;9.142259598E0
1.329894500E0;8.583213091E-1;-9.337386489E-2;8.513781548E0
1.349856500E0;8.559271097E-1;-1.508347094E-1;8.542511940E0
1.369824500E0;1.723825216E0;2.011129409E-1;8.732851028E0
1.389869500E0;2.673126221E0;5.518634915E-1;9.897629738E0
1.399912500E0;2.677914619E0;5.039794445E-1;1.004607010E1
1.419896500E0;1.403002143E0;-5.267243832E-2;9.245209694E0
1.429914500E0;7.433996201E-1;-4.153940082E-1;8.930372238E0
1.449857500E0;7.158663273E-1;-5.135562420E-1;9.743204117E0
1.469855500E0;1.814804912E0;8.978256583E-2;9.937133789E0
1.480021500E0;2.324769735E0;3.208230138E-1;1.024598598E1
1.490637500E0;2.437297344E0;3.303998411E-1;1.018253994E1
1.510644500E0;1.953668594E0;-9.816227108E-2;9.393650055E0
1.529995500E0;2.144007683E0;-8.020575345E-2;9.473855972E0
1.540096500E0;2.093729496E0;9.576806799E-3;9.173383713E0
1.559862500E0;1.033097982E0;-9.337386489E-1;1.025436592E1
1.569947500E0;5.207388401E-1;-1.480813742E0;1.047702694E1
1.590089500E0;5.925649405E-1;-1.740584612E0;9.431957245E0
1.609889500E0;1.946485996E0;-5.566518903E-1;7.854178905E0
1.629866500E0;1.912967205E0;-7.074866295E-1;7.572859764E0
1.640803500E0;1.306037068E0;-1.533486247E0;7.794323444E0
1.659806500E0;1.430535555E0;-1.832761407E0;8.707711220E0
1.669897500E0;1.933317900E0;-1.534683347E0;8.840589523E0
1.690469500E0;2.047042370E0;-1.289277673E0;7.638700485E0
1.709825500E0;2.530671120E0;-1.430535555E0;6.831854343E0
1.729940500E0;5.729324818E0;-6.619967818E-1;8.325836182E0
1.740243500E0;6.064512730E0;2.669534981E-1;9.609128952E0
1.759834500E0;3.833117008E0;-1.784877419E0;9.685743332E0
1.769967500E0;4.237737179E0;-1.848323703E0;9.024943352E0
1.790217500E0;6.088454723E0;6.153098345E-1;1.041238308E1
1.809963500E0;4.709394932E0;-1.041477680E0;9.676166534E0
1.829865500E0;3.108870983E0;-1.889025092E0;7.615955830E0
1.840151500E0;2.469619036E0;-2.424129248E0;6.979097843E0
1.859886500E0;3.169923067E0;-1.865083098E0;6.030993938E0
1.869952500E0;4.250905037E0;-8.236053586E-1;6.105214119E0
1.889937500E0;5.917269707E0;2.633621916E-2;5.942408562E0
1.909965500E0;5.440823555E0;-1.346738458E0;6.944382191E0
1.920011500E0;5.085284233E0;-1.950077295E0;6.618770599E0
1.940293500E0;5.928043365E0;-2.527079821E0;6.730101109E0
1.960038500E0;8.175002098E0;-7.817068696E-1;7.926004887E0
1.970162500E0;7.863755703E0;-1.174355984E0;7.649474621E0
1.990556500E0;7.704541206E0;-1.516726732E0;6.381744862E0
2.009903500E0;8.312667847E0;-1.865083098E0;6.722918510E0
2.020073500E0;8.914810181E0;-1.684320927E0;7.070077419E0
2.030159500E0;9.631873131E0;-1.549048543E0;6.963535786E0
2.040424500E0;1.010353088E1;-1.493981838E0;6.986280441E0
2.059934500E0;1.020887566E1;-1.995567083E0;7.044938564E0
2.070123500E0;1.021366405E1;-2.205059767E0;6.925228596E0
2.080226500E0;9.767146111E0;-2.421735048E0;6.692990780E0
2.099960500E0;1.011550236E1;-2.124854088E0;5.291185856E0
2.110112500E0;1.054406452E1;-1.841141105E0;4.418499470E0
2.132089500E0;1.060272217E1;-2.001552582E0;3.327940464E0
2.142986500E0;9.756371498E0;-2.590526342E0;3.138798475E0
2.160661500E0;9.072827339E0;-3.191470861E0;2.722207308E0
2.180009500E0;8.836998940E0;-3.670311213E0;2.485181332E0
2.201271500E0;8.682572365E0;-3.506308317E0;2.304419041E0
2.219960500E0;7.714118004E0;-3.969586372E0;6.967126727E-1
2.240050500E0;8.579621315E0;-4.077325344E0;4.740519226E-1
2.253016500E0;8.984241486E0;-4.169502258E0;1.034295082E0
2.270171500E0;1.003529644E1;-4.179079056E0;2.238578558E0
2.290176500E0;8.668207169E0;-4.724956989E0;9.816226959E-1
2.300324500E0;8.995016098E0;-4.016273499E0;1.106121182E0
2.311078500E0;8.586804390E0;-3.962403774E0;1.357512355E0
2.329998500E0;7.916428089E0;-4.683058739E0;9.995791912E-1
2.341726500E0;9.472659111E0;-3.994725466E0;1.088164687E0
2.359978500E0;1.067215443E1;-3.020285368E0;1.726219416E0
2.379807500E0;8.930372238E0;-4.068945885E0;1.346738458E0
2.389972500E0;8.164227486E0;-4.521450043E0;6.775590777E-1
2.410641500E0;7.343016624E0;-5.433640957E0;2.597708702E-1
2.431206500E0;7.697358608E0;-5.358223438E0;6.380547285E-1
2.450336500E0;8.109161377E0;-5.376179695E0;-1.747767180E-1
2.461266500E0;8.184578896E0;-5.063736439E0;-1.855506301E-1
2.479843500E0;9.186552048E0;-4.430470467E0;6.284779310E-1
2.490209500E0;9.077615738E0;-4.197035789E0;7.577648163E-1
2.510058500E0;7.876923561E0;-4.661510944E0;3.926490843E-1
2.529790500E0;6.279991150E0;-5.771223068E0;-1.775300503E0
2.540097500E0;5.896918774E0;-6.612784863E0;-2.820369720E0
2.559827500E0;7.286752701E0;-6.931213856E0;-4.932055473E-1
2.579842500E0;8.257601738E0;-6.767210960E0;2.086546898E0
2.589927500E0;7.849390507E0;-6.842628479E0;1.333570361E0
2.600304500E0;7.740454197E0;-6.922834396E0;-5.626374111E-2
2.619775500E0;8.404845238E0;-6.194996834E0;-1.242590666E0
2.629804500E0;8.379706383E0;-6.171054840E0;-1.037886381E0
2.649812500E0;8.434772491E0;-6.997054577E0;-1.654393315E0
2.669823500E0;8.339004517E0;-7.605181694E0;1.053448766E-1
2.689951500E0;7.085639954E0;-7.557297707E0;3.040636182E-1
2.709767500E0;5.294776917E0;-8.050502777E0;-1.576581836E0
2.719834500E0;5.813121796E0;-7.721300602E0;-1.958456993E0
2.740322500E0;1.025077438E1;-8.325836182E0;1.674744129E0
2.760149500E0;9.406818390E0;-7.554903507E0;3.471592441E-2
2.779789500E0;9.388861656E0;-6.672640324E0;-2.141613483E0
2.789820500E0;8.347384453E0;-6.971915245E0;-1.824381709E0
2.809943500E0;7.455543995E0;-7.320271492E0;-1.722628117E0
2.831642500E0;4.492719650E0;-7.386112213E0;4.513070285E-1
2.841980000E0;2.926911592E0;-8.318654060E0;4.668693244E-1
2.860893625E0;2.634819031E0;-6.592434406E0;1.877054095E0
2.871689062E0;4.173093796E0;-5.662287235E0;2.184709072E0
2.882200281E0;4.173093796E0;-5.662287235E0;2.184709072E0
2.900094500E0;5.428852558E0;-4.844666958E0;1.799242616E0
2.910944500E0;6.861782074E0;-3.865438700E0;-5.386953801E-2
2.930712500E0;7.649474621E0;-4.292803764E0;-4.441244006E-1
2.949816500E0;6.511031628E0;-5.655104637E0;-1.233013868E-1
2.959838500E0;5.365406036E0;-6.414066315E0;-8.858546615E-2
2.971041500E0;4.619612217E0;-7.010222435E0;-6.619967818E-1
2.990205500E0;5.540182590E0;-7.201758862E0;-7.218518257E-1
3.009839500E0;7.290344238E0;-6.556521416E0;3.543418646E-1
3.029789500E0;7.953537941E0;-6.470330238E0;-5.147533491E-2
3.039802500E0;7.771578789E0;-6.551733017E0;-9.085995555E-1
3.059867500E0;6.318298340E0;-7.341819286E0;-7.338228226E-1
3.072424500E0;5.486313343E0;-7.803900242E0;-8.714894056E-1
3.089806500E0;5.400122166E0;-7.345410824E0;-1.441309452E0
3.100783500E0;5.649118900E0;-7.226897717E0;-1.381454349E0
3.120661500E0;6.916848660E0;-6.457161903E0;-7.433996201E-1
3.141665500E0;8.028955460E0;-6.533776283E0;-1.163581967E0
3.160585500E0;8.924386978E0;-8.175002098E0;-1.288080573E0
3.180588500E0;8.520963669E0;-8.702922821E0;-4.273650050E-1
3.203126500E0;4.739322186E0;-8.010998726E0;2.630030632E0
3.216659500E0;4.607641220E0;-7.429207802E0;1.501164436E0
3.229826500E0;5.137956619E0;-7.292738438E0;1.353921056E0
3.239865500E0;4.730942726E0;-7.625532627E0;1.598129630E0
3.250281500E0;4.596867085E0;-7.735665798E0;1.412579060E0
3.263082500E0;5.112817764E0;-7.868544102E0;4.297592044E-1
3.279801500E0;5.773617268E0;-8.027758598E0;-3.663128614E-1
3.290016500E0;6.145915985E0;-7.651868820E0;2.035071403E-1
3.300761500E0;6.539762020E0;-7.232883453E0;7.673416734E-1
3.313878500E0;6.514622688E0;-7.077260017E0;4.788403213E-2
3.327895500E0;5.825092793E0;-7.360973358E0;-1.622071624E0
3.342371500E0;5.428852558E0;-7.422025204E0;-1.900996208E0
3.356556500E0;4.888959885E0;-7.733271599E0;-1.720233917E0
3.371377500E0;3.363853455E0;-8.419210434E0;-1.422155857E0
3.390094500E0;3.135207176E0;-8.688557625E0;-1.442506552E0
3.403636500E0;3.569754839E0;-8.439560890E0;-8.104372621E-1
3.420088500E0;5.850231647E0;-7.293935299E0;3.256114423E-1
3.445559500E0;8.160636902E0;-7.597999096E0;5.446808934E-1
3.460822500E0;7.407660007E0;-7.831433773E0;7.038952708E-1
3.479824500E0;5.421669960E0;-7.762001991E0;2.142810524E-1
3.492542500E0;4.650736809E0;-8.446743965E0;-1.583764434E0
3.509963500E0;4.438849926E0;-8.930372238E0;-2.132036686E0
3.522678500E0;4.325125217E0;-9.633070946E0;-1.040280581E0
3.535755000E0;5.177461147E0;-9.044096947E0;-1.206677675E0
3.549787500E0;4.788403511E0;-8.373720169E0;-1.562216640E0
3.559955500E0;4.353855610E0;-7.447164536E0;-1.926135302E0
3.579815500E0;4.296394825E0;-7.516596317E0;-8.032546639E-1
3.590690500E0;4.206612587E0;-7.793126583E0;6.332663298E-1
3.610313500E0;4.642356873E0;-7.133523941E0;2.093729496E0
3.620656500E0;5.445611954E0;-4.922478676E0;1.769315004E0
3.641922500E0;8.504204750E0;-2.443282843E0;1.873462796E0
3.660396500E0;4.169502258E0;-1.393425345E0;-1.771709204E0
3.679860500E0;1.927332401E0;-2.646790028E0;-6.886921406E0
3.690750500E0;1.472434044E0;-3.657143116E0;-4.879383087E0
3.710143500E0;4.309562966E-2;-6.679822922E0;4.560954273E-1
3.729885500E0;8.032546639E-1;-4.388571739E0;-1.580173135E0
3.740754500E0;2.592920542E0;-8.894459724E0;-3.444059134E0
3.760071500E0;9.787496567E0;-2.762070847E1;-7.052121162E0
3.779954500E0;9.560047150E0;-2.712870026E1;2.452859640E0
3.799781500E0;-3.387795389E-1;-1.558385849E1;2.467224836E0
3.809870500E0;-2.645592928E0;-1.080024433E1;5.494692922E-1
3.829912500E0;-2.813186884E0;-5.371391296E0;-4.436455727E0
3.840814500E0;-1.331176162E0;-5.038597584E0;-6.072892666E0
3.859812500E0;2.607285738E0;-7.526173115E0;-3.420117140E0
3.879854500E0;4.655525208E0;-9.513360023E0;-2.057816267E0
3.890078500E0;4.668693542E0;-9.744400978E0;-7.314286232E-1
3.900145500E0;3.209427357E0;-9.291896820E0;6.476315856E-1
3.919772500E0;2.756923199E0;-8.698134422E0;-5.087678432E-1
3.929886500E0;3.264493942E0;-8.353369713E0;-1.892616391E0
3.942884500E0;3.593696833E0;-8.452729225E0;-3.022679567E0
3.959835500E0;3.623624325E0;-9.023746490E0;-3.350685358E0
3.969893500E0;3.721786499E0;-9.125499725E0;-2.693476915E0
3.980068500E0;3.885789394E0;-9.083600998E0;-1.974019289E0
3.999921500E0;4.001908302E0;-9.009381294E0;-1.551442742E0
4.010428500E0;3.912125587E0;-8.999804497E0;-1.356315255E0
4.029859500E0;3.549403906E0;-8.720879555E0;-1.314416766E0
4.039991500E0;3.272873640E0;-8.684967041E0;-1.592144132E0
4.060547500E0;3.070563793E0;-8.996212959E0;-1.739387512E0
4.079839500E0;3.288435936E0;-9.080010414E0;-1.912967205E0
4.089891500E0;3.396175146E0;-8.972270966E0;-1.921346903E0
4.110514500E0;3.296815634E0;-8.820239067E0;-2.116474390E0
4.129917500E0;3.189076662E0;-8.910021782E0;-1.563413739E0
4.141231500E0;3.163937569E0;-8.900444984E0;-1.501164436E0
4.159970500E0;3.381809950E0;-8.778340340E0;-1.760935307E0
4.179832500E0;3.581725836E0;-8.992621422E0;-1.655590534E0
4.190019500E0;3.647566319E0;-9.300276756E0;-2.103306293E0
4.209925500E0;3.743334293E0;-9.141061783E0;-1.690306425E0
4.229803500E0;3.412934542E0;-8.762778282E0;-2.208651066E0
4.240158500E0;3.239354849E0;-8.808267593E0;-2.482787132E0
4.262723500E0;3.720589399E0;-8.233659744E0;-2.211045265E0
4.279834500E0;3.230975151E0;-9.379284859E0;-1.101332784E0
4.292458500E0;3.746925592E0;-8.447940826E0;-1.975216389E0
4.309803500E0;3.381809950E0;-7.906851292E0;-2.698265314E0
4.329868500E0;8.798691034E-1;-1.051653099E1;-2.704250813E0
4.340202500E0;3.746925592E-1;-1.208233929E1;-2.281674147E0
4.360034500E0;2.205059767E0;-9.172186852E0;-2.020706177E0
4.379816500E0;3.708618402E0;-7.128735542E0;-1.347935557E0
4.393931500E0;3.666719913E0;-7.266402245E0;-8.655039072E-1
4.411047500E0;3.277662039E0;-9.222464561E0;-1.942894697E0
4.422228500E0;2.470816135E0;-1.012268448E1;-2.361880064E0
4.439814500E0;2.080561161E0;-1.010951710E1;-2.955641985E0
4.449897500E0;1.966836691E0;-9.967061996E0;-2.952050686E0
4.459970500E0;1.735796213E0;-9.870096207E0;-2.705447912E0
4.469994500E0;1.303642869E0;-9.902418137E0;-2.583343744E0
4.481264500E0;6.919242740E-1;-9.657012939E0;-2.501940727E0
4.492910500E0;7.278373241E-1;-9.100360870E0;-2.221819162E0
4.519861500E0;1.139639974E0;-7.797914982E0;-1.462857246E0
4.529863500E0;1.346738458E0;-7.857769966E0;-1.132457376E0
4.539963500E0;1.430535555E0;-8.415618896E0;-1.136048675E0
4.559911500E0;1.272518158E0;-9.676166534E0;-1.567005038E0
4.579885500E0;6.679822803E-1;-9.533711433E0;-2.182314873E0
4.590312500E0;7.026981711E-1;-8.942343712E0;-2.583343744E0
4.612221500E0;9.947907925E-1;-8.195352554E0;-1.869871497E0
4.629873500E0;1.114500880E0;-9.210494041E0;-1.400607944E0
4.643635500E0;1.100135684E0;-9.686940193E0;-1.612494826E0
4.659929500E0;1.134851575E0;-1.017176628E1;-1.991975784E0
4.679846500E0;1.375468850E0;-1.002931118E1;-2.063801765E0
4.690125500E0;1.709460020E0;-9.648633003E0;-1.906981707E0
4.710007500E0;1.861491799E0;-9.194931984E0;-1.641225219E0
4.720208500E0;1.663970232E0;-9.172186852E0;-1.601720929E0
4.739882500E0;1.051054597E0;-9.416395187E0;-1.699883223E0
4.759948500E0;9.696516991E-1;-9.409213066E0;-1.777694821E0
4.779861500E0;1.137245774E0;-9.762357712E0;-2.206256866E0
4.790108500E0;1.911770105E0;-9.397241592E0;-1.231816769E0
4.810214500E0;1.522712231E0;-9.097966194E0;-1.844732404E0
4.829828500E0;6.512228847E-1;-9.609128952E0;-1.938106298E0
4.840972500E0;8.415619135E-1;-9.561244011E0;-2.035071373E0
4.859893500E0;1.170764685E0;-9.272743225E0;-1.938106298E0
4.869919500E0;1.526303530E0;-8.822632790E0;-2.172738075E0
4.891076500E0;1.590947032E0;-9.526528358E0;-1.562216640E0
4.909937500E0;1.416170359E0;-9.640253067E0;-1.592144132E0
4.929965500E0;1.258152962E0;-9.567230225E0;-1.939303398E0
4.940663500E0;1.013944387E0;-9.625887871E0;-1.685518026E0
4.961047500E0;1.165976286E0;-8.902838707E0;-1.794454217E0
4.979890500E0;1.732204914E0;-8.931569099E0;-1.693897724E0
4.990200500E0;1.753752708E0;-9.382876396E0;-2.001552582E0
5.010007500E0;1.539471745E0;-9.609128952E0;-1.774103403E0
5.029814500E0;1.628057122E0;-9.376891136E0;-1.436521053E0
5.039838500E0;1.522712231E0;-9.437943459E0;-1.302445769E0
5.049908500E0;1.600523829E0;-9.379284859E0;-1.569399238E0
5.060191500E0;1.693897724E0;-9.082404137E0;-1.723825216E0
5.079943500E0;9.888052940E-1;-9.448717117E0;-1.824381709E0
5.090106500E0;1.047463298E0;-9.827000618E0;-1.637633920E0
5.110718500E0;1.464054346E0;-9.421183586E0;-2.007538080E0
5.130023500E0;1.764526606E0;-8.572439194E0;-2.218227863E0
5.143919500E0;1.544260144E0;-8.898050308E0;-2.148796082E0
5.160323500E0;1.511938334E0;-9.637859344E0;-1.490390539E0
5.179988500E0;1.687912226E0;-9.218873978E0;-1.859097600E0
5.199831500E0;1.100135684E0;-9.035717010E0;-2.123656988E0
5.210918500E0;9.636662006E-1;-9.132682800E0;-2.138022184E0
5.229932500E0;1.367089152E0;-9.242815971E0;-1.938106298E0
5.241721500E0;1.437718153E0;-9.493009567E0;-1.808819413E0
5.260195500E0;2.054224968E0;-8.512583733E0;-1.739387512E0
5.279846500E0;5.578489900E-1;-1.013824749E1;-1.702277422E0
5.290068500E0;1.055842996E0;-9.715670586E0;-1.680729628E0
5.310090500E0;1.296460271E0;-9.381679535E0;-1.495178938E0
5.329938500E0;1.594538331E0;-9.625887871E0;-1.732204914E0
5.350028500E0;2.093729496E0;-9.627084732E0;-2.389413357E0
5.360701500E0;1.939303398E0;-9.251194954E0;-2.038662672E0
5.379828500E0;1.517923832E0;-8.791508675E0;-1.185129881E0
5.390212500E0;1.338358760E0;-8.860940933E0;-9.660604000E-1
5.410050500E0;6.871358752E-1;-9.726444244E0;-1.412579060E0
5.420483500E0;1.145625472E0;-9.459490776E0;-1.526303530E0
5.440215500E0;2.480392933E0;-8.567650795E0;-2.243366957E0
5.459845500E0;1.819593310E0;-9.805453300E0;-2.099714994E0
5.479850500E0;7.350199223E-1;-1.014782429E1;-1.231816769E0
5.489946500E0;1.078587890E0;-9.208099365E0;-1.480813742E0
5.510039500E0;1.140837073E0;-8.987833023E0;-1.681926727E0
5.521679500E0;1.654393315E0;-8.792705536E0;-1.109712481E0
5.539831500E0;2.124854088E0;-8.406042099E0;-1.517923832E0
5.560569500E0;1.483207941E0;-9.854534149E0;-2.460042238E0
5.580095500E0;2.552218914E0;-9.618705750E0;-2.827552319E0
5.600484500E0;1.946485996E0;-9.036913872E0;-1.250970364E0
5.619787500E0;3.088520288E0;-6.748057365E0;-1.644816518E0
5.629818500E0;8.547300100E-1;-9.605537415E0;-8.499416113E-1
5.639891500E0;1.182735682E0;-1.010233402E1;-1.045069098E0
5.660712500E0;3.718195200E0;-7.344213486E0;-2.525882721E0
5.679903500E0;3.175908566E0;-7.228095055E0;-2.291250944E0
5.691756500E0;1.501164436E0;-9.162610054E0;-1.228225470E0
5.710106500E0;8.822633028E-1;-1.092474270E1;-9.528923035E-1
5.720173500E0;1.164779186E0;-1.125514221E1;-1.063025594E0
5.740270500E0;1.944091797E0;-1.015979481E1;-1.590947032E0
5.761275500E0;1.449689150E0;-1.033816338E1;-1.243787766E0
5.771580500E0;1.430535555E0;-1.071884060E1;-7.960720658E-1
5.790196500E0;2.699462414E0;-9.550470352E0;-1.347935557E0
5.812659500E0;1.368286252E0;-1.036928749E1;-1.618480325E0
5.829959500E0;1.836352706E0;-8.443152428E0;-1.601720929E0
5.852464500E0;-1.149216771E0;-1.412339592E1;-7.589619160E-1
5.869835500E0;5.949591398E-1;-1.168011284E1;-6.991068721E-1
5.880879500E0;-1.807622313E-1;-1.176510715E1;-7.577648163E-1
5.899992500E0;3.697844505E0;-5.035006046E0;-1.339555860E0
5.919832500E0;3.059789658E0;-5.365406036E0;-1.641225219E0
5.929944500E0;3.855861902E0;-5.889736176E0;-1.684320927E0
5.940009500E0;3.825934410E0;-5.987898350E0;-1.394622445E0
5.950024500E0;3.050212860E0;-6.616376400E0;-8.631097078E-1
5.969864500E0;2.847903013E0;-7.947552681E0;-1.198297977E0
5.980173500E0;2.643198729E0;-8.856152534E0;-1.331176162E0
5.999804500E0;2.114080191E0;-8.212111473E0;-1.598129630E0
6.009918500E0;2.194285870E0;-7.928399086E0;-1.588552833E0
6.029952500E0;1.689109325E0;-7.219715118E0;5.267243832E-2
6.040432500E0;1.260547161E0;-7.097610950E0;1.349132657E0
6.059865500E0;1.022324085E0;-7.666234016E0;-3.895366192E0
6.069927500E0;1.892616391E0;-1.419282722E1;-3.995922565E0
6.090421500E0;3.074155092E0;-1.760097313E1;4.477157295E-1
6.109973500E0;3.732560396E0;-1.093312168E1;1.194706678E0
6.130239500E0;2.357091665E0;-6.581660271E0;-1.212663174E0
6.141141500E0;1.686715126E0;-5.876567841E0;-2.092532396E0
6.160008500E0;1.370680451E0;-6.904877663E0;-8.750807047E-1
6.180159500E0;2.820369720E0;-8.476671219E0;7.146692276E-1
6.190283500E0;3.058592558E0;-8.690952301E0;3.100491166E-1
6.210143500E0;2.361880064E0;-8.734047890E0;-1.902193308E0
6.229997500E0;1.302445769E0;-9.162610054E0;-2.281674147E0
6.240384500E0;1.267729759E0;-9.418789864E0;-1.796848416E0
6.260263500E0;1.659181833E0;-1.077989292E1;-1.964442492E0
6.279838500E0;2.051830769E0;-1.131619453E1;-3.116053581E0
6.289982500E0;2.412158251E0;-1.148738003E1;-3.873818398E0
6.300071500E0;2.980781078E0;-1.151132202E1;-4.807557106E0
6.319807500E0;4.137180328E0;-1.109233665E1;-5.111620426E0
6.330092500E0;4.413711071E0;-1.072123528E1;-4.305971622E0
6.340173500E0;4.289212227E0;-1.046266174E1;-3.396175146E0
6.350856500E0;4.155137062E0;-1.026274586E1;-3.107673883E0
6.369938500E0;3.712209702E0;-9.368511200E0;-4.006696701E0
6.380415500E0;3.396175146E0;-8.863334656E0;-4.946420670E0
6.390864500E0;2.867056608E0;-8.644265175E0;-6.009446144E0
6.409989500E0;1.856703401E0;-9.233239174E0;-7.384915352E0
6.420011500E0;1.607706428E0;-1.076792240E1;-6.410475254E0
6.430181500E0;2.005143881E0;-1.258512115E1;-4.669890404E0
6.450053500E0;4.029441357E0;-1.298016453E1;-3.610456228E0
6.460347500E0;3.464409828E0;-1.097142887E1;-2.275688648E0
6.480615500E0;6.344634295E-1;-9.458293915E0;3.816357613E0
6.499882500E0;-4.656722248E-1;-1.023521233E1;3.415328741E0
6.509921500E0;1.400607973E-1;-1.051174259E1;1.565807939E0
6.519921500E0;3.286041737E0;-1.013465595E1;-6.587646008E0
6.529935500E0;4.961983204E0;-1.034414864E1;-1.057279491E1
6.540436500E0;4.659116745E0;-1.118331623E1;-7.714118004E0
6.560963500E0;5.292382717E0;-1.182975101E1;-1.940500498E0
6.579846500E0;6.973112583E0;-1.117493629E1;-2.699462414E0
6.590016500E0;6.197391033E0;-1.112226391E1;-2.176329374E0
6.609991500E0;3.126827478E0;-1.059075165E1;-8.894459605E-1
6.629971500E0;1.403002143E0;-9.172186852E0;-2.586935043E0
6.649835500E0;1.290474772E0;-7.314286232E0;-3.153163671E0
6.659990500E0;1.780089021E0;-6.825869083E0;-2.686294317E0
6.670058500E0;1.886630893E0;-6.539762020E0;-1.454477549E0
6.690038500E0;1.022324085E0;-6.126761913E0;5.542576909E-1
6.700097500E0;7.817068696E-1;-5.761646271E0;1.046266198E0
6.710551500E0;4.201824069E-1;-5.589263916E0;1.571793437E0
6.730005500E0;-1.288080573E0;-6.209362030E0;1.304839998E-1
6.750005500E0;-1.187524080E0;-6.204573631E0;-9.085995555E-1
6.760044500E0;-7.757213712E-1;-6.011840343E0;-3.627215624E-1
6.780018500E0;-2.609679997E-1;-6.071695328E0;-1.302445769E0
6.799950500E0;-9.576806799E-3;-7.526173115E0;-4.232948780E0
6.819938500E0;2.047042370E0;-9.901221275E0;-1.114022064E1
6.839892500E0;2.604891539E0;-1.288439655E1;-1.288798809E1
6.850077500E0;2.364274263E0;-1.137126064E1;-1.133774185E1
6.869985500E0;9.983820915E-1;-7.861361504E0;-7.552509308E0
6.880342500E0;2.147598982E0;-5.628767967E0;-5.185841084E0
6.899801500E0;3.727771997E0;-6.284779310E-1;-2.485181332E0
6.910235500E0;3.767276287E0;6.823474914E-2;1.053448766E-1
6.929971500E0;2.492363930E0;-3.214215755E0;1.060870743E1
6.949983500E0;-2.517503023E0;-9.560047150E0;7.837419033E0
6.970239500E0;-1.513135433E1;-2.278082848E1;-3.647805786E1
6.990153500E0;-7.558494568E0;-1.240196514E1;1.146463490E1
7.009908500E0;-6.782773495E0;-3.954024076E0;1.641225219E0
7.029996500E0;-1.859097600E0;-7.831433773E0;1.500685596E1
7.049894500E0;8.655039072E-1;-1.592144108E1;5.640739441E0
7.060004500E0;1.945288897E0;-1.699883270E1;2.902969599E0
7.080296500E0;7.954735279E0;-1.994609451E1;-7.144298077E0
7.099784500E0;1.320761395E1;-2.456570625E1;-3.667917013E0
7.109972500E0;1.170764637E1;-2.551620483E1;-3.123236179E0
7.120028500E0;1.007001209E1;-2.558563614E1;-3.900154591E0
7.130102500E0;1.036928749E1;-2.323692513E1;-5.189432144E0
7.149955500E0;1.387679291E1;-1.613332748E1;-1.424550056E1
7.160580500E0;1.171842003E1;-1.455315495E1;-1.392946529E1
7.179931500E0;4.849455357E0;-1.220803452E1;-9.006986618E0
7.190156500E0;3.390189648E0;-1.015620327E1;-9.581595421E0
7.200160500E0;2.139219284E0;-7.717709064E0;-1.083136845E1
7.219827500E0;-6.500257850E-1;-4.447229862E0;-1.003769016E1
7.229908500E0;-2.527079821E0;-3.690661907E0;-7.365761757E0
7.240059500E0;-5.102043629E0;-3.417722940E0;-1.112944698E1
7.250276500E0;-3.371036053E0;-3.319560766E0;-5.240907669E0
7.270035500E0;-8.128314614E-1;-5.758054852E-1;-5.662286878E-1
7.290380500E0;4.321534038E-1;1.731007814E0;-2.843114614E0
7.309975500E0;-3.531447649E-1;7.685387731E-1;3.898957491E0
7.320056500E0;-3.351882398E-1;7.314286232E-1;2.829946518E0
7.340230500E0;-1.532289028E0;-5.985504016E-3;-8.340201378E0
7.359869500E0;1.102529883E0;-2.980781078E0;-3.730166197E0
7.369906500E0;2.238578558E0;-4.256890774E0;-3.082534790E0
7.379998500E0;3.931279182E0;-7.022193432E0;-5.485116005E0
7.390103500E0;6.737283707E0;-1.322796440E1;-4.492719650E0
7.409958500E0;3.191470861E0;-2.793315125E1;1.065419763E-1
7.421431500E0;-4.270058632E0;-2.851254845E1;-2.445677042E0
7.439948500E0;1.511938334E0;-2.019868279E1;-1.114620590E1
7.449994500E0;4.225766182E0;-1.654991913E1;-1.036689377E1
7.460792500E0;5.268440723E0;-1.577060699E1;-8.535328865E0
7.480060500E0;4.422090530E0;-1.871906662E1;-4.030638695E0
7.499814500E0;1.783680320E0;-1.785595703E1;-1.929726601E0
7.509927500E0;-8.020575345E-2;-1.628536034E1;-1.814804912E0
7.519963500E0;-1.406593442E0;-1.454597282E1;-9.983820915E-1
7.539987500E0;-2.117671490E0;-1.070567322E1;1.424550056E0
7.560129500E0;-1.679532528E0;-6.709750175E0;1.963245392E0
7.574739500E0;-1.395819545E0;-4.638765812E0;2.191891670E0
7.590084500E0;-1.885433793E0;-6.356605291E-1;3.027467966E0
7.609986500E0;-1.355118155E0;3.387795448E0;2.285265446E0
7.620094500E0;-6.871358752E-1;4.580107689E0;1.110909581E0
7.630160500E0;1.203086376E0;4.055777550E0;-2.318784237E0
7.649936500E0;-3.471592367E-1;-2.430114746E-1;-1.635239720E0
7.669807500E0;-5.506663918E-1;-4.823119164E0;4.393360019E-1
7.679944500E0;-1.101332754E-1;-5.771223068E0;-9.696516991E-1
7.690098500E0;3.112462163E-2;-7.125144482E0;-6.539762020E0
7.709821500E0;3.538630009E0;-1.274194145E1;-3.199611092E1
7.720000500E0;3.580528736E0;-1.406354046E1;-2.083434296E1
7.739980500E0;-4.129997730E0;-1.933557320E1;1.695573616E1
7.759875500E0;-7.168240070E0;-1.457230854E1;1.572391987E1
7.769963500E0;-3.730166197E0;-7.866149902E0;1.588672543E1
7.780008500E0;-9.744400978E-1;-2.030282974E0;1.798284912E1
7.790124500E0;-1.338358760E0;-7.398083210E-1;1.657984734E1
7.810023500E0;-7.581239700E0;-1.190756226E1;7.475894928E0
7.820100500E0;-1.032379818E1;-1.793257141E1;8.164227605E-1
7.840033500E0;-3.721786499E0;-3.085527420E1;-5.404910564E0
7.859968500E0;1.477820969E1;-2.751655960E1;-1.522951698E1
7.879886500E0;2.130360603E1;-2.801934242E1;-8.631097078E-1
7.890101500E0;1.928888512E1;-2.801335716E1;-9.109937549E-1
7.911568500E0;9.507374763E0;-2.222896576E1;-1.646133423E1
7.930308500E0;6.940790653E0;-1.017655468E1;-1.691264153E1
7.950054500E0;4.718971729E0;-3.242946148E0;-1.438436413E1
7.969830500E0;-6.105214357E-2;-1.177947283E0;-6.667851925E0
7.980747500E0;-1.110909581E0;-6.045359373E-1;-7.560888767E0
7.999891500E0;-8.307880163E-1;-2.294842243E0;-1.994369984E0
8.009942500E0;-1.246181965E0;-1.619677424E0;6.392518282E-1
8.029932500E0;1.389834046E0;3.744531393E0;-1.493622684E1
8.040067500E0;-1.587355733E0;1.114500880E0;-3.187879562E0
8.059899500E0;-1.352723956E0;-4.908113554E-2;4.377797604E0
8.070084500E0;-7.733271718E-1;5.985504389E-2;5.653907299E0
8.090037500E0;-2.693476975E-1;-1.622071624E0;1.672349930E0
8.110074500E0;1.525106430E0;-6.809109688E0;-1.240076733E1
8.120204500E0;3.898957491E0;-1.258990955E1;-1.452681923E1
8.139870500E0;2.152387381E0;-2.759197807E1;-6.894104004E0
8.150029500E0;-2.112883091E0;-3.079541969E1;-1.136048675E0
8.169970500E0;-7.663839817E0;-3.016813850E1;5.137956619E0
8.189974500E0;-1.318008065E0;-2.778710556E1;-2.142810583E0
8.209946500E0;5.889736176E0;-2.291610146E1;-1.122282028E1
8.229953500E0;8.847772598E0;-1.800679016E1;-3.473986626E0
8.249949500E0;2.194285870E0;-1.579215431E1;1.679532528E0
8.260448500E0;9.097966552E-2;-1.387559605E1;2.341529369E0
8.280126500E0;-1.181538582E0;-8.347384453E0;2.802412987E0
8.290210500E0;-6.715735793E-1;-5.167884350E0;2.746149302E0
8.310076500E0;-5.003881454E-1;1.163581967E0;6.065710068E0
8.320116500E0;-8.367735147E-1;4.219780445E0;7.449558735E0
8.339993500E0;-4.022258818E-1;7.216124058E0;7.110779285E0
8.360027500E0;-1.058237195E0;8.501810074E0;1.504755735E0
8.370105500E0;-9.074024558E-1;8.480262756E0;7.805097699E-1
8.389998500E0;-2.407369852E0;3.519476414E0;1.972822189E0
8.409912500E0;-3.744531393E0;-2.634819031E0;2.452859640E0
8.420460500E0;-9.864110947E-1;-3.282450438E0;1.037886381E0
8.439836500E0;2.495955229E0;-7.851784706E0;-2.078645897E1
8.449932500E0;3.299209833E0;-1.976174164E1;-3.922181320E1
8.470344500E0;3.196259260E0;-1.340872669E1;-2.139099503E1
8.490167500E0;-6.375759125E0;-1.633563805E1;2.583104134E1
8.509894500E0;-6.830657482E0;-1.647330475E1;2.703173447E1
8.529959500E0;-6.847416759E-1;-2.536656618E0;1.821867752E1
8.540058500E0;-2.151190281E0;-3.039438963E0;1.294185734E1
8.560360500E0;-1.083974838E1;-1.576701546E1;4.697423935E0
8.579848500E0;-9.281123161E0;-2.484702492E1;7.817068696E-1
8.589885500E0;-5.401319027E0;-2.871485901E1;5.865794048E-2
8.600024500E0;-1.612494826E0;-3.292506027E1;7.577648163E-1
8.619805500E0;3.108990669E1;-3.297055054E1;-3.655587006E1
8.629952500E0;2.499187469E1;-3.310582352E1;-1.581609631E1
8.650133500E0;8.747216225E0;-2.597589111E1;-1.912967205E0
8.669852500E0;3.213018656E0;-1.150294209E1;-1.825818253E1
8.690303500E0;2.456450939E0;-1.346738458E0;-2.254021263E1
8.710188500E0;2.634819031E0;3.666719913E0;-1.341950035E1
8.720233500E0;3.114856482E0;5.120000362E0;-6.597222805E0
8.740008500E0;2.922123194E0;1.213860273E0;2.683900118E0
8.750089500E0;5.267243981E-1;-1.108515382E0;2.993949175E0
8.760342500E0;-8.032546639E-1;-4.728548229E-1;3.405751944E0
8.780152500E0;1.316810958E-2;1.487996340E0;1.401805043E0
8.799921500E0;-4.005499363E0;5.973533392E-1;-1.519001293E1
8.809993500E0;-7.541735172E-1;-2.394201756E-1;5.100846767E0
8.829879500E0;-1.261744261E0;-1.456871748E0;3.502717018E0
8.839885500E0;-2.665943623E0;-3.944447279E0;-1.193389797E1
8.849998500E0;-1.702277422E0;-7.396886349E0;-1.606269836E1
8.869884500E0;3.053804159E0;-1.366251183E1;-8.887276649E0
8.890136500E0;1.095347285E0;-2.780506134E1;-7.856573105E0
8.909947500E0;-6.276399612E0;-3.110307503E1;2.466027737E0
8.930334500E0;-8.372523308E0;-3.018130684E1;1.400607973E-1
8.949771500E0;-1.170764685E0;-2.729270172E1;-1.203924370E1
8.959919500E0;2.325966835E0;-2.545515251E1;-1.111627865E1
8.969937500E0;4.805162907E0;-2.376245117E1;-7.449558735E0
8.990022500E0;4.835090160E0;-2.072660446E1;-2.849099934E-1
9.010497500E0;-2.128445387E0;-1.192073059E1;3.511096716E0
9.030102500E0;-2.601300240E0;-6.027402878E0;2.926911592E0
9.050262500E0;-8.463503122E-1;-1.915361360E-2;4.169502258E0
9.069986500E0;6.416460276E-1;6.166266441E0;5.012261391E0
9.080189500E0;1.830367208E0;8.280346870E0;4.557363033E0
9.090236500E0;1.832761407E0;8.979453087E0;3.839102507E0
9.109994500E0;8.607155085E-1;8.525752068E0;2.129642487E0
9.129931500E0;-1.478419542E0;3.834314108E0;6.491878033E0
9.140072500E0;-3.241749048E0;-3.639186621E-1;5.491101742E0
9.160715500E0;-2.619256735E0;-4.541800499E0;2.920926094E0
9.179812500E0;-7.302315533E-2;-3.302801132E0;-1.094150186E0
9.190126500E0;1.253364563E0;-4.394556999E0;-1.058955383E1
9.200273500E0;9.275136948E0;-2.308010483E1;-3.922181320E1
9.219829500E0;-1.240196466E0;-1.606988144E1;2.818454170E1
9.229950500E0;-9.398438454E0;-1.695454025E1;2.406172752E1
9.249917500E0;-1.008318043E1;-1.106360626E1;3.072957802E1
9.269941500E0;-5.402516365E0;-5.674257874E-1;2.164478111E1
9.280001500E0;-6.712144375E0;-6.379350662E0;1.415092945E1
9.299789500E0;-1.469800377E1;-2.178484154E1;2.062604666E0
9.310359500E0;-1.438316631E1;-2.584899902E1;-3.175908566E0
9.322120500E0;-1.188002872E1;-2.956240463E1;-9.570821762E0
9.339875500E0;-2.585737705E-1;-3.208110428E1;-7.313088894E0
9.350054500E0;6.757634163E0;-3.364212418E1;-1.213022327E1
9.369807500E0;2.793195343E1;-3.536116028E1;-1.177588081E1
9.379964500E0;2.170702934E1;-3.231932831E1;4.094084740E0
9.389998500E0;5.003881454E0;-2.148317146E1;-7.846996307E0
9.410002500E0;-1.572990537E0;-8.207323074E0;-2.944508934E1
9.430068500E0;4.219780445E0;7.493851185E-1;-1.620036507E1
9.449944500E0;6.835445881E0;3.851073503E0;-6.943184733E-1
9.460835500E0;6.294356346E0;2.876633406E0;8.415619135E-1
9.479877500E0;2.274491638E-2;3.232172132E-2;3.711012602E-1
9.490147500E0;-5.985504389E-1;8.475474119E-1;3.603273630E-1
9.510024500E0;-7.852981687E-1;3.306392431E0;-1.772427559E1
9.529865500E0;-1.839944005E0;1.280897856E-1;4.479551315E0
9.540419500E0;-2.110488892E0;-2.023100406E-1;3.822343111E0
9.559861500E0;-6.997054577E0;-3.652354717E0;-1.687672806E1
9.569892500E0;-4.678270340E0;-5.479130745E0;-1.274672985E1
9.590308500E0;1.781286120E0;-1.088882923E1;-4.390965939E0
9.609958500E0;2.642001629E0;-2.256894302E1;-6.878541470E0
9.619991500E0;6.548141837E-1;-2.902610397E1;-3.901351690E0
9.630107500E0;-3.529053211E0;-3.369599533E1;-2.206256866E0
9.640158500E0;-8.037335396E0;-3.580289078E1;-1.425747156E0
9.660008500E0;-9.403226852E0;-3.417363739E1;-4.129997730E0
9.679768500E0;-4.393360019E-1;-2.458366394E1;-8.056488991E0
9.689987500E0;4.162319660E0;-2.097320747E1;-6.698976517E0
9.700089500E0;6.521805286E0;-1.935592270E1;-4.647145271E0
9.720273500E0;2.653972626E0;-1.814326096E1;1.972822189E0
9.740102500E0;-2.577358246E0;-1.405516148E1;2.444479942E0
9.759920500E0;-1.985990286E0;-7.225700855E0;2.621650934E0
9.769983500E0;-6.715735793E-1;-3.357867956E0;3.301604033E0
9.789879500E0;2.885013103E0;7.823053837E0;8.240841866E0
9.799904500E0;4.013879299E0;9.962273598E0;9.198522568E0
9.809985500E0;3.477577925E0;1.082418633E1;8.347384453E0
9.829895500E0;6.536170840E-1;1.113303757E1;5.878962040E0
9.839995500E0;-1.651999205E-1;9.591172218E0;6.845022678E0
9.859951500E0;-2.551021814E0;2.889801502E0;5.184643745E0
9.870294500E0;-3.288435936E0;-1.484405100E-1;3.276464939E0
9.889896500E0;-1.685518026E0;-2.924517393E0;2.057816267E0
9.910102500E0;6.596025825E-1;-9.204508781E0;-2.704609871E1
9.930105500E0;-6.907271743E-1;-2.369062614E1;-3.922181320E1
9.949784500E0;-1.286883354E0;-1.218169785E1;3.610456228E0
9.960105500E0;-2.875436306E0;-1.239957047E1;3.906738663E1
9.980144500E0;-2.867056608E0;-1.357632065E1;2.661155128E1
9.991952500E0;4.393360019E-1;-7.189787865E0;1.916319084E1
1.001041050E1;-5.740098476E0;-1.065539455E1;1.232056236E1
1.002997950E1;-1.132217979E1;-1.878131485E1;3.730166197E0
1.004991350E1;-7.691372871E0;-2.468541718E1;3.687070608E-1
1.006992550E1;1.470039845E0;-3.245579910E1;3.646369219E0
1.009015350E1;1.046864700E1;-3.844489288E1;8.063671112E0
1.011008950E1;2.622608566E1;-3.577176666E1;-3.917272949E1
1.012997250E1;7.337030888E0;-2.368344307E1;-6.958747387E0
1.014011750E1;4.904522419E0;-1.528458405E1;-1.258751583E1
1.015988450E1;2.993949175E0;-3.683479309E0;-2.107017136E1
1.016996550E1;2.483984232E0;4.836287498E-1;-1.675701714E1
1.018985850E1;3.387795448E0;4.819528103E0;1.186326981E0
1.019993550E1;2.946065187E0;3.253720045E0;8.092401624E-1
1.021983350E1;1.155202270E0;2.388216257E0;-7.386112213E-1
1.023004050E1;4.333505154E0;4.862623692E0;-1.236365795E1
1.024022350E1;1.376665980E-1;3.731363297E0;-1.166455078E1
1.026052750E1;-2.042253971E0;6.236895323E-1;2.468421936E0
1.027989050E1;-3.464409828E0;8.379705995E-2;-5.962759495E0
1.028993550E1;-5.914875507E0;-1.643619418E0;-1.875737381E1
1.031002050E1;-1.179144382E0;-4.027047157E0;-7.685387731E-1
1.032017050E1;3.950432688E-2;-4.303577423E0;-2.178723514E-1
1.034000250E1;1.568202078E-1;-1.359068584E1;-9.763554573E0
1.035028250E1;2.015917778E0;-2.139338875E1;-6.690596581E0
1.037016950E1;-7.471106529E0;-3.921582794E1;-4.671087742E0
1.038190050E1;-1.288679028E1;-3.921582794E1;-4.065354347E0
1.039988050E1;-1.115099430E1;-3.351642990E1;-7.262810707E0
1.040997250E1;-4.782417774E0;-2.716102028E1;-8.349778175E0
1.043064850E1;3.371036053E0;-1.845690155E1;-4.380191803E0
1.044992850E1;1.691503525E0;-1.513255215E1;3.895366192E0
1.047000050E1;-9.648633003E-1;-1.105402946E1;6.277596951E0
1.049017450E1;-1.083376288E0;-6.651092529E0;4.106055737E0
1.050044950E1;-5.470750928E-1;-3.896563292E0;3.705027103E0
1.051984650E1;2.388216257E0;4.188655853E0;5.743690014E0
1.052987350E1;3.786429882E0;8.044517517E0;6.797138691E0
1.055001850E1;2.899378300E0;1.091157436E1;5.294776917E0
1.056989450E1;8.834604025E-1;7.862558365E0;6.852205276E0
1.059000850E1;-1.770512104E0;2.224213362E0;5.504269600E0
1.060999950E1;-3.155557871E0;-3.912125587E0;1.831564307E0
1.063005250E1;-4.548983276E-1;-6.093243122E0;-2.790441990E0
1.064978250E1;-5.817910194E0;-2.895068741E1;-3.922181320E1
1.065987150E1;4.833893299E0;-2.166632843E1;-3.922181320E1
1.067982450E1;2.103306293E0;-8.178592682E0;3.640982056E1
1.069002450E1;-4.944026470E-1;-9.416395187E0;3.720349884E1
1.070998650E1;-8.508993149E0;-1.483447361E1;2.837248802E1
1.072031550E1;-4.517858505E0;-9.742006302E0;2.333149529E1
1.073986350E1;-4.607641220E0;-5.586869717E0;1.794573975E1
1.074989450E1;-8.237251282E0;-1.133774185E1;1.201171017E1
1.075991050E1;-1.118690777E1;-1.691144371E1;4.697423935E0
1.076996150E1;-1.053807831E1;-2.317228127E1;-4.076128483E0
1.078042350E1;-8.975862503E0;-2.753212166E1;-4.679467201E0
1.079984550E1;4.608838260E-1;-3.286759949E1;7.015010715E-1
1.081006850E1;5.367800236E0;-3.648284531E1;2.327163935E0
1.082985150E1;3.068648338E1;-3.799358749E1;-2.814384079E1
1.083985850E1;2.218467331E1;-3.539946747E1;-1.616445351E1
1.084987750E1;8.965087891E0;-3.096660423E1;-5.155913353E0
1.086987250E1;3.748122692E0;-1.222359657E1;-2.453338432E1
1.088011850E1;5.110423565E0;-5.966350555E0;-2.519178963E1
1.089048650E1;5.280411720E0;-2.144007683E0;-1.892855835E1
1.091005750E1;3.023876667E0;2.618059635E0;-4.089296341E0
1.093004150E1;1.810016513E0;2.456450939E0;-8.882488012E-1
1.095019350E1;1.526303530E0;1.963245392E0;-4.220977783E0
1.096989250E1;-1.399410844E0;1.405396342E0;-3.157952070E0
1.098009250E1;-2.719813108E0;4.967968464E-1;-1.774103403E0
1.099981950E1;-2.292448044E0;2.035071515E-2;6.823474914E-2
1.101009850E1;-2.741360903E0;-6.045359373E-1;-1.456871748E0
1.102991750E1;-3.470395327E0;-4.906916618E0;-1.372116947E1
1.104020550E1;-1.300051570E0;-5.521028996E0;-5.088875771E0
1.105028050E1;5.267243832E-2;-5.908889771E0;-1.489193439E0
1.107031450E1;1.082179189E0;-1.875976753E1;-8.400056839E0
1.109052350E1;-1.624465823E0;-3.371155548E1;-3.764882088E0
1.111010950E1;-1.124077702E1;-3.921582794E1;-2.753331885E-2
1.113062850E1;-1.217451572E1;-3.453635788E1;-7.076063156E0
1.114075450E1;1.030703783E0;-2.186983490E1;-6.321889400E0
1.115084550E1;3.791218281E0;-1.896327400E1;-4.422090530E0
1.116174950E1;3.711012602E0;-1.769434738E1;-1.346738458E0
1.117981150E1;1.831564307E-1;-1.471236992E1;5.082890034E0
1.118988350E1;-8.894459605E-1;-1.284130096E1;4.468777657E0
1.119996550E1;-1.989581585E0;-1.109712505E1;3.575740337E0
1.122025850E1;-2.157175779E0;-6.636727333E0;3.442862034E0
1.124000450E1;-5.734112859E-1;8.176198602E-1;3.552995205E0
1.125000450E1;1.541865945E0;5.971138954E0;5.285200119E0
1.126987850E1;4.462791920E0;1.183932781E1;7.077260017E0
1.129001050E1;2.264914751E0;1.067454815E1;5.779603004E0
1.130012850E1;1.491587639E0;9.291896820E0;6.339846134E0
1.131982150E1;-1.356315255E0;4.781220913E0;3.857059002E0
1.132990650E1;-2.537853718E0;2.324769735E0;1.048660398E0
1.133999950E1;-2.722207308E0;-4.764461517E-1;-1.150413871E0
1.135989050E1;-2.928108692E0;-1.283172417E1;-3.101807976E1
1.136997750E1;-5.291185856E0;-1.942176437E1;-3.783078003E1
1.139005450E1;3.548206806E0;-1.521634865E1;-3.485478973E1
1.141018550E1;-4.007893562E0;-1.284130096E1;3.847482300E1
1.142997950E1;-2.468421936E0;-1.377025127E1;3.781042862E1
1.144024550E1;2.701856613E0;-5.896918774E0;2.793075752E1
1.146110650E1;3.153163671E0;-2.021903276E0;1.708981133E1
1.147991150E1;-7.671022415E0;-1.553956604E1;9.350554466E0
1.149010750E1;-1.045308495E1;-2.186624336E1;5.844246387E0
1.151116050E1;-8.609549522E0;-3.079422188E1;1.206677675E0
1.152991850E1;-7.948749661E-1;-3.797682571E1;-1.168370485E0
1.154982450E1;2.990238190E1;-3.778648758E1;-3.815280151E1
1.156139550E1;2.156457520E1;-3.370676804E1;-1.677497482E1
1.157984550E1;7.527369976E0;-1.878849792E1;4.796782970E0
1.158991350E1;4.720168591E0;-1.195305157E1;-7.079654217E0
1.160019550E1;2.732981205E0;-5.631162167E0;-2.494159698E1
1.161035050E1;3.190273762E0;-1.059434295E0;-2.840241432E1
1.162989250E1;4.375403404E0;2.165555477E0;-7.162254333E0
1.164005050E1;3.186682463E0;2.256535053E0;-1.110909581E0
1.165984250E1;1.128866076E0;1.520318031E0;-1.164779186E0
1.167984850E1;4.214992046E0;3.824737310E0;-1.341950035E1
1.169043050E1;2.920926094E0;4.220977783E0;-2.269703293E1
1.171001050E1;-2.191891670E0;5.686228871E-1;-2.859874010E0
1.173000650E1;-3.495534360E-1;3.746925592E-1;2.552218914E0
1.174011950E1;-9.864110947E-1;-6.248866320E-1;2.669534922E0
1.175990450E1;-2.778470993E0;-5.481524944E0;-6.991068840E0
1.177983550E1;2.825157940E-1;-9.670180321E0;-4.693832397E0
1.178992050E1;2.159569979E0;-1.703115463E1;-8.644265175E0
1.181003650E1;6.548141837E-1;-3.540066528E1;-2.436100245E0
1.182019950E1;-3.102885485E0;-3.908294678E1;4.991910458E-1
1.183058150E1;-7.137115479E0;-3.921582794E1;1.806425214E0
1.185036950E1;-6.168660641E0;-3.395456696E1;-1.014782429E1
1.186189750E1;-1.072602391E0;-2.611954308E1;-8.681375504E0
1.188015550E1;6.210559368E0;-1.686116600E1;-2.365471363E0
1.189995150E1;5.574898720E0;-1.513494587E1;2.701856613E0
1.191001250E1;1.754949808E0;-1.484285355E1;4.618414879E0
1.192012050E1;-8.726865053E-1;-1.358829212E1;3.895366192E0
1.194000950E1;-1.930923700E0;-5.944802761E0;2.511517525E0
1.195999450E1;-2.633621916E-2;1.170764685E0;2.373851061E0
1.196999950E1;1.593341231E0;4.848258495E0;3.598485231E0
1.198991950E1;3.932476282E0;9.562441826E0;6.623558998E0
1.201014450E1;1.802833915E0;9.192537308E0;3.991134167E0
1.203019250E1;-7.433996201E-1;6.005855083E0;4.021061897E0
1.204981250E1;-2.201468468E0;4.896142483E-1;2.546233416E0
1.205989650E1;-1.053448796E0;-1.399410844E0;1.319205165E0
1.207999350E1;1.915361285E-1;-3.861847401E0;-9.350554466E0
1.209987350E1;-1.586158633E0;-1.894531822E1;-3.922181320E1
1.211090650E1;4.243722439E0;-2.110608482E1;-3.922181320E1
1.212998950E1;1.612494826E0;-1.201051235E1;3.656544495E1
1.214008050E1;-7.538144112E0;-1.737472153E1;3.278739548E1
1.215031450E1;-5.139153957E0;-1.527859783E1;3.377859497E1
1.217131450E1;1.762132406E0;-2.743755102E0;1.930205345E1
1.218994350E1;-6.568492413E0;-1.089960289E1;1.188601398E1
1.220031850E1;-1.001614285E1;-1.649964142E1;6.810306549E0
1.221982450E1;-9.680954933E0;-2.363436127E1;-1.915361360E-2
1.222993550E1;-6.743268967E0;-2.839642906E1;-1.332373261E0
1.223999850E1;-2.568978310E0;-3.303399658E1;-9.756371975E-1
1.226018250E1;7.274781704E0;-3.913681793E1;1.010353088E0
1.227979350E1;3.093428230E1;-3.753749084E1;-3.918230820E1
1.229017650E1;2.005862236E1;-3.238636780E1;-1.664209557E1
1.230987950E1;5.019443989E0;-1.786194229E1;-4.395754337E0
1.232988950E1;5.985504389E-1;6.129156351E-1;-2.066076279E1
1.234005050E1;9.708487988E-1;2.205059767E0;-1.128746414E1
1.235992750E1;1.941697598E0;2.688688517E0;-9.648633003E-1
1.237983650E1;1.983596087E0;2.845508814E0;-7.849390507E0
1.238990350E1;3.040636063E0;3.866635799E0;-1.330218506E1
1.239993150E1;7.433996201E-1;2.144007683E0;-4.967968464E0
1.241005650E1;-7.290344238E-1;7.290344238E-1;1.783680320E0
1.242081150E1;-5.578489900E-1;4.812345505E-1;3.663128614E0
1.243986250E1;-6.847416759E-1;4.309563041E-1;2.715024710E0
1.244987550E1;-1.393425345E0;1.735796183E-1;-7.062894851E-2
1.245992250E1;-4.015076160E0;-7.278373241E-1;-1.258033276E1
1.246999250E1;-4.004302502E0;-2.352303267E0;-7.860164165E0
1.248994850E1;3.028665185E-1;-3.344699860E0;-1.819593310E0
1.251001750E1;2.741360962E-1;-9.572018623E0;-1.518402672E1
1.252016850E1;1.162384868E0;-1.770272827E1;-1.539830780E1
1.254037850E1;-5.504269600E0;-3.921582794E1;4.106055737E0
1.255983850E1;-1.159392166E1;-3.920624924E1;4.580107689E0
1.256989050E1;-6.815094948E0;-3.434841537E1;-7.062894821E0
1.259050650E1;1.301248670E0;-2.040099335E1;-7.116764545E0
1.261000250E1;2.243366957E0;-1.453878975E1;8.439561129E-1
1.262999050E1;-5.997475386E-1;-1.178066921E1;7.462726593E0
1.265152250E1;-1.499967337E0;-8.210914612E0;3.726574898E0
1.267001550E1;-4.836287498E-1;-3.086126089E0;2.014720678E0
1.268992750E1;1.422155857E0;4.344278812E0;2.883816004E0
1.271012650E1;3.754108191E0;9.097966194E0;6.430825710E0
1.272990150E1;1.352723986E-1;7.867346764E0;6.183025837E0
1.274987250E1;-3.087323189E0;3.027467966E0;7.414842606E0
1.275995350E1;-3.938461781E0;3.543418646E-1;5.549759388E0
1.277980450E1;-1.887827992E0;-2.418143749E0;1.438915253E0
1.278989150E1;-6.165069342E-1;-2.592920542E0;-1.921346903E0
1.281011550E1;-2.966415882E0;-2.098876953E1;-3.922181320E1
1.283032350E1;6.519411087E0;-1.972941971E1;-3.106357002E1
1.284986550E1;-2.859874010E0;-1.582806778E1;3.921463013E1
1.285987250E1;-3.438073635E0;-1.783799934E1;3.921463013E1
1.286990650E1;2.885012925E-1;-1.338239002E1;3.498646927E1
1.288992550E1;4.429273129E0;-8.858546019E-1;1.943373489E1
1.290026350E1;1.146822572E0;-4.223371983E0;1.370201588E1
1.291985450E1;-1.006402683E1;-2.180160141E1;1.854309201E0
1.293001850E1;-1.079545593E1;-2.691202354E1;-8.128314614E-1
1.294060750E1;-9.652224541E0;-3.142389679E1;-2.232593060E0
1.295991150E1;-1.619677424E0;-3.806301880E1;-1.115697980E0
1.297992850E1;1.503319263E1;-3.921582794E1;-3.945644379E0
1.300060850E1;2.975633621E1;-3.117370415E1;-3.344101334E1
1.301092950E1;1.691503525E1;-2.555092049E1;-4.817133904E0
1.302992550E1;5.902904510E0;-1.094868469E1;-1.128506947E1
1.304010250E1;4.169502258E0;-5.099649429E0;-1.869272995E1
1.306006650E1;3.621230125E0;1.714248419E0;-1.036809063E1
1.307996150E1;2.376245260E0;2.142810583E0;-1.628057122E0
1.308996450E1;1.756146908E0;2.323572636E0;-3.199850559E0
1.310992450E1;4.170699596E0;4.568136692E0;-1.852992439E1
1.313021650E1;-3.082534790E0;-3.423708379E-1;-3.649960518E0
1.314984550E1;-1.320402265E0;-9.097966552E-2;4.665102005E0
1.316004350E1;-6.500257850E-1;1.197100850E-3;5.766434669E0
1.317008050E1;-7.661445141E-1;-1.592144072E-1;4.631583214E0
1.318993750E1;-2.018311977E0;-3.792415380E0;-1.292270374E1
1.319997450E1;-3.938461840E-1;-5.707777023E0;-8.628703117E0
1.321012250E1;7.793126702E-1;-6.527791023E0;-4.323928356E0
1.323006650E1;1.064222693E0;-1.991616631E1;-1.311902809E1
1.324989050E1;-5.940014362E0;-3.633679962E1;-3.005920172E0
1.325991150E1;-1.107797146E1;-3.913322830E1;5.166687489E0
1.327000750E1;-1.457590008E1;-3.921582794E1;6.916848660E0
1.329005550E1;-4.039018154E0;-3.204279709E1;-8.111555099E0
1.330012150E1;3.303998411E-1;-2.381751823E1;-6.154295444E0
1.331033350E1;3.418920040E0;-1.537676048E1;-2.258929253E0
1.332997750E1;-8.702923059E-1;-1.339316463E1;2.394201756E0
1.334998550E1;-3.623624325E0;-1.021486187E1;2.500743628E0
1.337031150E1;-3.136404276E0;-4.748898983E0;2.612074137E0
1.339047550E1;1.637633920E0;3.597288132E0;4.322731018E0
1.340951250E1;5.604825974E0;9.714473724E0;5.683835030E0
1.342717450E1;5.604825974E0;9.714473724E0;5.683835030E0
1.344005550E1;2.822763920E0;8.103176117E0;4.169502258E0
1.346104450E1;5.985504016E-3;4.930858612E0;2.308010340E0
1.348008350E1;-1.447294950E0;-4.285621047E-1;1.106121182E0
1.349999650E1;-8.738835901E-2;-2.928108692E0;-5.303156972E-1
1.351000950E1;-2.845508814E0;-1.373314095E1;-3.844609070E1
1.352989350E1;5.799953461E0;-1.220923138E1;-3.536475372E1
1.353994350E1;2.110488892E0;-8.754398346E0;1.642063141E1
1.356060350E1;-6.153098583E0;-1.124556541E1;2.450345802E1
1.357985650E1;-8.147468567E0;-1.735317421E1;2.460880280E1
1.359019650E1;-7.565677166E0;-1.615008736E1;2.018671227E1
1.360987050E1;-6.676231384E0;-1.590827274E1;1.072961521E1
1.361995550E1;-7.327454090E0;-1.787989807E1;6.549338818E0
1.364111850E1;-6.155492783E0;-2.065956688E1;1.795651317E-1
1.365982650E1;-1.774103403E0;-2.640205956E1;1.233013868E0
1.366988550E1;8.726865053E-1;-2.939959908E1;1.594538331E0
1.367992150E1;5.221754074E0;-3.218884659E1;7.876923680E-1
1.369000950E1;1.029267311E1;-3.576099396E1;4.310760021E0
1.370001350E1;2.725439453E1;-3.842933273E1;-3.401202774E1
1.371008950E1;1.728493881E1;-2.795829010E1;-1.792299461E1
1.372991050E1;8.488641739E0;-1.059673691E1;-1.014423275E1
1.373997650E1;4.505887508E0;-7.224503517E0;-1.711375427E1
1.375997650E1;-7.793126702E-1;-6.871358752E-1;-1.674624443E1
1.377987950E1;-8.343793154E-1;1.765723705E0;-4.316745758E0
1.378998350E1;2.394201756E-1;1.777694821E0;-2.226607651E-1
1.381002350E1;2.123656988E0;3.891774893E0;-1.231697083E1
1.382990450E1;1.604115069E-1;1.733402014E0;-1.328781962E0
1.383994650E1;-2.980781198E-1;1.313219666E0;4.525041282E-1
1.385014750E1;-5.398924947E-1;1.189918280E0;5.422866940E-1
1.387127950E1;-9.181763530E-1;6.548141837E-1;-5.410895944E-1
1.388305650E1;-3.503914118E0;-1.012747288E0;-1.077989292E1
1.389991550E1;2.454056740E-1;-2.705447912E0;2.896983922E-1
1.390994550E1;1.013944387E0;-3.258508444E0;1.748964310E0
1.392994950E1;6.679822803E-1;-9.442731857E0;-9.363722801E0
1.395004050E1;8.858546615E-2;-3.588429642E1;-1.183573627E1
1.396983750E1;-1.423113537E1;-3.921582794E1;2.440888643E0
1.397996950E1;-2.003827095E1;-3.921582794E1;5.322310448E0
1.398999450E1;-1.696291924E1;-3.831081772E1;3.031059265E0
1.401006750E1;-3.235763550E0;-2.114080048E1;-2.466027737E0
1.403009150E1;8.918401599E-1;-1.170046329E1;-7.984662652E-1
1.404009350E1;1.416170359E0;-9.238027573E0;2.257732153E0
1.405986250E1;-1.313219666E0;-7.751227856E0;4.781220913E0
1.406990750E1;-2.551021814E0;-7.297526836E0;3.517082214E0
1.408997250E1;-1.636436820E0;-3.547009706E0;3.366247654E0
1.410986250E1;2.591723442E0;5.993884087E0;3.335123062E0
1.412007550E1;3.537432909E0;8.002618790E0;2.975992680E0
1.414004650E1;2.932897091E0;7.478289127E0;2.630030632E0
1.415006050E1;2.263717651E0;6.342240334E0;2.501940727E0
1.416991750E1;6.895300746E-1;3.397372246E0;1.929726601E0
1.418046450E1;1.328781992E-1;1.823184609E0;-4.668693244E-2
1.420020150E1;-1.149216816E-1;-1.607706428E0;-1.893813491E0
1.421997450E1;9.002198577E-1;-9.980229378E0;-2.236304092E1
1.424012750E1;4.013879299E0;-1.129584408E1;-3.567959213E1
1.425987450E1;-1.391031146E0;-5.565321922E0;2.439811325E1
1.427997150E1;-8.021772385E0;-9.989806175E0;7.320271492E0
1.429001650E1;-1.155322075E1;-2.249232864E1;2.342008018E1
1.431004550E1;-1.237084007E1;-2.495596123E1;2.135987091E1
1.433001550E1;-5.984307289E0;-2.395997429E1;6.977900982E0
1.434011850E1;-5.230133533E0;-2.504694176E1;2.852691412E0
1.436000250E1;-4.724956989E0;-2.700779152E1;-1.163581967E0
1.437001550E1;-2.743755102E0;-2.758599281E1;-1.744175911E0
1.438992450E1;3.916913986E0;-2.983773804E1;-6.272808552E0
1.439995650E1;1.928649139E1;-2.652176857E1;-3.874416733E1
1.441029050E1;1.718677711E1;-2.442325211E1;-3.259825134E1
1.442034950E1;1.091875648E1;-2.271738243E1;-7.771578789E0
1.444134550E1;5.183446884E0;-1.302565479E1;2.426523447E0
1.446053850E1;-6.236895323E-1;-4.793191910E0;-1.996045876E1
1.447997550E1;-1.915361404E0;-3.208230138E-1;-1.293467426E1
1.449983650E1;1.414973259E0;1.460463047E0;2.292448044E0
1.450998150E1;9.852139950E-1;1.205480576E0;1.329979062E0
1.452990450E1;4.387374401E0;3.468001127E0;-1.051054573E1
1.455013850E1;9.253589511E-1;2.476801634E0;-6.380547523E0
1.456992450E1;-2.588132143E0;7.230489254E-1;-3.284844637E0
1.458993850E1;-2.255337954E0;2.549824715E-1;-2.715024710E0
1.460979750E1;-7.841010690E-1;-3.300406933E0;-5.355829239E0
1.461982550E1;2.279279947E0;-3.958812475E0;-6.883329749E-1
1.462998450E1;4.187458992E0;-5.031414986E0;-3.734954596E-1
1.464016350E1;6.901286602E0;-1.100734234E1;-2.642001629E0
1.465987050E1;7.238868713E0;-3.459621429E1;-1.778891921E0
1.466995650E1;-9.935937077E-2;-3.921582794E1;2.492363930E0
1.468014550E1;-1.128387260E1;-3.921223450E1;-1.726219416E0
1.469982650E1;-7.435193539E0;-2.502659035E1;-2.047042370E0
1.470992950E1;-6.432023048E0;-1.919551277E1;-1.304839998E-1
1.472003050E1;-4.317942619E0;-1.501284218E1;1.041477680E0
1.474006250E1;-1.028309584E0;-1.004607010E1;2.914940596E0
1.476135950E1;1.572990537E0;-8.631096840E0;2.908954918E-1
1.478080550E1;-2.026691675E0;-1.014183807E1;1.484405041E0
1.480015950E1;-4.104858875E0;-6.014234543E0;2.360682964E0
1.481983950E1;-5.195417404E-1;1.879448295E-1;1.649604917E0
1.482991550E1;6.332663298E-1;2.188300371E0;6.129156351E-1
1.484001050E1;1.389834046E0;3.967192173E0;-8.786720037E-1
1.485003950E1;1.765723705E0;5.070919037E0;-9.349357486E-1
1.486986850E1;1.102529883E0;4.905719280E0;1.758541107E0
1.487993550E1;5.386953950E-1;3.300406933E0;1.872265697E0
1.489038950E1;3.722983599E-1;2.555810213E0;1.059434295E0
1.490997550E1;6.560112834E-1;1.555034041E0;-1.711854219E0
1.492991450E1;9.732429981E-1;-4.678270340E0;-1.466927338E1
1.494034050E1;-1.049857497E0;-6.057330132E0;-1.636915779E1
1.495998250E1;1.942894697E0;-1.032619190E1;-3.453157043E1
1.497993450E1;-2.240972757E0;-4.307168961E0;2.621052361E1
1.499018350E1;-5.714959621E0;-7.240066051E0;9.075222015E0
1.500998150E1;-4.258087635E0;-7.793126583E0;5.833472252E0
1.502995550E1;-8.747216225E0;-2.361520767E1;2.211883163E1
1.504029750E1;-8.376114845E0;-2.693117714E1;2.548867035E1
1.505983250E1;7.541735172E-1;-2.631706429E1;1.007360363E1
1.507005550E1;5.434837937E-1;-2.746867561E1;4.668693244E-2
1.508998550E1;5.747281075E0;-2.573168182E1;-1.649485207E1
1.510989250E1;9.094375610E0;-2.235944939E1;-1.531331444E1
1.512990250E1;5.553350925E0;-1.944331169E1;-8.584410667E0
1.513991050E1;5.807136059E0;-1.560301208E1;-9.498994827E0
1.515992250E1;5.157110691E0;-1.055124664E1;-1.130302620E1
1.516999250E1;3.114856482E0;-9.150638580E0;-9.950302124E0
1.519005750E1;-1.361103654E0;-6.080075264E0;-1.028189945E1
1.521074550E1;-5.025429249E0;-3.621230125E0;-7.162254333E0
1.523008750E1;-2.372653961E0;-1.861491799E0;3.424905539E0
1.524991750E1;-1.455674648E0;6.464344859E-1;2.233790159E0
1.526991350E1;-1.782483220E0;7.793126702E-1;-1.025556278E1
1.529001350E1;-9.792284966E-1;-1.137245819E-1;2.705447972E-1
1.530009750E1;-8.355764151E-1;-2.789244950E-1;1.678335428E0
1.531119350E1;-9.385270476E-1;-2.980781198E-1;1.689109325E0
1.532993450E1;-2.938882589E0;-8.367735147E-1;-5.816712856E0
1.534023550E1;-3.017891169E0;-1.482010841E0;-5.979518890E0
1.535990550E1;6.320692301E-1;-2.334346771E0;-1.527500629E0
1.537987150E1;1.612494826E0;-7.036558628E0;-6.806715488E0
1.539005450E1;3.456030130E0;-1.543182659E1;-1.147421169E1
1.541075150E1;-4.007893562E0;-3.855023956E1;-1.023521233E1
1.542588550E1;-1.779370689E1;-3.921582794E1;3.824737310E0
1.543986950E1;-1.079186440E1;-3.539587784E1;2.500743628E0
1.544990150E1;-3.098097086E0;-2.354936790E1;-4.572925270E-1
1.545992050E1;5.219359994E-1;-1.634162331E1;-1.454477549E0
1.547075450E1;2.382230759E0;-9.569623947E0;-1.757344007E0
1.548160650E1;2.839523315E0;-8.470685959E0;-1.886630893E0
1.549995750E1;6.596025825E-1;-1.076911926E1;-1.029506683E0
1.551002750E1;-1.838746905E0;-1.257674122E1;3.926490843E-1
1.552988450E1;-3.752911091E0;-1.062905884E1;3.016694069E0
1.553997550E1;-1.774103403E0;-6.372167587E0;3.302801132E0
1.556009550E1;-7.769184709E-1;1.244984865E-1;1.256955862E0
1.557019650E1;-4.369418025E-1;2.764105797E0;-9.229647517E-1
1.559014050E1;9.169792533E-1;4.954800606E0;-2.117671490E0
1.561007450E1;1.188721180E0;4.068945885E0;6.045359373E-1
1.562997950E1;1.623268723E0;2.161964178E0;3.513490915E0
1.564993250E1;1.328781962E0;-7.900865674E-1;-1.053448766E-1
1.565993350E1;3.276464939E0;-2.583343744E0;-1.606389618E1
1.567004750E1;1.725022316E0;-1.055004978E1;-3.413892365E1
1.569036250E1;-9.397241473E-1;-3.178661919E1;-9.856928825E0
1.571005950E1;-1.166933918E1;-2.129283333E1;3.731124115E1
1.572996050E1;-2.340332270E0;-2.284068346E0;2.785653687E1
1.574016450E1;1.185129881E0;3.020285368E0;2.189377785E1
1.576018150E1;-3.457227230E0;-4.497508049E0;1.327943993E1
1.578006050E1;-1.279940224E1;-1.890581322E1;8.777143478E0
1.579010550E1;-1.418205357E1;-2.443282890E1;5.881356239E0
1.580993750E1;-8.104372978E0;-2.982816124E1;-9.443928719E0
1.582010250E1;-2.997540474E0;-2.973957634E1;-1.564371395E1
1.584063950E1;1.039442635E1;-3.005680847E1;-1.629972458E1
1.586024450E1;9.451110840E0;-2.617221642E1;4.534617901E0
1.588005450E1;-1.496376097E-1;-1.683722305E1;-1.316212368E1
1.589041950E1;-3.241749048E0;-1.296699619E1;-2.454894638E1
1.591016850E1;-1.452083349E0;-5.518634796E0;-1.850837708E1
1.593018250E1;-1.596932530E0;-1.279700756E0;-8.082824707E0
1.594990550E1;-1.006761789E0;-9.385270476E-1;-1.950077295E0
1.595990650E1;-5.817909837E-1;-4.141969085E-1;-4.021061897E0
1.597986150E1;1.285686255E0;2.224213362E0;-9.417592049E0
1.598987850E1;1.176750183E0;2.325966835E0;-8.572439194E0
1.599991150E1;2.573766708E-1;1.580173135E0;-4.003105164E0
1.600993250E1;-5.662286878E-1;7.170634270E-1;-9.097966552E-2
1.602995450E1;-6.093243361E-1;2.549824715E-1;2.683900118E0
1.603999450E1;-7.984662652E-1;1.628057212E-1;2.171540976E0
1.606005850E1;-2.893392801E0;-3.369838953E0;-1.386721611E1
1.607985350E1;7.793126702E-1;-5.306747913E0;-1.976413488E0
1.608992850E1;2.461239338E0;-1.069489861E1;-1.144428372E0
1.610010250E1;1.758541107E0;-2.328001976E1;-5.641936302E0
1.612059650E1;-3.818751812E0;-3.921463013E1;-4.128800869E0
1.613987050E1;-9.088389397E0;-3.865199280E1;2.710236311E0
1.615006650E1;-4.370615005E0;-2.958036232E1;-1.125274777E0
1.616009650E1;-8.559271097E-1;-2.120544434E1;-2.116474390E0
1.617098750E1;1.544260085E-1;-1.653076553E1;-2.385822058E0
1.619007050E1;2.978386879E0;-1.167532444E1;-2.468421936E0
1.621015250E1;4.122815132E0;-1.097142887E1;5.913678408E-1
1.622991350E1;-1.194706678E0;-1.137485218E1;3.440467834E0
1.625008950E1;-8.978256583E-1;-3.013102770E0;3.485957623E0
1.626020650E1;-4.321534038E-1;2.190694511E-1;5.760449409E0
1.627991350E1;9.277531505E-1;4.815936565E0;6.845022678E0
1.629004750E1;1.258152962E0;5.852625847E0;5.050568581E0
1.630028350E1;1.318008065E0;6.616376400E0;3.864241600E0
1.631986350E1;7.601590157E-1;4.867412090E0;2.492363930E0
1.632997750E1;1.616086215E-1;3.220201254E0;2.142810583E0
1.634007450E1;-2.789244950E-1;2.006340981E0;2.015917778E0
1.635991750E1;-6.691793799E-1;1.033097982E0;-3.878606856E-1
1.637984650E1;-2.387019157E0;-2.815581083E0;-2.053626442E1
1.639038450E1;-3.902548790E0;-7.483077526E0;-3.504034042E1
1.640995750E1;-7.190984726E0;-1.808460236E1;-3.922061539E1
1.642468850E1;-3.787626982E0;-1.060152531E1;3.921463013E1
1.644001250E1;-3.429693937E0;-1.076073933E1;3.569276047E1
1.645988450E1;1.544260085E-1;-1.343745708E1;2.330755424E1
1.648085750E1;1.373074651E0;-1.340154362E1;1.038125896E1
1.649993050E1;-3.357867956E0;-2.095285606E1;7.267599106E0
1.651223550E1;-4.717774391E0;-2.643797302E1;5.270834923E0
1.652989950E1;-3.946841478E0;-3.249051285E1;1.531091928E0
1.653996350E1;-1.078587890E0;-3.214455032E1;-3.639186621E-1
1.655990250E1;3.942053080E0;-3.073915482E1;-1.496376038E0
1.656992450E1;1.701559067E1;-2.499785995E1;-3.834553528E1
1.658996950E1;8.061277390E0;-1.341950035E1;-1.629014778E1
1.660042250E1;5.419275761E0;-8.694543839E0;-3.624821424E0
1.661978550E1;8.200140595E-1;-5.967547894E0;-1.033576870E1
1.663008050E1;-7.553706169E-1;-4.101267338E0;-1.281616211E1
1.664982950E1;1.244984865E-1;-3.004723191E-1;3.579331636E-1
1.665987150E1;1.334767461E0;2.008735180E0;-4.220977783E0
1.666992350E1;3.679888010E0;3.763684988E0;-1.053328991E1
1.669008850E1;2.076969862E0;1.839944005E0;-1.248576164E0
1.671000650E1;1.326387763E0;1.385045648E0;-1.060631394E0
1.673006150E1;-6.703764796E-1;-1.388636976E-1;-7.290344238E-1
1.674013950E1;-2.430114746E-1;-2.017114878E0;-8.487445116E-1
1.676160450E1;1.073799491E0;-4.989516258E0;-1.171482849E1
1.677989750E1;-1.880645394E0;-2.680907440E1;-1.286165142E1
1.679002550E1;-4.505887508E0;-3.329496765E1;-7.625532150E-1
1.681002650E1;-6.452373505E0;-3.682521820E1;1.178785229E1
1.682998550E1;-2.741360962E-1;-3.228461456E1;-1.592144132E0
1.684999850E1;8.571242094E-1;-1.350928307E1;-4.994304657E0
1.686990550E1;-8.020575345E-2;-9.102754593E0;1.121683478E0
1.688993750E1;-7.457938194E-1;-6.833051682E0;3.464409828E0
1.690991550E1;-1.980004787E0;-4.378994942E0;4.125209332E0
1.692001050E1;-1.539471745E0;-2.659958124E0;3.289633036E0
1.693987250E1;4.237737060E-1;1.458068848E0;2.697068214E0
1.695987650E1;1.161187768E0;4.236539841E0;2.142810524E-1
1.697996150E1;4.213795066E-1;3.752911091E0;1.185129881E0
1.699984950E1;4.225766063E-1;2.064998865E0;1.663970202E-1
1.700996650E1;4.094084799E-1;1.436521053E0;-2.968810201E-1
1.702000150E1;8.331822157E-1;1.133654475E0;-1.577778935E0
1.704028450E1;2.066195965E0;-6.269217014E0;-2.410242844E1
1.705999950E1;-1.993172884E0;-6.598419666E0;1.365173817E1
1.707032550E1;-4.782417774E0;-5.772420406E0;1.128147888E1
1.708994150E1;-1.106240940E1;-1.266652393E1;7.636306286E0
1.711009950E1;-1.201171017E1;-1.770153046E1;1.487397766E1
1.712994250E1;-6.944382191E0;-1.493502998E1;1.474588871E1
1.714994650E1;-8.531737328E0;-2.212840843E1;5.006275654E0
1.716987250E1;-4.406527996E0;-2.405693817E1;2.513911761E-2
1.717988150E1;-2.185906172E0;-2.500983047E1;-7.182604820E-2
1.718991750E1;1.441309452E0;-2.618897438E1;-4.848258495E-1
1.720027950E1;3.829525709E0;-2.828150749E1;1.102529883E0
1.721983150E1;2.107496071E1;-2.330276489E1;-3.922181320E1
1.722997150E1;9.179368973E0;-1.901235580E1;2.185906172E0
1.725005350E1;1.806425214E0;-1.238879681E1;-6.369773388E0
1.726988650E1;-2.221819162E0;-5.170278549E0;-1.426465416E1
1.728062950E1;-9.528923035E-1;-1.745373011E0;-6.277596951E0
1.729104850E1;5.901707411E-1;8.331822157E-1;-3.914519846E-1
1.731051750E1;6.367379189E0;5.991489887E0;-1.480454636E1
1.732995850E1;5.418078423E0;3.119644880E0;-4.455609322E0
1.735004350E1;3.485957623E0;2.560598612E0;-2.692279816E0
1.736978450E1;-6.859387755E-1;1.996764183E0;-3.110068083E0
1.737984250E1;-7.422025204E-1;1.019929886E0;-1.663970202E-1
1.738990050E1;4.908113480E-1;-2.585737705E-1;-1.077390760E-1
1.740988850E1;2.498349428E0;-4.809951305E0;-1.367089176E1
1.741997850E1;6.004657745E0;-1.692221832E1;-2.233670425E1
1.744074150E1;-4.474762917E0;-3.921582794E1;-3.138798475E0
1.745983750E1;-1.277785492E1;-3.921582794E1;7.462726593E0
1.747995450E1;-4.329913616E0;-3.394977951E1;-1.442506552E0
1.749979850E1;3.252522945E0;-2.421854782E1;-6.943184853E0
1.751000150E1;6.220136166E0;-2.158971405E1;-3.298012733E0
1.752989250E1;3.679888010E0;-1.966836739E1;4.031835556E0
1.753993550E1;1.221042871E-1;-1.939901924E1;3.837905407E0
1.754995650E1;-1.727416515E0;-1.780926895E1;2.063801765E0
1.756990350E1;-2.328361034E0;-1.201290703E1;1.850717902E0
1.758030550E1;-3.914519846E-1;-7.753622055E0;5.823895454E0
1.759981950E1;6.345831394E0;4.814739704E0;1.276708031E1
1.761024250E1;8.097189903E0;9.867702484E0;1.200452709E1
1.762994550E1;3.203441858E0;1.536478901E1;1.208353615E1
1.764991850E1;-7.122750282E-1;1.266891861E1;8.643068314E0
1.766048950E1;-1.880645394E0;9.877279282E0;5.598840714E0
1.767994250E1;-3.444059134E0;4.696226597E0;3.128024578E0
1.769015050E1;-3.403357744E0;2.391807556E0;1.711854219E0
1.771016250E1;-7.961917877E0;-1.086847878E1;-3.369001007E1
1.773001250E1;-1.123479176E1;-2.161245918E1;-3.640742874E1
1.775005050E1;1.705868721E0;-1.304480839E1;-3.462255096E1
1.776987150E1;8.942343593E-1;-8.939949036E0;3.921463013E1
1.777999050E1;-4.289212227E0;-1.628057098E1;3.697844696E1
1.779983850E1;2.598906040E0;-1.306875038E1;1.961210251E1
1.780987450E1;5.231330872E0;-8.153453827E0;1.211705494E1
1.783005750E1;-6.536170840E-1;-1.459026527E1;1.133893967E1
1.784014450E1;-2.752134800E0;-2.126410294E1;9.776722908E0
1.785988350E1;1.395819545E0;-3.373310471E1;7.402871609E0
1.787000550E1;6.235698223E0;-3.742496490E1;6.329071999E0
1.789005550E1;1.308670616E1;-3.921582794E1;1.239119053E1
1.791004750E1;3.098216629E1;-3.535398102E1;-3.922181320E1
1.792020350E1;2.304299355E1;-2.313636780E1;-3.913562012E1
1.793988750E1;7.055712223E0;-1.236605167E1;-4.684255600E0
1.794988850E1;3.550601006E0;-7.785943985E0;-9.846154213E0
1.796051750E1;3.052607179E-1;-4.784811974E0;-1.324592113E1
1.798001650E1;-6.045359373E-1;2.657563984E-1;-3.615244627E0
1.799032850E1;-1.086967587E0;1.980004787E0;-2.914940596E0
1.801016350E1;2.855085611E0;5.263652325E0;-1.023521233E1
1.802988450E1;-1.455674648E0;1.094150186E0;-5.458779931E-1
1.804986850E1;-3.208230138E-1;6.021417379E-1;3.254917145E0
1.805988550E1;-1.400607973E-1;6.153098345E-1;1.869871497E0
1.806995550E1;-1.551442742E0;7.733271718E-1;-8.401253700E0
1.808995550E1;-9.002198577E-1;-1.210268974E0;-5.517437935E0
1.810046050E1;3.363853395E-1;-1.933317900E0;5.303156972E-1
1.811987550E1;7.565677166E-1;-4.596867085E0;-2.960430384E0
1.812989350E1;4.836287498E-1;-8.113949776E0;-8.924386978E0
1.815008350E1;5.530605912E-1;-2.929545212E1;-1.253604031E1
1.816121350E1;-5.024232388E0;-3.865079498E1;-8.268375397E0
1.817990150E1;-2.022382164E1;-3.921582794E1;3.551798105E0
1.819103450E1;-3.648763418E0;-3.202125168E1;-6.495469093E0
1.820991750E1;2.774879694E0;-1.681567574E1;-3.730166197E0
1.823016350E1;3.651157618E-1;-1.078946972E1;2.707842112E0
1.825002850E1;-1.770512104E0;-8.319850922E0;7.888894677E-1
1.826125050E1;-1.853112102E0;-6.446388245E0;5.554547906E-1
1.828008050E1;-6.943184882E-2;-7.350199223E-1;2.786850691E0
1.830026050E1;1.719036818E0;5.373785496E0;5.675455093E0
1.832026850E1;3.912125587E0;9.161413193E0;6.497863293E0
1.834003950E1;1.595735431E0;9.289502144E0;6.470330238E0
1.836008150E1;-1.509544134E0;4.484339714E0;8.025363922E0
1.837991950E1;-3.752911091E0;-8.212111592E-1;6.260837555E0
1.839993850E1;-2.272097349E0;-3.196259260E0;1.878251195E0
1.841930750E1;-1.270123959E0;-2.196799850E1;-3.922181320E1
1.843036250E1;2.622848034E0;-1.357871532E1;-3.233369446E1
1.844061350E1;-8.762778044E-1;-7.041347027E0;2.693237495E1
1.846030550E1;5.123591423E-1;-5.950788498E0;3.570951843E1
1.848079850E1;-4.571728230E0;-1.574546719E1;2.492004776E1
1.849990750E1;-9.327810287E0;-2.168308830E1;1.098459721E1
1.851006350E1;-9.979032516E0;-2.240493965E1;1.802833915E0
1.853003750E1;-8.294712067E0;-2.486019325E1;-5.015852451E0
1.854978250E1;-1.301248670E0;-2.739924431E1;-3.786429882E0
1.855988150E1;4.274847031E0;-3.040516472E1;-6.907271743E-1
1.856992350E1;1.312381649E1;-3.444178772E1;3.094505787E0
1.858990350E1;2.184948540E1;-3.577536011E1;-2.620094681E1
1.860994050E1;-1.197100803E-2;-1.602319527E1;-1.573589039E1
1.862001450E1;-3.639186621E-1;-8.264783859E0;-3.033214188E1
1.864163950E1;5.710170865E-1;-2.337938070E0;-1.647210693E1
1.866002650E1;5.674257874E-1;1.920149803E0;-1.047942066E1
1.867981350E1;3.865438700E0;2.035071373E0;-4.108449936E0
1.869007150E1;4.693832397E0;2.829946518E0;-8.513781548E0
1.870995850E1;2.070984542E-1;1.987187386E0;-5.531803131E0
1.872007450E1;-1.418564558E0;2.454056740E-1;2.412158251E0
1.873985550E1;-9.469067454E-1;1.197100878E-1;2.934094191E0
1.874989250E1;-1.377863050E0;8.140286058E-2;-1.885433793E0
1.875990250E1;-3.960009575E0;-2.716221809E0;-2.553775215E1
1.877980650E1;3.830722570E-1;-4.774038315E0;-1.175553083E0
1.878993750E1;1.151610970E0;-5.826289654E0;-1.490390539E0
1.881033950E1;-5.185841084E0;-3.920624924E1;-6.556521416E0
1.883002850E1;-1.266891861E1;-3.921463013E1;6.101623058E0
1.884016250E1;-7.760804653E0;-3.774937820E1;2.054224968E0
1.885989450E1;3.055001259E0;-2.584540749E1;-8.165425301E0
1.887022550E1;6.370970726E0;-2.176209641E1;-5.962759495E0
1.889014550E1;6.613982201E0;-1.674624443E1;3.051409960E0
1.891008250E1;2.855085611E0;-1.274672985E1;4.766855717E0
1.892993150E1;4.979939461E-1;-8.212111473E0;8.798691034E-1
1.894011750E1;3.220201433E-1;-6.089652061E0;6.452373862E-1
1.895985950E1;6.763619781E-1;9.576806799E-3;6.576871872E0
1.896986650E1;1.898601890E0;3.819948912E0;9.242815971E0
1.898995550E1;2.758120298E0;1.010831928E1;7.314286232E0
1.900000750E1;1.145625472E0;1.199135876E1;7.380126953E0
1.901988750E1;-9.253589511E-1;7.360973358E0;1.176750088E1
1.902995750E1;-2.600103140E0;3.434482336E0;9.544485092E0
1.905002150E1;-4.102464676E0;-9.840168953E-1;6.810306549E0
1.906011350E1;-3.863044500E0;-2.281674147E0;5.055356979E0
1.907992550E1;-3.697844505E0;-5.862202644E0;-4.350264549E0
1.909997250E1;-4.608838081E0;-2.463633537E1;-3.922181320E1
1.911111450E1;1.065419763E-1;-1.353202820E1;-3.922181320E1
1.912995350E1;4.481945515E0;-6.248866558E0;3.919906616E1
1.914995150E1;9.074024558E-1;-1.170046329E1;3.920026398E1
1.916992950E1;4.118026793E-1;-1.393904209E1;1.942655182E1
1.917994550E1;-2.572569609E0;-1.641943550E1;1.076672459E1
1.920023350E1;-6.285976410E0;-2.581428337E1;-9.277531505E-1
1.921998850E1;-1.752555609E0;-3.298970413E1;1.687912226E0
1.923005550E1;2.896984100E0;-3.859453201E1;6.865373611E0
1.924033950E1;1.919431496E1;-3.921463013E1;-1.639429665E1
1.925993450E1;2.251866341E1;-3.382647705E1;-2.260006714E1
1.927987750E1;5.087678432E0;-2.497990417E1;7.817068577E0
1.928996750E1;2.316390038E0;-1.743577385E1;-9.356540680E0
1.930018950E1;2.692279816E0;-1.033098030E1;-3.300765991E1
1.931041850E1;4.809951305E0;-5.407304764E0;-2.723643875E1
1.933004150E1;1.698686123E0;-6.476315856E-1;-5.850231647E0
1.934980550E1;6.189011335E-1;1.102529883E0;-3.074155092E0
1.936030150E1;2.049436569E0;9.971849918E-1;-3.708618402E0
1.937982650E1;6.807912350E0;4.999093056E0;-2.343085480E1
1.939001650E1;-3.830722570E-1;1.561019540E0;-6.829460144E0
1.940031950E1;-2.425326347E0;1.009155989E0;-1.314416766E0
1.941990850E1;-9.445125461E-1;1.005564690E0;3.289633036E0
1.942996050E1;-1.069011092E0;-4.429273307E-2;1.897404790E0
1.944015450E1;-2.090138197E0;-2.331952572E0;-1.466448498E1
1.945992450E1;-1.302445769E0;-6.448782444E0;-4.900930882E0
1.946993650E1;-6.464344263E-2;-6.168660641E0;1.250970364E0
1.949035450E1;1.510741234E0;-1.403361320E1;-2.735375404E0
1.950998350E1;3.908534288E0;-3.534560013E1;1.005564690E0
1.952992750E1;-1.424549967E-1;-3.921463013E1;-8.128314972E0
1.954994450E1;-7.769184709E-1;-3.822702026E1;-1.076911926E1
1.956991150E1;5.892130375E0;-2.055063057E1;-3.627215624E-1
1.958140050E1;5.680243492E0;-1.140837097E1;3.487154722E0
1.959984850E1;2.078166962E0;-8.117541313E0;2.557007313E0
1.961041050E1;-4.560954273E-1;-7.478289127E0;2.142810583E0
1.962995850E1;-9.097966552E-1;-4.455609322E0;5.017049789E0
1.964981450E1;8.104372621E-1;1.617283225E0;6.807912350E0
1.966010950E1;2.189497471E0;4.668693542E0;1.039442635E1
1.967987950E1;1.527500629E0;9.761159897E0;1.044470501E1
1.968999650E1;3.986345828E-1;1.124077702E1;1.157716274E1
1.971002050E1;-8.930372596E-1;8.955511093E0;1.177229023E1
1.972995250E1;-3.505111217E0;4.715380192E0;3.775655985E0
1.974985850E1;-5.495890141E0;-8.918401599E-1;1.224634171E0
1.976076550E1;-4.581305027E0;-2.433706045E0;-1.810016513E0
1.977106450E1;-6.405686855E0;-1.657505798E1;-3.870945358E1
1.978990050E1;-1.497573137E0;-1.793137360E1;-3.922181320E1
1.979993450E1;2.358288616E-1;-9.005789757E0;-3.343622208E1
1.981000250E1;9.385270476E-1;-5.530605793E0;3.156395721E1
1.982987450E1;2.753331900E0;-1.086129570E1;3.921463013E1
1.983996350E1;3.106476784E0;-1.639669037E1;3.591422272E1
1.985001750E1;3.414131641E0;-1.674744034E1;2.294124031E1
1.986008350E1;1.782483220E0;-1.695334244E1;1.198058510E1
1.987985150E1;-7.149086475E0;-2.408566856E1;2.256535053E0
1.989014250E1;-7.745242596E0;-2.768774605E1;3.687070608E-1
1.991009650E1;-2.450465441E0;-3.420715714E1;7.841010690E-1
1.992993550E1;1.070447540E1;-3.921463013E1;1.130063248E1
1.994991150E1;3.103962708E1;-3.771945190E1;-3.893450928E1
1.996988450E1;4.468777657E0;-2.828390121E1;-4.999093056E0
1.998989550E1;4.788403399E-3;-5.373785496E0;-3.663248444E1
2.000994450E1;2.334346622E-1;-1.417367458E0;-1.006642151E1
2.002003150E1;9.660604000E-1;1.556231081E-2;-1.377863050E0
2.004035850E1;3.099294186E0;2.634819031E0;-4.382586002E0
2.006004850E1;3.156754971E0;3.119644880E0;-1.030224991E1
2.008016550E1;-8.499415964E-2;2.412158251E0;-7.030573368E0
2.009997650E1;-8.200140595E-1;1.132457376E0;-2.789244950E-1
2.011042550E1;1.592144072E-1;8.571242094E-1;1.733402014E0
2.012980450E1;1.448491961E-1;4.848258495E-1;2.298433632E-1
2.014012950E1;5.518634915E-1;1.340752989E-1;-8.929175377E0
2.015981450E1;8.954314590E-1;-3.860650301E0;-2.839523315E0
2.016983750E1;2.722207308E0;-5.066130638E0;-1.106121182E0
2.018993050E1;7.071274757E0;-2.730347633E1;-6.569689274E0
2.020014850E1;4.156333923E0;-3.828567886E1;-6.421248913E0
2.021989050E1;-4.927267075E0;-3.921463013E1;-1.915361360E-2
2.022991050E1;-7.331045628E0;-3.921463013E1;-4.371812344E0
2.024026950E1;-1.708262920E0;-3.789183426E1;-8.820239067E0
2.026031850E1;5.020640850E0;-2.200510788E1;-3.427299738E0
2.027986450E1;2.795230389E0;-1.473391724E1;2.671929121E0
2.029053250E1;5.578489900E-1;-1.309149456E1;5.760449409E0
2.030232550E1;-1.080982089E0;-1.179144382E1;6.035782337E0
2.031995050E1;-3.743334293E0;-8.611943245E0;2.883816004E0
2.032999650E1;-4.587290287E0;-6.890512466E0;3.497928619E0
2.034003650E1;-4.412513733E0;-4.699818134E0;4.089296341E0
2.035991550E1;-2.905363798E0;1.259350061E0;4.268861771E0
2.037984850E1;1.826775908E0;1.051413631E1;2.935291290E0
2.039031150E1;1.069011092E0;1.067095661E1;1.388636947E0
2.040993650E1;1.640028208E-1;9.700108528E0;2.639607430E0
2.042205150E1;-4.106055796E-1;7.849390507E0;5.784391403E0
2.044000950E1;-2.559401512E0;2.603694439E0;7.592013359E0
2.045019650E1;-3.246537447E0;6.619967818E-1;6.779181957E0
2.046995450E1;-2.506729126E0;-1.134851575E0;2.961627483E0
2.048992650E1;-5.758054852E-1;-1.229422569E0;-2.351106167E0
2.051048050E1;-2.292448044E0;-1.015740108E1;-2.990597343E1
2.052983250E1;1.686715126E0;-9.956287384E0;-3.890937042E1
2.054989550E1;8.040925980E0;-1.359906554E0;3.903506470E1
2.056040450E1;-1.492784739E0;-8.340201378E0;2.456091881E1
2.058004650E1;-4.168305397E0;-1.418444824E1;1.887229538E1
2.059010250E1;-8.356961250E0;-2.352303123E1;1.725381470E1
2.061004850E1;-5.779603004E0;-3.248452759E1;9.003395081E0
2.063002050E1;-2.313995838E0;-3.532046127E1;1.386242747E0
2.064028450E1;-9.720458984E-1;-3.784275055E1;-8.116343617E-1
2.065988350E1;8.273163795E0;-3.414490891E1;-3.201406860E1
2.066988950E1;1.033576870E1;-3.120722198E1;-3.811329651E1
2.068987950E1;5.972336292E0;-2.607285690E1;1.235647488E1
2.071017950E1;1.588552833E0;-1.553118610E1;-5.651513100E0
2.072992050E1;-3.655946016E0;-4.493916512E0;-2.899138832E1
2.074009950E1;-2.984372377E0;-2.275688648E0;-1.895609283E1
2.076006350E1;-1.198297977E0;-1.259350061E0;3.087323189E0
2.077012750E1;-3.902548850E-1;-8.343793154E-1;2.513911724E0
2.079135050E1;1.325190663E0;2.898181200E0;-1.561019516E1
2.080996250E1;-6.512228847E-1;2.013523579E0;-1.108275986E1
2.082993750E1;-1.608903527E0;-8.379705995E-2;1.216254473E0
2.084014250E1;-9.265560508E-1;-2.394201756E-1;4.601655483E0
2.085989050E1;-1.029506683E0;-2.047042400E-1;3.952826977E0
2.086992050E1;-1.224634171E0;-3.280056417E-1;2.676717520E0
2.088991450E1;-3.233369350E0;-2.212242365E0;-1.379179859E1
2.090995950E1;7.134721279E-1;-4.201824188E0;-2.359485865E0
2.092993950E1;2.254140854E0;-8.965087891E0;-4.368220806E0
2.094038950E1;5.546168327E0;-2.017713547E1;-1.210628128E1
2.095988650E1;-8.914810181E0;-3.921463013E1;7.182605267E-1
2.097979950E1;-1.420958757E0;-3.721307755E1;-7.004237175E0
2.098996750E1;4.201824188E0;-2.724601555E1;-6.356605530E0
2.100996150E1;7.126341343E0;-1.429218674E1;-3.137601376E0
2.102988350E1;1.987187386E0;-1.025795746E1;1.159990668E0
2.103994750E1;-2.023100406E-1;-9.636661530E0;2.254140854E0
2.104994850E1;-1.074996591E0;-8.720879555E0;2.706645012E0
2.105996050E1;-1.788468719E0;-7.107187748E0;3.282450438E0
2.107084450E1;-1.665167332E0;-5.149928093E0;3.737348795E0
2.109000450E1;2.370259613E-1;1.031900883E0;2.238578558E0
2.111057150E1;1.487996340E0;5.225345135E0;4.736927986E0
2.112991450E1;1.558625340E0;6.931213856E0;6.258443356E0
2.114023450E1;9.493009448E-1;5.925649166E0;8.749609947E0
2.116021650E1;-1.203086376E0;1.357512355E0;6.959944248E0
2.118009850E1;-1.217451572E0;-3.268085420E-1;1.368286252E0
2.119978950E1;-1.496376038E0;-2.207453966E0;-7.266402245E-1
2.121009050E1;-2.248155355E0;-4.618414879E0;-1.099417400E1
2.122986750E1;-1.316810995E-1;-9.153033257E0;-3.636313629E1
2.123992550E1;1.926135302E0;-2.199074268E0;-3.922181320E1
2.125980950E1;-8.463503122E-1;-6.004657745E0;3.750516891E1
2.127993050E1;-6.329071999E0;-1.822226906E1;3.455910492E1
2.128993750E1;-6.181828976E0;-2.363795280E1;3.004124641E1
2.129997550E1;-6.167463779E0;-2.658282089E1;2.584899902E1
2.131994850E1;-2.597708941E0;-2.199193954E1;8.402450562E0
2.134005850E1;-2.333149672E0;-2.343205261E1;1.395819545E0
2.136003250E1;4.721365929E0;-3.034291458E1;6.445190907E0
2.137986350E1;2.778231621E1;-3.321954727E1;-3.922181320E1
2.139025250E1;2.199313736E1;-2.909912682E1;-2.378759193E1
2.140999050E1;4.800374508E0;-2.344043159E1;-3.732560396E0
2.142359850E1;3.944447279E0;-1.706108093E1;-1.755668068E1
2.143449750E1;4.376600742E0;-1.163821411E1;-2.290413094E1
2.145000550E1;1.478419542E0;-4.619612217E0;-1.714008904E1
2.146002250E1;-1.787271619E0;-2.505532026E0;-1.265575027E1
2.147025450E1;-3.363853455E0;-1.154005170E0;-7.855375767E0
2.148997050E1;-1.472434044E0;7.625532150E-1;-6.925228596E0
2.151009850E1;-2.507926226E0;2.354697466E0;-1.477940750E1
2.152062550E1;-2.820369720E0;1.404199243E0;-6.738480568E0
2.154271650E1;4.800374508E-1;1.404199243E0;3.866635799E0
2.155629150E1;1.778891921E0;1.259350061E0;4.744110584E0
2.156997750E1;1.455674648E0;1.027112484E0;2.177526474E0
2.158275850E1;9.014169574E-1;-1.795651317E-1;-6.919242740E-1
2.159586150E1;2.068590164E0;-4.929661274E0;-1.253005505E1
2.161002350E1;3.773261786E0;-8.834604263E0;-2.677914619E0
2.162993350E1;1.097741485E0;-3.076309776E1;-8.329427719E0
2.164147950E1;-5.044582844E0;-3.916315460E1;-9.677363396E0
2.166034950E1;-9.127894402E0;-3.921582794E1;2.263717651E0
2.167990550E1;-9.229647517E-1;-3.049255371E1;-2.242169857E0
2.169015650E1;3.460818529E0;-2.466865730E1;-4.569334030E0
2.171020050E1;8.276755333E0;-1.742739487E1;-3.787626982E0
2.172991650E1;5.419275761E0;-1.530253983E1;3.525461912E0
2.174989550E1;-3.296815634E0;-1.177827549E1;2.454056740E-1
2.175989950E1;-2.906560898E0;-8.495824814E0;4.680664241E-1
2.176993250E1;-2.483984232E0;-4.468777657E0;3.720589399E0
2.179011850E1;8.762778044E-1;3.967192173E0;8.506598473E0
2.181002950E1;2.219424963E0;9.533711433E0;8.322244644E0
2.183050050E1;5.829881430E-1;1.054286766E1;5.707777023E0
2.184987850E1;-3.615244627E-1;8.542511940E0;6.426037312E0
2.185996350E1;-1.443703651E0;6.572083473E0;5.694608688E0
2.187992250E1;-3.254917145E0;3.143586874E0;5.442020416E0
2.188997450E1;-3.512293816E0;9.133879542E-1;3.397372246E0
2.190986950E1;-1.206677675E0;-9.564836025E-1;-2.656366825E0
2.191993650E1;-5.115211964E0;-1.157476807E1;-3.641700363E1
2.192994550E1;-7.007828236E0;-1.806664658E1;-3.834433746E1
2.194000950E1;-4.796782970E0;-9.364919662E0;-3.922181320E1
2.195988750E1;4.551377296E0;-2.474407434E0;3.912364960E1
2.196993550E1;7.750030994E0;-5.363011837E0;3.921463013E1
2.198005650E1;4.811148167E0;-1.389115810E1;3.903985214E1
2.199020850E1;3.994725466E0;-1.819713020E1;3.241389847E1
2.201006650E1;-1.209071875E-1;-1.944810104E1;1.078108978E1
2.203033250E1;-6.435614109E0;-2.326445770E1;4.720168591E0
2.204060750E1;-6.161478043E0;-2.619974899E1;2.707842112E0
2.206006650E1;-3.277662039E0;-3.070563698E1;6.727706790E-1
2.207008550E1;-4.572925270E-1;-3.200688553E1;9.852139950E-1
2.208989550E1;2.259647560E1;-3.788704300E1;-2.608003998E1
2.210010250E1;3.123954391E1;-3.109708786E1;-3.801752853E1
2.211100650E1;2.041775131E1;-2.894111061E1;-1.448731422E1
2.213012750E1;1.089002609E1;-1.327943993E1;-1.881842494E0
2.214030150E1;9.154230118E0;-7.109581947E0;-2.352183533E1
2.215985650E1;5.822698593E0;-2.406172752E-1;-1.914164352E1
2.216997050E1;3.368641853E0;5.255272985E-1;-1.040759468E1
2.219003850E1;8.427590132E-1;1.212663174E0;-4.673481941E0
2.220007450E1;1.617283225E0;1.341950059E0;-4.460397720E0
2.221982850E1;4.353855610E0;4.970362663E0;-2.190215683E1
2.222998550E1;1.041477680E0;2.938882589E0;-1.279222012E1
2.224014850E1;-1.673547029E0;1.130063176E0;-5.182249546E0
2.226004850E1;-2.551021814E0;7.613561153E-1;5.267243832E-2
2.227985650E1;3.722983599E-1;-2.861070931E-1;1.514332533E0
2.228999950E1;-6.284779310E-1;-1.711854219E0;-5.908889771E0
2.231006850E1;-5.386953801E-2;-6.596025467E0;-1.114979744E1
2.233016150E1;3.819948912E0;-1.938465500E1;-5.857414246E0
2.234161350E1;5.482721806E0;-2.996822357E1;-1.993172884E0
2.236023950E1;3.405751944E0;-3.921582794E1;9.493009448E-1
2.237099250E1;3.471592367E-1;-3.921582794E1;-7.463923931E0
2.239011150E1;1.273715258E0;-3.642538452E1;-9.358934402E0
2.241061050E1;5.984307289E0;-1.923501587E1;-8.738836050E-1
2.243014350E1;6.065710068E0;-1.084214211E1;5.024232388E0
2.244203750E1;5.440823555E0;-8.367734909E0;4.871003151E0
2.245522800E1;7.805097699E-1;-6.557718277E0;3.998316765E0
2.246996150E1;-1.268926859E-1;-5.512649536E0;4.707000732E0
2.247996150E1;-4.800374508E-1;-3.939658880E0;5.246892929E0
2.249986850E1;-6.584054977E-2;1.268926859E0;1.030703831E1
2.250997550E1;8.966285586E-1;4.696226597E0;9.919178009E0
2.252987450E1;6.655880809E-1;1.166095924E1;8.659827232E0
2.254069450E1;5.985504389E-2;1.070208168E1;9.434351921E0
2.256044350E1;-1.849520802E0;7.304709435E0;5.023035049E0
2.257982250E1;-4.109647274E0;3.135207176E0;5.070919037E0
2.258996350E1;-4.193444252E0;9.684545994E-1;3.387795448E0
2.260132850E1;-3.319560766E0;-4.740519226E-1;-7.242460251E-1
2.261982350E1;-4.050989151E0;-1.084573364E1;-2.949656487E1
2.262985350E1;-3.277662039E0;-1.832881165E1;-3.844728851E1
2.263986750E1;-4.861426353E0;-2.119347382E1;-3.255276489E1
2.265989250E1;8.379705995E-2;-8.603564262E0;-3.394738770E1
2.267987750E1;7.842207432E0;-3.812766314E0;3.921463013E1
2.268989350E1;2.642001629E0;-1.430296135E1;3.921463013E1
2.271004950E1;8.367735147E-1;-2.201109314E1;2.327283669E1
2.272990050E1;-4.223371983E0;-2.163400650E1;1.181538582E0
2.274994550E1;-2.255337954E0;-2.697786522E1;1.061828494E0
2.276990050E1;3.465606928E0;-3.334883499E1;1.269046593E1
2.279000450E1;3.057634926E1;-3.688626862E1;-3.623025894E1
2.280991750E1;1.110311031E1;-2.938403702E1;-1.290115547E1
2.282985750E1;7.407660007E0;-1.667322159E1;-3.390189648E0
2.283985850E1;9.425971985E0;-1.038365269E1;-1.884715652E1
2.284998650E1;9.202114105E0;-6.257246017E0;-2.500863457E1
2.286006250E1;8.161833763E0;-4.903325081E0;-1.715804672E1
2.288016650E1;4.106055796E-1;-1.796848416E0;-6.223727226E0
2.289985650E1;-3.423708379E-1;1.370680451E0;-4.325125217E0
2.290995250E1;1.574187636E0;3.253720045E0;-1.198896503E1
2.293012550E1;2.901772499E0;2.928108692E0;-5.742492676E0
2.294988450E1;-5.722141862E-1;2.076969862E0;-2.656366825E0
2.296010550E1;-7.206547260E-1;1.656787634E0;-2.964021683E0
2.297982250E1;-7.062894851E-2;-1.074996591E0;-1.278264332E1
2.299000450E1;8.475474119E-1;-3.621230125E0;-1.608185196E1
2.300998350E1;1.001973391E0;-5.810727596E0;-3.543418407E0
2.303001650E1;2.592920542E0;-1.439753151E1;-2.701856613E0
2.304008850E1;3.898957491E0;-2.507806587E1;-3.439270735E0
2.306006150E1;1.323993564E0;-3.921582794E1;-2.476801634E0
2.307992150E1;-4.534617901E0;-3.921582794E1;-8.892065048E0
2.309007350E1;-4.526238441E0;-3.864720535E1;-6.415263653E0
2.311010950E1;6.153098583E0;-1.561019516E1;1.197100850E-3
2.312996550E1;2.463633537E0;-1.107797146E1;2.136825085E0
2.314024850E1;9.469067454E-1;-9.159018517E0;2.011129379E0
2.315988750E1;-1.951274425E-1;-5.844246387E0;6.823474914E-2
2.317984550E1;1.100135684E0;-1.817199111E0;5.779603004E0
2.318999650E1;1.577778935E0;1.033097982E0;1.089960289E1
2.321001450E1;1.389834046E0;7.009025574E0;9.554061890E0
2.322989250E1;8.212111592E-1;1.159511852E1;8.508993149E0
2.323990650E1;-2.178723514E-1;1.133893967E1;1.037407589E1
2.326000550E1;-2.683900118E0;6.466738701E0;7.645883083E0
2.327985550E1;-5.781997204E0;1.067813993E0;4.617218018E0
2.329003850E1;-6.670246124E0;-1.218648672E0;2.744952202E0
2.331001750E1;-5.105635166E0;-7.551311970E0;-1.448731422E1
2.332991250E1;2.936488390E0;-1.864484596E1;-3.922181320E1
2.334990550E1;-2.336740971E0;-7.797914982E0;3.386239243E1
2.336009450E1;5.255272985E-1;-7.678205013E0;3.921463013E1
2.337983250E1;-6.113594055E0;-1.806784248E1;2.897103691E1
2.338993850E1;-6.230909824E0;-1.862569237E1;1.949478722E1
2.341039850E1;-7.031770229E0;-1.939064026E1;3.839102507E0
2.342994450E1;-6.839036942E0;-2.382110977E1;-8.846575022E-1
2.343997050E1;-3.410540342E0;-2.550782585E1;6.979097724E-1
2.346005650E1;3.259705544E0;-3.206913376E1;6.987477779E0
2.348023250E1;3.035129547E1;-3.759255981E1;-2.916377068E1
2.349984450E1;6.306327343E0;-3.207511902E1;-4.541800499E0
2.350999850E1;5.713762283E0;-1.756506157E1;-4.601655483E0
2.352000050E1;6.756437302E0;-1.077031612E1;-1.706826401E1
2.353006850E1;7.053318024E0;-6.449979305E0;-2.291250992E1
2.354010950E1;5.802347660E0;-2.916137695E0;-2.088222694E1
2.355987150E1;-7.900865376E-2;-5.434837937E-1;-8.983044624E0
2.356987550E1;-4.740519226E-1;-1.735796183E-1;-4.387374401E0
2.358997150E1;1.465251446E0;2.096123695E0;-7.655459881E0
2.360993350E1;2.839523315E0;3.336320162E0;-1.098459721E1
2.362987250E1;-6.775590777E-1;1.896207690E0;-3.539827108E0
2.364065850E1;-1.758541107E0;1.711854219E0;-3.025073767E0
2.366021150E1;-4.812345505E-1;1.209071875E0;-8.523358107E-1
2.367981450E1;-1.228225470E0;-2.056619167E0;-1.441189671E1
2.368998550E1;-1.090558887E0;-4.510675907E0;-1.756745529E1
2.370015050E1;9.696517140E-2;-5.323507309E0;-1.054645896E0
2.371983050E1;9.720458984E-1;-1.366730022E1;-3.913322687E0
2.372990050E1;1.850717902E0;-2.458485985E1;-4.978742599E0
2.374003250E1;1.908178806E0;-3.468719482E1;-1.470039845E0
2.375981950E1;-2.549824715E0;-3.921582794E1;-2.931699991E0
2.376986150E1;-6.823474884E0;-3.921582794E1;-7.712920666E0
2.378069150E1;-4.097676277E0;-3.857418060E1;-1.039322948E1
2.380064350E1;4.098873138E0;-2.222178268E1;-4.645948410E0
2.381982150E1;2.506729126E0;-1.455315495E1;3.579331636E0
2.382999250E1;8.200140595E-1;-1.243069553E1;4.335899353E0
2.384990250E1;-1.043871999E0;-8.141483307E0;2.753331900E0
2.386978250E1;-1.076193690E0;-4.971560001E0;2.644395828E0
2.387982650E1;-9.026140571E-1;-3.196259260E0;3.706224203E0
2.388992250E1;3.722983599E-1;-1.320402265E0;8.026560783E0
2.389997950E1;1.322796464E0;5.317522049E0;8.427590370E0
2.391995450E1;1.345541358E0;9.630676270E0;4.871003151E0
2.393009750E1;4.872200489E-1;1.077390766E1;3.071760893E0
2.394993450E1;-1.137245774E0;8.488641739E0;6.792350292E0
2.396982950E1;-3.642777920E0;2.873042107E0;4.677073002E0
2.397985750E1;-4.194641590E0;7.110779285E-1;4.380191803E0
2.398988150E1;-3.593696833E0;-7.170634270E-1;3.745728493E0
2.400991850E1;-1.971625090E0;-2.088941097E0;8.379705995E-2
2.402978450E1;-3.730166197E0;-1.757224274E1;-3.922181320E1
2.404013850E1;-1.069011092E0;-1.558984470E1;-3.922181320E1
2.405979950E1;-2.153584480E0;-4.796782970E0;3.262698364E1
2.406980250E1;2.523488522E0;-3.396175146E0;3.770628357E1
2.407981750E1;-2.312798738E0;-8.268375397E0;2.861430168E1
2.409982950E1;-9.549273491E0;-2.684259224E1;1.793975258E1
2.411003950E1;-9.779116631E0;-2.748304176E1;8.841787338E0
2.412993050E1;-7.552509308E0;-3.012623978E1;3.351882473E-2
2.414988450E1;-1.947683096E0;-2.969408607E1;-8.619125932E-2
2.416010450E1;1.005564690E0;-2.984971046E1;7.374141216E-1
2.418035450E1;1.886152077E1;-3.620272446E1;-7.899668694E0
2.419978850E1;2.102587891E1;-2.982217598E1;-2.214875984E1
2.421012850E1;1.016937160E1;-2.847424126E1;-7.969100475E0
2.422989450E1;7.322665691E0;-1.216613579E1;-6.476315498E0
2.424004450E1;5.655104637E0;-7.858967304E0;-2.111207008E1
2.425986050E1;3.107673883E0;-1.750161409E0;-1.776258278E1
2.427000050E1;2.038662672E0;2.011129409E-1;-1.140118885E1
2.428994350E1;3.349488258E0;2.540247917E0;-4.280832767E0
2.430996850E1;4.128800869E0;2.942473888E0;-8.364143372E0
2.432987850E1;2.312798738E0;2.699462414E0;-4.493916512E0
2.434012250E1;5.686228871E-1;2.105700493E0;-2.896984100E0
2.435979950E1;2.203862667E0;3.211821556E0;-2.048239470E0
2.436983150E1;1.328781962E0;6.967126727E-1;-4.109647274E0
2.437985450E1;3.399766386E-1;-2.482787132E0;-1.208233929E1
2.438992950E1;8.523358107E-1;-4.450820923E0;-8.446743965E0
2.440991750E1;1.490390539E0;-5.373785496E0;-3.555389643E-1
2.442764250E1;2.558204412E0;-2.691441917E1;-9.648633003E0
2.443984950E1;2.082955360E0;-3.532046127E1;-7.117961884E0
2.444991250E1;-1.290474772E0;-3.919786835E1;-3.148375273E0
2.446997850E1;-9.476250648E0;-3.921463013E1;4.920084476E-1
2.448118650E1;-3.603273630E0;-3.306631851E1;-4.604049683E0
2.449372250E1;2.899378300E0;-2.515348244E1;-5.955576897E0
2.451059350E1;7.394492149E0;-1.704551888E1;-1.237802267E0
2.453009350E1;1.431732655E0;-1.448611736E1;4.593276024E0
2.454215550E1;-1.951274425E-1;-1.316691208E1;3.776853085E0
2.455991050E1;-2.898181200E0;-9.852140427E0;7.302315235E-1
2.456993750E1;-3.301604033E0;-8.021772385E0;1.373074651E0
2.457997150E1;-2.679111719E0;-5.400122166E0;2.874239206E0
2.459002750E1;-1.586158633E0;-1.787271619E0;5.555745125E0
2.460008050E1;6.584054977E-2;2.179920673E0;7.264008045E0
2.461999950E1;2.710236311E0;8.550890923E0;7.261613846E0
2.463016750E1;3.252522945E0;1.050575733E1;7.666234016E0
2.465023150E1;5.674257874E-1;1.118211937E1;4.961983204E0
2.466095650E1;-1.956062794E0;6.500257492E0;5.868188381E0
2.467736650E1;-3.122039080E0;3.608062029E0;5.673060894E0
2.468988650E1;-3.812766314E0;-6.584054977E-2;3.484760523E0
2.471001850E1;-2.219424963E0;-1.861491799E0;-1.151610970E0
2.472223350E1;-3.367444754E0;-5.827486992E0;-1.307114410E1
2.474100150E1;-1.277306557E0;-1.924818420E1;-3.922181320E1
2.475154950E1;-1.936909199E0;-1.122282028E1;-2.955641937E1
2.477013250E1;5.336675644E0;-3.438073635E0;3.884592438E1
2.478251950E1;6.488286853E-1;-8.259995461E0;3.011067772E1
2.479540950E1;-5.899312973E0;-2.016875458E1;2.632903671E1
2.480991950E1;-7.600393295E0;-2.236543465E1;2.037465668E1
2.483018450E1;-8.117541313E0;-2.145923042E1;5.765237808E0
2.484058850E1;-7.722497463E0;-2.257612419E1;2.234987259E0
2.485991650E1;-4.946420670E0;-2.565746307E1;1.089361787E0
2.487006650E1;1.244984865E-1;-2.816060066E1;1.740584612E0
2.488990050E1;1.452681923E1;-3.814681625E1;-1.211466074E0
2.490999250E1;2.012206841E1;-3.107434464E1;-2.570295143E1
2.492983950E1;7.450755596E0;-2.109411430E1;-2.205059767E0
2.494029350E1;8.106766701E0;-1.090199757E1;-4.856637955E0
2.495997250E1;6.663063526E0;-3.827131510E0;-1.927811241E1
2.497981150E1;3.809175014E0;-5.063736439E-1;-9.170989990E0
2.499022150E1;2.724601507E0;2.262520641E-1;-7.231686115E0
2.501027150E1;2.577358246E0;1.927332401E0;-5.687426090E0
2.502980750E1;4.821922302E0;4.418499470E0;-1.632725906E1
2.504002650E1;2.826355219E0;3.654748917E0;-9.828198433E0
2.506005350E1;9.888052940E-1;4.199429989E0;-4.879383087E0
2.507980350E1;1.268926859E0;4.070143029E-2;-2.455253839E0
2.509004450E1;5.386953950E-1;-1.246181965E0;-2.821566820E0
2.510989850E1;-3.432088137E0;-5.777208805E0;-1.056202126E1
2.512994850E1;-9.385270476E-1;-6.206967831E0;5.710170865E-1
2.513997950E1;-3.351882473E-2;-1.318606567E1;-2.142810583E0
2.515000250E1;1.538274646E0;-2.588969994E1;-6.752845764E0
2.517014150E1;-7.026981711E-1;-3.921582794E1;-3.134010077E0
2.519001350E1;-1.101093388E1;-3.921463013E1;-2.771288395E0
2.521053650E1;-6.615179062E0;-3.313335800E1;-6.441599846E0
2.522989150E1;5.966350555E0;-1.816361046E1;-2.122459888E0
2.524128550E1;6.406883717E0;-1.442745972E1;9.385270476E-1
2.525992150E1;2.604891539E0;-1.015859795E1;4.280832767E0
2.527986050E1;-1.036689281E0;-7.558494568E0;3.074155092E0
2.529005550E1;-5.554547906E-1;-6.295553207E0;2.503137827E0
2.530014250E1;1.161187813E-1;-4.394556999E0;3.610456228E0
2.532209150E1;2.258929253E0;2.329558372E0;9.429563522E0
2.534070750E1;1.914164305E0;8.781931877E0;6.659471989E0
2.536026950E1;1.448492050E0;1.164060879E1;5.097255230E0
2.538014150E1;-1.221042871E-1;7.754819393E0;6.587646008E0
2.540015650E1;-2.086546898E0;2.840720415E0;5.550956726E0
2.541998000E1;-2.345120668E0;-1.493981838E0;1.552639842E0
2.544111050E1;-7.146692276E0;-1.668399429E1;-3.784155655E1
2.545998750E1;-4.121618271E0;-1.316092682E1;-3.922181320E1
2.548007450E1;-1.066616893E0;-4.237737179E0;3.263656235E1
2.549124150E1;4.314351559E0;-1.745373011E0;3.905900574E1
2.551027450E1;-3.985148668E0;-1.606030464E1;2.749980164E1
2.552988450E1;-7.612364292E0;-2.470097923E1;1.913086891E1
2.554010250E1;-7.484274387E0;-2.436579132E1;9.903614998E0
2.556072650E1;-5.232527733E0;-2.654211998E1;3.040636063E0
2.558037850E1;-1.235408068E0;-2.592800713E1;2.029085875E0
2.559984450E1;3.632004023E0;-3.040995216E1;1.205719948E1
2.560998550E1;1.354878712E1;-3.568318176E1;1.400607944E0
2.562990750E1;2.067273521E1;-2.980541611E1;-3.132453728E1
2.564991850E1;6.477512836E0;-2.337459183E1;3.022679567E0
2.566014650E1;7.220912457E0;-9.091980934E0;-2.490568352E1
2.567980650E1;4.121618271E0;-5.122394562E0;-1.825459099E1
2.569021250E1;1.972822189E0;-3.379415751E0;-1.081101799E1
2.570990050E1;-3.545812607E0;-2.489969730E-1;-4.437653065E0
2.573005950E1;9.062053561E-1;2.557007313E0;-2.625242233E0
2.574998650E1;3.606864929E0;2.929305792E0;-8.851364136E0
2.576009550E1;4.528632641E0;3.394978046E0;-1.176630402E1
2.578007450E1;1.296460271E0;1.259350061E0;-8.559271097E-1
2.579028050E1;1.000776291E0;1.152808070E0;-2.621650994E-1
2.581000450E1;-5.722141862E-1;1.189918280E0;-6.044162273E0
2.582991450E1;-1.332373261E0;-2.964021683E0;-1.269046593E1
2.584997350E1;4.608838260E-1;-5.200206280E0;-4.321534038E-1
2.586023950E1;1.867477298E0;-9.926360130E0;-1.663970232E0
2.587998350E1;4.254496574E0;-3.573824692E1;-2.755726099E0
2.590019750E1;-4.083311081E0;-3.921582794E1;-4.888959885E0
2.591979950E1;-8.835801125E0;-3.837187195E1;-9.054870605E0
2.593002450E1;-3.122039080E0;-2.934932137E1;-7.196970463E0
2.595000550E1;5.886145115E0;-1.738190460E1;-1.748964310E0
2.596996050E1;4.685452938E0;-1.217930412E1;3.385401249E0
2.598988150E1;5.087678432E-1;-1.039801788E1;3.246537447E0
2.599988750E1;-1.154005170E0;-9.199720383E0;1.359906554E0
2.600995150E1;-2.394201756E0;-7.884106159E0;7.852981687E-1
2.602995450E1;-2.211045265E0;-3.865438700E0;3.180696964E0
2.604040950E1;9.732429981E-1;2.662352324E0;8.008605003E0
2.606085250E1;1.195903778E0;7.917624950E0;7.012616634E0
2.608011950E1;5.662286878E-1;9.873687744E0;4.317942619E0
2.609989750E1;-9.457096457E-2;8.086416245E0;3.999513865E0
2.611025050E1;-1.399410844E0;5.555745125E0;3.292027235E0
2.613006750E1;-3.320757866E0;2.980781198E-1;3.057395458E0
2.614049550E1;-2.189497471E0;-6.129156351E-1;1.471236944E0
2.616010050E1;-3.800795317E0;-6.306327343E0;-1.850717926E1
2.617987250E1;-2.738966703E0;-1.574666500E1;-3.906140137E1
2.619980050E1;-2.658761024E0;-4.133589268E0;2.878189659E1
2.621008950E1;1.649604917E0;-3.543418407E0;3.593577194E1
2.623006650E1;-3.574543238E0;-1.230380249E1;2.394680595E1
2.624993050E1;-9.380482674E0;-2.392765236E1;1.010353088E1
2.625999550E1;-1.066616821E1;-2.657563972E1;3.302801132E0
2.627983650E1;-6.015431881E0;-2.911109924E1;-7.649474144E-1
2.629030850E1;-2.833537817E0;-2.760035706E1;-5.231330991E-1
2.630999150E1;3.563769341E0;-2.824439812E1;7.788338184E0
2.633030450E1;2.486617851E1;-3.154600143E1;-3.646010208E1
2.635015350E1;1.128746414E1;-2.924277878E1;-5.738901615E0
2.636034550E1;8.761581421E0;-2.479195786E1;1.083376288E0
2.638025750E1;6.761225700E0;-1.193629265E1;-1.467765331E1
2.639496150E1;5.650316238E0;-6.030993938E0;-1.946605682E1
2.641000850E1;3.612850428E0;-4.145560265E0;-1.145266342E1
2.643003650E1;-1.727416515E0;-1.085770488E0;-2.553416014E0
2.644007050E1;3.506308317E0;3.727771997E0;-1.419043350E1
2.645045850E1;3.506308317E0;3.727771997E0;-1.419043350E1
2.646989750E1;3.470395327E0;2.603694439E0;-9.894038200E0
2.648992350E1;1.629254222E0;2.049436569E0;-4.996698856E0
2.649994150E1;7.302315533E-2;1.909375906E0;-4.912901878E0
2.650999350E1;-1.064222693E0;4.141969085E-1;-3.560178041E0
2.652016550E1;-9.481038451E-1;-6.739677787E-1;-3.293224335E0
2.653026550E1;-1.853112102E0;-1.953668594E0;-7.442376137E0
2.654070650E1;-2.849100113E0;-4.080916882E0;-1.572511673E1
2.656023050E1;-2.190694511E-1;-5.843049049E0;-2.823961020E0
2.658019250E1;3.241749048E0;-1.718318558E1;-3.563769341E0
2.659999150E1;4.049792290E0;-3.704668045E1;1.588552833E0
2.661989050E1;-1.313219666E0;-3.921463013E1;-1.180341482E0
2.663990650E1;-3.458424330E0;-2.812109566E1;-6.953958988E0
2.665029550E1;1.158793569E0;-2.160527611E1;-3.563769341E0
2.666993250E1;7.422025204E0;-1.463216400E1;1.301248670E0
2.668999650E1;4.204218388E0;-1.156758595E1;5.543774128E0
2.670994150E1;7.625532150E-1;-9.325415611E0;3.119644880E0
2.673013550E1;2.573766708E-1;-6.100425720E0;1.669955730E0
2.674041750E1;6.416460276E-1;-3.408146143E0;3.090914488E0
2.676294650E1;2.608482838E0;4.923676014E0;1.011909389E1
2.678007350E1;1.468842745E0;9.950302124E0;8.561665535E0
2.679981850E1;5.590460896E-1;1.162384892E1;9.029731750E0
2.681078950E1;-1.412578970E-1;1.010712242E1;5.647922039E0
2.682994550E1;-2.512714624E0;3.857059002E0;4.064157486E0
2.684990950E1;-4.276044369E0;-9.516952038E-1;1.735796213E0
2.686011050E1;-4.946420670E0;-3.855861902E0;-5.858611584E0
2.687989950E1;-1.027830791E1;-2.113601303E1;-3.922181320E1
2.689028750E1;-9.689333916E0;-1.983835602E1;-3.922181320E1
2.691001150E1;-5.051765442E0;-6.435614109E0;1.889863205E1
2.693004450E1;4.647145271E0;-3.885789394E0;3.921463013E1
2.694024650E1;3.023876667E0;-1.232535076E1;3.318722534E1
2.695988650E1;-1.574187636E0;-2.130839539E1;1.922783470E1
2.696992050E1;-3.845088005E0;-2.484343338E1;1.323993587E1
2.698006350E1;-5.178658485E0;-2.741360855E1;7.402871609E0
2.699992550E1;-1.654393315E0;-3.117250633E1;2.531868219E0
2.701036050E1;7.290344238E-1;-3.138319588E1;2.031480074E0
2.702993850E1;2.061886597E1;-3.808935547E1;4.153939724E0
2.704096950E1;3.159987068E1;-3.633320618E1;-3.358825684E1
2.706071450E1;1.749682617E1;-2.534142876E1;-1.644337654E1
2.707993650E1;1.100734234E1;-1.111987019E1;-7.607575893E0
2.709040650E1;8.807070732E0;-8.277952194E0;-1.751957130E1
2.711001150E1;4.401739597E0;-2.603694439E0;-1.426465416E1
2.712014750E1;3.557783842E0;-8.020575345E-2;-7.603984833E0
2.713995050E1;2.323572636E0;1.448492050E0;-4.408922195E0
2.715016250E1;2.181117773E0;1.780089021E0;-4.328716755E0
2.716980250E1;3.810372114E0;3.276464939E0;-1.269405746E1
2.718006850E1;3.877409697E0;3.451241732E0;-1.360744572E1
2.719992950E1;-1.790862918E0;1.619677424E0;-7.910442352E0
2.720998250E1;-1.922544003E0;3.342305660E0;-7.309497833E0
2.722013150E1;-2.286462545E0;1.544260144E0;-8.499416113E-1
2.723014750E1;-2.551021814E0;-1.974019289E0;-6.709750175E0
2.725011550E1;-2.640804529E0;-5.774814606E0;-1.034295177E1
2.726988350E1;-6.093243361E-1;-6.372167587E0;-1.061828494E0
2.729035850E1;2.554613113E0;-1.844492912E1;-2.533065319E0
2.731020550E1;5.364208698E0;-3.712089920E1;2.092532396E0
2.732996450E1;-7.206547260E-1;-3.921463013E1;-6.471527100E0
2.734007250E1;-5.209783077E0;-3.921463013E1;-1.282573891E1
2.735993550E1;3.117250681E0;-2.796906471E1;-6.612784863E0
2.736995850E1;6.058527470E0;-2.159330559E1;-1.320402265E0
2.739010650E1;5.275623322E0;-1.372476101E1;5.432443619E0
2.740996150E1;5.901707411E-1;-9.539696693E0;4.888959885E0
2.742323450E1;-1.552639842E0;-6.297947407E0;2.170343876E0
2.743988950E1;-7.984662652E-1;-2.692279816E0;4.231751442E0
2.745100750E1;-3.172317147E-1;-5.506663918E-1;5.591658115E0
2.746108450E1;-2.214636505E-1;1.902193308E0;6.609193802E0
2.748018350E1;1.569399238E0;6.971915245E0;6.739677906E0
2.749984450E1;1.783680320E-1;1.157716274E1;2.154781580E0
2.751008950E1;-8.750807047E-1;1.202846909E1;1.958456993E0
2.752026150E1;-2.203862667E0;9.524134636E0;6.372167587E0
2.754007050E1;-6.017826080E0;1.143231273E0;8.391676903E0
2.755011650E1;-6.058527470E0;-1.533486247E0;7.303512096E0
2.756994350E1;-2.794033289E0;-3.078943491E0;9.026140571E-1
2.759023950E1;-1.948880196E0;-1.021246719E1;-2.162562752E1
2.760998050E1;1.879448295E0;-1.566765594E1;-3.445256424E1
2.762995550E1;3.457227230E0;-3.578134537E0;3.590464401E1
2.764052050E1;-1.188721180E0;-5.299565315E0;2.597229958E1
2.765984950E1;-5.914875507E0;-1.573229980E1;2.136944771E1
2.766986850E1;-1.078946972E1;-2.349549866E1;1.814685249E1
2.768982950E1;-1.324232960E1;-2.962226105E1;4.884171486E0
2.770990050E1;-6.876147270E0;-2.925235558E1;-2.800018787E0
2.772992750E1;-1.125274822E-1;-2.756683922E1;-2.178723574E0
2.774002450E1;5.583278179E0;-2.809116936E1;-1.473631144E0
2.776039750E1;2.598427010E1;-2.809954834E1;-2.586695480E1
2.777992650E1;8.956708908E0;-2.963064003E1;2.847903013E0
2.779028350E1;6.682217121E0;-2.569337463E1;6.667851925E0
2.780164350E1;9.562441826E0;-1.036090755E1;-1.864005661E1
2.781202850E1;8.960299492E0;-4.982333660E0;-3.001730347E1
2.782664700E1;4.563348293E0;-1.691503525E0;-1.397854710E1
2.784002250E1;1.107318282E0;-1.036689281E0;-9.944316864E0
2.785996150E1;1.077390760E-1;5.506663918E-1;-4.876988888E0
2.787985350E1;3.272873640E0;2.780865192E0;-1.013345909E1
2.788992950E1;4.616020679E0;4.548983097E0;-1.714368057E1
2.791014350E1;-3.148375154E-1;1.513135433E0;-1.848323703E0
2.792996150E1;-4.752490520E-1;2.282871246E0;-8.056488633E-1
2.794993850E1;2.549824715E-1;8.379706182E-3;-4.946420670E0
2.796997750E1;-6.284779310E-1;-4.801571369E0;-1.139400578E1
2.798011150E1;1.472434103E-1;-4.967968464E0;-1.819593310E0
2.799986950E1;4.776432514E-1;-7.769184589E0;-1.357512355E0
2.801017450E1;1.742978811E0;-2.855684090E1;-5.427655220E0
2.803001150E1;-4.231751442E0;-3.921463013E1;-1.113303781E0
2.804993850E1;-6.640318394E0;-3.921463013E1;-5.252878666E0
2.807039250E1;3.993528366E0;-2.855085564E1;-7.553706169E0
2.809014850E1;6.828263283E0;-1.962646866E1;3.878606856E-1
2.810981850E1;1.941697598E0;-1.400248909E1;4.666299343E0
2.811989550E1;4.776432514E-1;-1.172201157E1;3.896563292E0
2.813010150E1;-8.176198602E-1;-9.708487511E0;2.568978310E0
2.814994550E1;-2.765302896E0;-6.265625954E0;2.589329243E0
2.816013350E1;-2.703053713E0;-4.449624062E0;3.869029999E0
2.817990050E1;-1.816002011E0;2.166752517E-1;6.882133007E0
2.818994050E1;9.935937077E-2;4.351461411E0;7.569268703E0
2.820001850E1;1.849520802E0;8.512583733E0;7.542932510E0
2.822029850E1;3.100491166E-1;1.045547867E1;2.421735048E0
2.824020050E1;-7.996633649E-1;6.688202381E0;5.037400246E0
2.825992950E1;-3.975571871E0;3.040636182E-1;3.989937067E0
2.827983150E1;-1.897404790E0;-1.877054095E0;1.121683478E0
2.829015750E1;-1.197100878E0;-2.285265446E0;-1.646013618E0
2.831008250E1;-7.793126702E-1;-2.254021263E1;-3.922181320E1
2.832991550E1;1.926135302E0;-3.705027103E0;-1.904587507E0
2.834048450E1;3.189076662E0;-3.479972124E0;3.485837936E1
2.835989150E1;-5.012261391E0;-8.028955460E0;1.695932770E1
2.837991650E1;-1.024838066E1;-2.063323021E1;2.277364731E1
2.839140550E1;-1.439154625E1;-2.573766899E1;1.006522369E1
2.841052150E1;-1.072841740E1;-2.750937843E1;2.896983922E-1
2.843367950E1;-4.289212227E0;-2.540487480E1;-2.014720678E0
2.844990550E1;1.053448796E0;-2.830425262E1;-5.901707411E-1
2.846995650E1;2.296398544E1;-2.852571678E1;-3.285562897E1
2.848997850E1;7.838616371E0;-2.823003197E1;7.808688641E0
2.850000650E1;5.090072632E0;-2.388455582E1;8.019378662E0
2.851002950E1;4.110844135E0;-1.828451920E1;3.830722570E-1
2.852017850E1;4.346673012E0;-1.140597725E1;-1.743098640E1
2.853999150E1;6.068104267E0;-1.898601890E0;-2.231635475E1
2.854999650E1;3.855861902E0;-3.806780577E-1;-1.316930676E1
2.857015850E1;4.656722248E-1;1.392228246E0;-6.466738701E0
2.858996750E1;2.610877037E0;2.390610456E0;-1.390911484E1
2.860000050E1;3.962403774E0;4.128800869E0;-1.457949162E1
2.861007850E1;1.393425345E0;2.802412987E0;-7.648277283E0
2.862989550E1;-1.531091928E0;1.672349930E0;-7.841010690E-1
2.863997550E1;-1.125274822E-1;1.823184609E0;1.058237195E0
2.865009950E1;1.022324085E0;1.102529883E0;6.344634295E-1
2.866014550E1;3.411737382E-1;-5.410895944E-1;-3.781641483E0
2.867995750E1;-3.603273630E-1;-4.738125324E0;-1.079904652E1
2.869020950E1;2.980781198E-1;-4.656722069E0;-1.095347285E0
2.870992450E1;1.284489155E0;-8.561665535E0;-1.018732786E0
2.871995150E1;3.178302765E0;-2.150591660E1;-5.640739441E0
2.872998350E1;4.866214752E0;-3.176985931E1;-4.627991676E0
2.874007550E1;3.424905539E0;-3.885669708E1;-2.984372377E0
2.876012350E1;-5.382165432E0;-3.921463013E1;-2.729389906E0
2.877041550E1;-8.180987358E0;-3.921463013E1;-4.831499100E0
2.879027850E1;5.947196960E0;-1.998799324E1;-3.678690910E0
2.880996750E1;5.246892929E0;-1.349850941E1;2.583343744E0
2.882011850E1;2.079364061E0;-1.217331886E1;4.298789024E0
2.884006650E1;-1.697489023E0;-9.658209801E0;2.974795580E0
2.886000750E1;-2.618059635E0;-6.265625954E0;3.257311344E0
2.887991250E1;-4.070142806E-1;3.711012751E-2;9.173383713E0
2.889013950E1;7.050924301E-1;4.326322556E0;9.885659218E0
2.891001350E1;1.729810715E0;9.855731010E0;7.246051311E0
2.893003250E1;6.464344859E-1;1.102410126E1;7.016208172E0
2.894992550E1;-8.391677141E-1;7.304709435E0;5.708973885E0
2.895995950E1;-2.072181463E0;5.058948040E0;6.193799973E0
2.898000050E1;-3.819948912E0;1.143231273E0;5.096058369E0
2.899982650E1;-8.257601738E0;-1.252646351E1;-2.927749634E1
2.900997650E1;-7.784746647E0;-1.890940475E1;-3.922181320E1
2.903007050E1;-3.934870481E0;-6.627150536E0;-3.656185532E1
2.904991450E1;2.561795712E0;-3.517082214E0;3.920744705E1
2.905999350E1;-8.810662031E-1;-9.701305389E0;3.815758896E1
2.907995950E1;-1.509544134E0;-2.054703903E1;2.996822357E1
2.909981450E1;-6.496666431E0;-2.293645287E1;1.128387260E1
2.911000450E1;-8.207323074E0;-2.458964920E1;5.912481308E0
2.912060450E1;-8.172607422E0;-2.623087311E1;2.664746523E0
2.914017550E1;-3.165134668E0;-2.732622147E1;9.181763530E-1
2.915993650E1;2.296039343E0;-3.203082657E1;9.440337181E0
2.917008350E1;1.231457615E1;-3.880641937E1;7.665036678E0
2.919010750E1;1.420120716E1;-2.948938179E1;-1.160230160E1
2.921031750E1;8.647856712E0;-1.528338623E1;3.796006680E0
2.922988050E1;7.393294811E0;-4.557363033E0;-2.670492554E1
2.925002450E1;5.565321922E0;-3.363853395E-1;-1.244625759E1
2.926129550E1;3.427299738E0;1.496376097E-1;-5.057751179E0
2.928032350E1;2.167949677E0;4.620809257E-1;-2.930502892E0
2.929986650E1;5.044582844E0;4.252102375E0;-2.120664215E1
2.931010250E1;4.185064793E0;4.270058632E0;-2.106897545E1
2.933008450E1;-1.899798989E0;1.795651317E0;-4.481945515E0
2.934020950E1;-1.648407817E0;3.402160645E0;-1.948880196E0
2.936024150E1;-7.134721279E-1;-8.726865053E-1;4.489128292E-1
2.937984950E1;-5.291185975E-1;-4.642356873E0;-1.090678596E1
2.938993950E1;1.152808070E0;-8.103176117E0;-5.941211700E0
2.941001350E1;4.078522682E0;-2.688089943E1;-9.204508781E0
2.942022950E1;1.687912226E0;-3.729447937E1;-7.568071365E0
2.944004950E1;-6.592434406E0;-3.921463013E1;6.403292656E0
2.946181650E1;-4.945223808E0;-3.732799911E1;-2.583343744E0
2.947995550E1;3.784035683E0;-2.604891396E1;-6.904877663E0
2.948997150E1;7.038952827E0;-2.176808167E1;-4.292803764E0
2.950035050E1;8.923190117E0;-1.823184586E1;-4.656722248E-1
2.951985950E1;6.228515625E0;-1.362300777E1;6.981492043E0
2.953000750E1;3.490746021E0;-1.226190376E1;7.649474621E0
2.954175450E1;3.830722719E-2;-9.348160744E0;1.687912226E0
2.956067150E1;-4.824316502E-1;-4.638765812E0;2.122459888E0
2.957989350E1;2.595314741E0;4.570530891E0;8.617929459E0
2.958989550E1;3.397372246E0;8.422801971E0;9.558850288E0
2.961123150E1;2.716221809E0;1.142991924E1;1.007599831E1
2.962991150E1;9.074024558E-1;1.026753426E1;9.646238327E0
2.964246650E1;-1.747767180E-1;8.116343498E0;7.862558365E0
2.965987850E1;-2.080561161E0;3.836708307E0;4.721365929E0
2.967043650E1;-3.348291159E0;1.177947283E0;4.656722069E0
2.969007050E1;-4.076128483E0;-2.395398855E0;1.248576164E0
2.970997250E1;-1.157117653E1;-2.115157509E1;-3.876571655E1
2.972989250E1;-8.708909035E0;-1.251090145E1;-3.588309860E1
2.973989850E1;-4.028244495E0;-2.292448044E0;-3.712209702E1
2.976006250E1;8.368931770E0;4.218583584E0;3.921463013E1
2.977981850E1;5.473145008E0;-1.318846035E1;2.787928200E1
2.978991850E1;3.132812977E0;-1.764047813E1;2.212721252E1
2.981033550E1;-4.042609692E0;-2.942354202E1;9.469067574E0
2.982988550E1;-2.190694571E0;-3.496252823E1;3.068169594E0
2.983996950E1;-6.739677787E-1;-3.566283035E1;6.907271743E-1
2.985991950E1;7.097610950E0;-3.827490616E1;2.992752075E0
2.987984650E1;2.722805977E1;-3.383007050E1;-3.470275497E1
2.989013050E1;1.867118263E1;-3.034052086E1;-1.422993755E1
2.991000750E1;9.558850288E0;-1.803671837E1;5.649118900E0
2.992004050E1;1.053089619E1;-1.246660805E1;-8.623914719E0
2.994189550E1;8.695740700E0;-4.094084740E0;-2.175012589E1
2.996088750E1;1.138442874E0;-7.613561153E-1;-5.960365295E0
2.997990950E1;3.112462163E-1;1.734599113E0;-6.690596581E0
2.999225650E1;2.045845270E0;2.568978310E0;-8.712499619E0
3.000997950E1;3.654748917E0;4.097676277E0;-1.956661415E1
3.002092250E1;5.877765417E-1;2.626439333E0;-1.109832191E1
3.004259850E1;-2.005143881E0;9.121908545E-1;-1.768117905E0
3.005996250E1;1.338358760E0;1.161187813E-1;1.574187636E0
3.007988050E1;5.039794445E-1;-2.251746655E0;-7.936778545E0
3.008994650E1;5.255272985E-1;-5.037400246E0;-1.927212715E1
3.011012250E1;9.277531505E-1;-5.968744755E0;7.637503147E-1
3.012998550E1;4.321534157E0;-2.023220062E1;-4.631583214E0
3.014010150E1;5.991489887E0;-2.961507797E1;-3.971980572E0
3.015028950E1;4.762067318E0;-3.754946136E1;-9.684545994E-1
3.017008650E1;-5.944802761E0;-3.921463013E1;-6.473921299E0
3.019006550E1;8.379706144E-1;-2.642121315E1;-4.484339714E0
3.021005050E1;8.280346870E0;-1.607945824E1;-6.500257850E-1
3.023004450E1;2.480392933E0;-1.293946266E1;5.027823448E0
3.024142050E1;-5.386953801E-2;-1.201410389E1;4.821922302E0
3.025986450E1;-2.135627985E0;-9.326612473E0;2.142810583E0
3.027003950E1;-2.105700493E0;-7.754819393E0;2.208651066E0
3.029018650E1;-1.484405100E-1;-2.158372879E0;4.832695961E0
3.030996250E1;1.777694821E0;5.762843609E0;1.052371311E1
3.032996850E1;2.262520641E-1;1.010592556E1;9.136273384E0
3.034009050E1;-9.971849918E-1;1.091516590E1;7.481880188E0
3.035013550E1;-1.303642869E0;1.063983250E1;7.429207802E0
3.036980850E1;-3.473986626E0;4.406527996E0;5.521028996E0
3.037984850E1;-5.287594318E0;7.074866295E-1;5.043385983E0
3.038992250E1;-5.453991413E0;-1.845929503E0;3.669114113E0
3.041005150E1;-4.277241230E0;-7.000645638E0;-1.223077965E1
3.043000050E1;-1.523909330E0;-2.185666656E1;-3.892014313E1
3.044133650E1;2.262520641E-1;-7.686584473E0;-3.681085205E1
3.046081450E1;5.584475517E0;2.813186884E0;3.890577698E1
3.047137150E1;7.277175903E0;1.101332784E0;3.851073456E1
3.049094850E1;-1.262941360E0;-1.420120716E1;2.762310219E1
3.051000150E1;-1.003290176E1;-2.767218399E1;1.820311546E1
3.052995350E1;-1.165138245E1;-3.298850632E1;4.308365822E0
3.054989750E1;-6.439205647E0;-3.163817787E1;-8.499416113E-1
3.056997950E1;5.289988518E0;-3.488471603E1;-4.337096214E0
3.059161850E1;2.759556961E1;-2.825277710E1;-2.959113503E1
3.061017950E1;9.633070946E0;-2.638410187E1;8.037335396E0
3.062979750E1;1.011071396E1;-1.251449203E1;-2.658761024E0
3.063984550E1;8.644265175E0;-6.892906666E0;-2.253662109E1
3.064997050E1;7.005434036E0;-1.954865694E0;-3.095223999E1
3.067003650E1;3.664325714E0;1.769315004E0;-1.231936455E1
3.069048350E1;2.382230759E0;1.035492182E0;-3.003525972E0
3.070990950E1;1.930923700E0;1.370680451E0;-4.466383457E0
3.073006950E1;1.534683347E0;3.501519918E0;-1.216972733E1
3.075018950E1;1.092953086E0;3.706224203E0;-1.683123827E0
3.076993950E1;-9.301473498E-1;-2.323572636E0;-9.065644264E0
3.078045150E1;-6.165069342E-1;-4.180276394E0;-1.247259331E1
3.079993250E1;-7.757213712E-1;-6.281188011E0;-5.300762653E0
3.081983650E1;3.363853395E-1;-8.081627846E0;1.341950059E0
3.083030750E1;1.699883223E0;-1.344104862E1;5.339069963E-1
3.085009850E1;7.423222542E0;-3.097857666E1;-3.675099611E-1
3.086994150E1;5.018246651E0;-3.921463013E1;-3.970783472E0
3.089010550E1;-4.211400986E0;-3.921463013E1;-1.013944435E1
3.090993750E1;1.368286252E0;-2.677555466E1;-3.643975019E0
3.092993950E1;6.041768074E0;-1.674624443E1;2.574964046E0
3.095027250E1;-2.615665436E0;-1.124795914E1;5.470750809E0
3.096995950E1;-3.661931515E0;-7.420828342E0;3.767276287E0
3.098994850E1;-5.003881454E-1;-2.169146776E0;4.684255600E0
3.101050050E1;1.842338204E0;4.267664433E0;9.227252960E0
3.102188950E1;2.157175779E0;7.714118004E0;8.805873871E0
3.103993850E1;4.465186298E-1;1.082059479E1;2.795230389E0
3.105045450E1;-4.680664241E-1;1.202368069E1;1.177947283E0
3.106982350E1;-2.381033659E0;8.633491516E0;3.111265182E0
3.107983950E1;-3.799597979E0;5.719748020E0;4.440047264E0
3.109014850E1;-4.946420670E0;2.292448044E0;5.181052685E0
3.110991550E1;-3.719392300E0;-1.319205165E0;-1.759738177E-1
3.112998950E1;-2.033874273E0;-8.420407295E0;-2.056499481E1
3.114000850E1;-3.044227362E0;-2.007657814E1;-2.815820694E1
3.115003150E1;-1.078587890E0;-1.040160942E1;-2.331114578E1
3.116987150E1;2.418143749E0;5.829881430E-1;2.077448845E1
3.118999350E1;6.212953329E-1;-2.426523447E0;2.824798965E1
3.121043950E1;-5.124788761E0;-1.205001736E1;2.260006714E1
3.123006950E1;-1.165018559E1;-2.630030632E1;1.497333717E1
3.125016250E1;-1.077390766E1;-3.242108154E1;3.526659012E0
3.126981550E1;-5.298368454E0;-3.044466972E1;-1.003170490E0
3.128002350E1;-4.704606235E-1;-2.913384247E1;-8.307879448E0
3.129063750E1;7.560888767E0;-2.775119209E1;-2.121741486E1
3.131016850E1;1.623029327E1;-2.820489311E1;-1.082658005E1
3.132990250E1;1.021127033E1;-2.832699776E1;5.329493046E0
3.135000350E1;9.453505516E0;-1.112585545E1;-1.417008305E1
3.136996250E1;7.241262913E0;-4.915296078E0;-2.142690849E1
3.138992850E1;2.612074137E0;-2.427720547E0;-1.309029770E1
3.141054250E1;7.182604820E-2;1.711854190E-1;-6.534973621E0
3.142310450E1;6.165069342E-1;8.487445116E-1;-4.097676277E0
3.144013450E1;3.105279684E0;3.611653328E0;-1.797207451E1
3.145995350E1;-1.465251446E0;1.179144382E0;-1.037168217E1
3.147989050E1;-3.002328873E0;4.010287821E-1;3.986345828E-1
3.149264350E1;-4.010287821E-1;-7.170634270E-1;4.400542736E0
3.151000650E1;-6.380547285E-1;-1.387439847E0;2.302024841E0
3.152992850E1;-3.147178173E0;-7.250839710E0;-5.871779442E0
3.154989250E1;3.678690910E0;-2.216192818E1;-5.743690014E0
3.155992950E1;1.392228246E0;-3.527377319E1;-7.501033783E0
3.157981350E1;-9.665391922E0;-3.921463013E1;3.630806923E0
3.159152350E1;-9.574412346E0;-3.921463013E1;8.248024583E-1
3.160980250E1;-1.235408068E0;-3.314891815E1;-7.904457092E0
3.161983250E1;2.178723574E0;-2.609320641E1;-4.842272758E0
3.162994450E1;4.606443882E0;-2.066315842E1;-1.728613615E0
3.164985750E1;5.738901615E0;-1.365772343E1;5.931634903E0
3.166006950E1;4.170699596E0;-1.168490124E1;7.789535046E0
3.167983850E1;5.853823423E-1;-9.066842079E0;5.340266705E0
3.168991750E1;-4.489128292E-1;-7.187393665E0;4.824316502E0
3.171066050E1;1.191115379E0;-1.091755986E0;6.406883717E0
3.173001950E1;3.788824081E0;9.714473724E0;9.251194954E0
3.174099050E1;3.001131773E0;1.177707863E1;8.655038834E0
3.176009150E1;1.510741234E0;1.208473301E1;9.109937668E0
3.177989750E1;-1.307234168E0;7.870938301E0;6.029797077E0
3.179006750E1;-2.537853718E0;5.136759758E0;4.928464413E0
3.181034350E1;-2.923320293E0;1.541865945E0;3.185485363E0
3.182999650E1;-3.703830004E0;-3.336320162E0;-5.716156483E0
3.184986450E1;-1.038006115E1;-2.158851624E1;-3.006997681E1
3.186979150E1;-5.272032261E0;-7.581239700E0;-3.919308090E1
3.187985750E1;-2.574964046E0;-3.998316765E0;-1.415212631E1
3.188995150E1;3.827131510E0;-9.876081944E-1;3.903147507E1
3.190015950E1;7.766790390E0;-5.530605912E-1;3.921463013E1
3.191994950E1;4.353855610E0;-1.655829811E1;3.360860825E1
3.194049550E1;-4.149151325E0;-2.885013008E1;9.041702271E0
3.195984350E1;-2.534262419E0;-3.334045410E1;4.114435673E0
3.196989350E1;-9.241618514E-1;-3.291788101E1;3.597288132E0
3.198995350E1;3.013102770E0;-3.280056381E1;2.292448044E0
3.200006150E1;1.153286934E1;-3.742855453E1;1.408149719E1
3.201006150E1;2.927150917E1;-3.769191742E1;-3.281732178E1
3.202997150E1;1.715086365E1;-2.765542412E1;-2.130360603E1
3.204010050E1;8.731653214E0;-2.243127632E1;-4.353855610E0
3.205989350E1;7.065289021E0;-9.576807022E0;-1.359188271E1
3.206996750E1;7.296329498E0;-4.933252811E0;-2.206256866E1
3.208000850E1;6.546944618E0;-2.254140854E0;-1.631169701E1
3.209061750E1;5.093664169E0;-1.076193690E0;-7.402871609E0
3.211002950E1;2.753331885E-2;6.835445762E-1;-4.303577423E0
3.213008850E1;2.562992811E0;3.167528868E0;-1.608304977E1
3.214987950E1;-1.634042621E0;2.218227863E0;-1.599925327E1
3.216021850E1;-3.499125719E0;5.710170865E-1;-4.211400986E0
3.217990950E1;-2.182314873E0;1.520318091E-1;4.363432407E0
3.219022850E1;-6.955155730E-1;-7.050924301E-1;5.404910564E0
3.220023150E1;-4.070143029E-2;-1.086967587E0;3.214215755E0
3.222040050E1;-2.857479811E0;-5.859808445E0;-2.689646149E1
3.224001250E1;8.643068075E-1;-7.009025574E0;2.681505919E0
3.225998950E1;5.522226334E0;-1.434007072E1;1.352723956E0
3.227980750E1;5.389348030E0;-3.727652359E1;-3.250128746E0
3.229054350E1;8.499415964E-2;-3.921463013E1;-3.005920172E0
3.230987650E1;-1.062905884E1;-3.921463013E1;-5.673060894E0
3.231997650E1;-2.901772499E0;-2.682463646E1;-1.657984734E0
3.233012250E1;2.428917646E0;-2.016276932E1;1.377863050E0
3.234988550E1;6.682217121E0;-1.289756489E1;1.532289028E0
3.236003150E1;6.257246017E0;-1.109832191E1;3.633201122E0
3.237985350E1;1.623268723E0;-9.684545517E0;4.480748653E0
3.238996750E1;-1.019929886E0;-8.766369820E0;2.491166830E0
3.240002150E1;-2.053027868E0;-6.909666061E0;2.009932280E0
3.241062450E1;-1.592144132E0;-4.398148537E0;3.603273630E0
3.242358850E1;-3.770867586E-1;-1.146822572E0;5.027823448E0
3.243995250E1;1.356315255E0;5.710171223E0;8.118738174E0
3.245025350E1;1.340752959E0;7.501033783E0;6.818686485E0
3.246989750E1;-6.823474914E-2;1.077031612E1;2.366668463E0
3.248017950E1;-3.507505357E-1;1.049139214E1;3.458424330E0
3.249310250E1;-6.488286853E-1;8.598775864E0;6.659471989E0
3.251009550E1;-2.997540474E0;1.872265697E0;6.993463039E0
3.252991450E1;-2.163161278E0;-7.302315235E-1;-2.908954918E-1
3.255049650E1;-4.611232281E0;-1.046146393E1;-2.772964478E1
3.256991750E1;-4.809951305E0;-1.755668068E1;-3.271437073E1
3.258993250E1;-1.000776291E0;-2.804807186E0;-2.084152603E1
3.260992650E1;6.098031521E0;-3.792415380E0;3.921463013E1
3.262983150E1;1.493981838E0;-1.630212021E1;2.974077415E1
3.263992250E1;-1.470039845E0;-2.024776459E1;2.220861435E1
3.265018950E1;-6.931213856E0;-2.573048592E1;1.485003567E1
3.266998250E1;-8.349778175E0;-2.927749634E1;5.080495834E0
3.268996050E1;-2.729389906E0;-2.900455666E1;1.246181965E0
3.269998650E1;1.364694983E-1;-2.832101250E1;6.799532771E-1
3.271161750E1;8.064867973E0;-3.407906723E1;6.937199593E0
3.273010150E1;2.844670677E1;-2.983773804E1;-3.666360855E1
3.275015050E1;1.008318043E1;-2.473210335E1;5.394136429E0
3.276978350E1;9.896432877E0;-1.147181702E1;-4.468777657E0
3.278008250E1;6.052541733E0;-6.624756336E0;-2.848381805E1
