"Time (s)";"Gyroscope x (rad/s)";"Gyroscope y (rad/s)";"Gyroscope z (rad/s)"
6.131313000E-3;3.385589719E-1;3.012961745E-1;6.707300246E-2
1.804225000E-2;4.790928662E-1;3.066194355E-1;8.091346174E-2
2.995631300E-2;2.981022298E-1;6.707300246E-2;-6.068509817E-2
4.186568800E-2;-1.447925121E-1;-3.534640670E-1;-3.353650272E-1
5.377818800E-2;-6.196267605E-1;-8.602378964E-1;-6.196267605E-1
6.568912500E-2;-1.084879160E0;-1.437278628E0;-8.708843589E-1
7.760162500E-2;-1.370205641E0;-1.855686426E0;-9.379574060E-1
8.951256300E-2;-1.394692659E0;-2.003672838E0;-7.665486336E-1
1.014235000E-1;-1.142370343E0;-1.701312065E0;-4.652524292E-1
1.133485000E-1;-6.600835323E-1;-1.156210780E0;-2.171887755E-1
1.252469380E-1;-2.012190074E-1;-6.025923491E-1;-5.642649531E-2
1.371594380E-1;3.087487444E-2;-1.288227588E-1;2.129301662E-3
1.490719380E-1;4.045673087E-2;2.012190074E-1;-2.022836544E-2
1.609828750E-1;-2.363524884E-1;3.044901490E-1;-1.554390192E-1
1.728938130E-1;-6.334672570E-1;3.438822329E-1;-2.981022298E-1
1.848063130E-1;-1.045487165E0;1.511804163E-1;-3.449468613E-1
1.967188130E-1;-1.368076324E0;-3.641105890E-1;-3.162012994E-1
2.086281880E-1;-1.500092983E0;-7.069281340E-1;-3.140719831E-1
2.205406880E-1;-1.431955338E0;-1.049745679E0;-3.076840937E-1
2.324516250E-1;-1.219025254E0;-1.237124324E0;-3.630459309E-1
2.443641250E-1;-9.805434346E-1;-1.280774951E0;-4.247956872E-1
2.562750630E-1;-7.750658393E-1;-1.219025254E0;-4.077612758E-1
2.681875630E-1;-5.738468170E-1;-1.043357849E0;-3.193952441E-1
2.801110000E-1;-4.546059072E-1;-8.368155360E-1;-1.980250627E-1
2.920141250E-1;-4.035026729E-1;-6.047216654E-1;-4.365068302E-2
3.039219380E-1;-4.066966176E-1;-4.045673311E-1;9.901253134E-2
3.158328750E-1;-4.162784815E-1;-3.321710527E-1;1.767320335E-1
3.277578750E-1;-4.727049768E-1;-3.417529166E-1;1.703441292E-1
3.396563130E-1;-5.759761333E-1;-3.992440701E-1;7.452555746E-2
3.515672500E-1;-7.463202477E-1;-6.664714217E-1;-1.352106631E-1
3.634797500E-1;-1.010353684E0;-1.047616482E0;-4.024380147E-1
3.753906880E-1;-1.392563343E0;-1.549067020E0;-6.707300544E-1
3.873031880E-1;-2.130366325E0;-1.743898034E0;-8.389448524E-1
3.992156880E-1;-2.598812819E0;-1.495834470E0;-7.111867666E-1
4.111266250E-1;-3.130073547E0;-1.243512154E0;-5.110324025E-1
4.230375630E-1;-3.472891092E0;-8.463973999E-1;-2.917143404E-1
4.349485000E-1;-3.432434320E0;-1.030582070E0;-8.197811246E-2
4.468688130E-1;-3.070452929E0;-1.428761482E0;1.884431988E-1
4.587719380E-1;-2.632881641E0;-1.280774951E0;3.917915225E-1
4.706844380E-1;-2.213409185E0;-2.959729433E-1;6.845704913E-1
4.825953750E-1;-1.806712508E0;9.454099536E-1;1.051874995E0
4.945094380E-1;-1.270128489E0;1.702376723E0;1.352106571E0
5.064188130E-1;-7.378030419E-1;1.757738590E0;1.602299571E0
5.183297500E-1;-3.747570813E-1;1.464959502E0;1.666178584E0
5.302406880E-1;-1.852492392E-1;1.224348426E0;1.699182749E0
5.421531880E-1;-7.026695460E-2;9.198583364E-1;1.790742755E0
5.540672500E-1;9.475392103E-2;4.950626493E-1;2.149529934E0
5.659766250E-1;5.099677444E-1;-1.990897059E-1;2.769156933E0
5.778906880E-1;1.158340096E0;-8.825955391E-1;3.476084948E0
5.897985000E-1;1.882302642E0;-1.568230629E0;3.736924410E0
6.017110000E-1;2.944824219E0;-2.758510351E0;3.453727245E0
6.136406880E-1;2.200633287E0;-4.353357315E0;1.357429862E0
6.255344380E-1;1.354235888E0;-5.183784962E0;-1.937664598E-1
6.374469380E-1;1.391498685E0;-2.556226730E0;-8.836601675E-2
6.493641250E-1;8.251044154E-1;-1.913177609E0;4.066966176E-1
6.612688130E-1;3.758217394E-1;-3.545287251E-1;7.090574503E-1
6.731813130E-1;1.022064835E-1;4.141491652E-1;7.079927921E-1
6.850922500E-1;9.262461960E-2;6.803118587E-1;6.760532856E-1
6.970031880E-1;1.841845959E-1;4.705756605E-1;8.006174564E-1
7.089156880E-1;1.990897059E-1;1.000771821E-1;9.113411307E-1
7.208281880E-1;8.304276317E-2;-1.011418328E-1;1.021000147E0
7.327391250E-1;-1.032711342E-1;-2.129301727E-1;1.099784374E0
7.446500630E-1;-1.628915817E-1;-4.056319594E-1;1.130659223E0
7.565625630E-1;-5.749114603E-2;-7.835830450E-1;1.139176369E0
7.684735000E-1;6.707300246E-2;-1.402145147E0;1.085943818E0
7.803860000E-1;1.447925121E-1;-1.863138914E0;1.029517412E0
7.923031880E-1;1.415985674E-1;-1.963216186E0;1.130659223E0
8.042078750E-1;-2.842617631E-1;-9.539271593E-1;1.718346477E0
8.161266250E-1;-1.341460049E-1;-1.809906363E-1;1.963216186E0
8.280313130E-1;3.162012994E-1;-8.368155360E-1;1.892949224E0
8.399438130E-1;7.197039723E-1;-1.631045103E0;1.563972116E0
8.518547500E-1;9.070824981E-1;-1.983444571E0;1.364882350E0
8.637656880E-1;8.581085801E-1;-2.213409185E0;1.409597754E0
8.756766250E-1;5.972691178E-1;-2.323068142E0;1.505416274E0
8.875906880E-1;2.714859545E-1;-2.545580149E0;1.674695730E0
8.995016250E-1;-8.091346174E-2;-2.533869028E0;1.908918977E0
9.114188130E-1;-3.534640670E-1;-2.835165262E0;2.067551851E0
9.233235000E-1;-3.928561509E-1;-3.287641764E0;2.120784521E0
9.352360000E-1;-1.596976221E-1;-3.784833670E0;2.275158882E0
9.471469380E-1;9.262461960E-2;-4.118069649E0;2.462537289E0
9.590594380E-1;2.853264213E-1;-4.219211102E0;2.664821148E0
9.709703750E-1;4.237310290E-1;-4.196853638E0;2.690372705E0
9.828828750E-1;5.472305417E-1;-3.819967270E0;2.808548927E0
9.948078750E-1;5.067738295E-1;-3.083228827E0;3.093875408E0
1.006704750E0;2.320938855E-1;-2.083521605E0;3.372813940E0
1.018617250E0;-1.809906363E-1;-1.234995008E0;3.455856562E0
1.030528188E0;-5.120970607E-1;-8.911127448E-1;3.493119478E0
1.042439125E0;-5.993984342E-1;-8.613025546E-1;3.528252840E0
1.054351625E0;-2.970375717E-1;-1.039099216E0;3.420723200E0
1.066262563E0;3.257831633E-1;-1.356365204E0;3.173724174E0
1.078175063E0;1.034840584E0;-1.797130585E0;2.935242414E0
1.090104750E0;1.525644660E0;-2.134624958E0;2.905432224E0
1.101996938E0;1.837587357E0;-2.302839756E0;2.969311237E0
1.113909438E0;1.915306807E0;-2.233637571E0;3.026802301E0
1.125820375E0;1.820552945E0;-2.097362041E0;3.016155720E0
1.137732875E0;1.770514369E0;-2.055840731E0;3.042772055E0
1.149667250E0;1.839716673E0;-1.869526863E0;3.176918030E0
1.161556313E0;2.028159857E0;-1.751350641E0;3.384525061E0
1.173468813E0;2.283676147E0;-1.865268230E0;3.463309288E0
1.185381313E0;2.639269352E0;-1.963216186E0;3.447339535E0
1.197290688E0;3.021479130E0;-1.837587357E0;3.395171642E0
1.209201625E0;3.219504118E0;-1.421308875E0;3.200340509E0
1.221114125E0;3.152431250E0;-8.698197603E-1;2.860716820E0
1.233025063E0;2.877751112E0;-5.440365672E-1;2.515769958E0
1.244937563E0;2.505123377E0;-3.172659576E-1;2.317744970E0
1.256848500E0;2.046258926E0;-1.586329788E-1;2.102685452E0
1.268759438E0;1.692794800E0;-2.778738737E-1;1.883367300E0
1.280671938E0;1.411727071E0;-7.399323583E-1;1.694924116E0
1.292584438E0;1.165792704E0;-1.521386027E0;1.552260876E0
1.304495375E0;9.752201438E-1;-2.383753300E0;1.539485097E0
1.316406313E0;8.314923048E-1;-3.454792023E0;1.470282793E0
1.328337563E0;7.111867666E-1;-4.080806732E0;1.307391286E0
1.340229750E0;4.588645101E-1;-4.441723347E0;1.248835444E0
1.352140688E0;-1.171115879E-2;-5.035798550E0;1.072103381E0
1.364053188E0;-7.995527983E-1;-5.981208324E0;7.974234819E-1
1.375965688E0;-1.245641470E0;-5.805541039E0;3.460115194E-1
1.387895375E0;-3.981794119E-1;-4.209629536E0;-9.262461960E-2
1.399787563E0;9.283755422E-1;-2.347555161E0;-4.556705654E-1
1.411698500E0;1.267999172E0;-1.830134749E0;-8.368155360E-1
1.423611000E0;1.948311031E-1;-1.612946033E0;-1.728992939E0
1.435523500E0;-8.783369660E-1;-1.186021090E0;-2.303904533E0
1.447434438E0;-1.756673902E-1;-1.714087874E-1;-2.121849060E0
1.459345375E0;9.837373495E-1;7.984881401E-1;-1.396821856E0
1.471270375E0;1.946181774E0;4.588645101E-1;-6.771179438E-1
1.483171938E0;2.773415327E0;-6.505016685E-1;-3.300417662E-1
1.495081313E0;3.141784668E0;-9.805434346E-1;-2.842617631E-1
1.507004750E0;2.488089085E0;-7.963588238E-1;-3.417529166E-1
1.518904750E0;1.155146122E0;-6.228207350E-1;-3.875329196E-1
1.530815688E0;8.442681432E-1;-8.549146056E-1;-4.311835766E-1
1.542726625E0;1.270128489E0;-8.676904440E-1;-4.748342633E-1
1.554637563E0;1.771579027E0;-8.282983303E-1;-4.695110321E-1
1.566556313E0;1.855686426E0;-1.008224368E0;4.045673087E-2
1.578467250E0;1.444731236E0;-1.481993914E0;8.730136752E-1
1.590373500E0;9.645736814E-1;-1.622527838E0;1.888690591E0
1.602284438E0;8.378801942E-1;-1.112560153E0;2.884139061E0
1.614196938E0;1.109366179E0;-1.146628976E0;3.312128782E0
1.626107875E0;1.406403780E0;-1.983444571E0;3.533576250E0
1.638020375E0;1.489446521E0;-2.629687548E0;3.819967270E0
1.649931313E0;1.496899128E0;-2.900108814E0;4.307577133E0
1.661842250E0;1.455377698E0;-3.080034971E0;4.754730701E0
1.673754750E0;1.400015831E0;-3.156689644E0;5.110323906E0
1.685670375E0;1.362753034E0;-3.007638693E0;5.499986172E0
1.697578188E0;1.451119065E0;-2.912884712E0;6.085544109E0
1.709489125E0;1.625721812E0;-3.347262144E0;6.759468079E0
1.721407875E0;1.931276679E0;-4.488567829E0;7.288599491E0
1.733312563E0;2.494477034E0;-5.759760857E0;7.414228439E0
1.745223500E0;3.201405048E0;-5.893907070E0;7.590960503E0
1.757136000E0;4.071224689E0;-4.391684532E0;7.797502518E0
1.769048500E0;4.733437538E0;-2.137818813E0;7.896515369E0
1.780957875E0;5.145457745E0;2.331585288E-1;7.807084560E0
1.792870375E0;5.245534897E0;1.569295287E0;7.430198193E0
1.804781313E0;5.451012135E0;2.182534218E0;6.906390190E0
1.816693813E0;5.133746147E0;1.400015831E0;6.081285477E0
1.828612563E0;4.598227024E0;-7.026695460E-2;4.945302963E0
1.840517250E0;2.736152649E0;-1.184956431E0;3.389848232E0
1.852428188E0;1.458571702E-1;-3.108780384E-1;2.158047199E0
1.864339125E0;-9.848020077E-1;5.823640227E-1;1.379787445E0
1.876251625E0;-1.259481907E0;1.121077299E0;9.688322544E-1
1.888162563E0;-1.223283768E0;8.538499475E-1;1.016741514E0
1.900075063E0;-1.244576812E0;4.365068302E-2;1.040163875E0
1.911986000E0;-1.252029419E0;-6.600835323E-1;8.506560326E-1
1.923896938E0;-1.196667552E0;-1.025258780E0;6.409198046E-1
1.935809438E0;-1.110430837E0;-1.125335932E0;4.897393882E-1
1.947740688E0;-8.932420611E-1;-1.197732210E0;3.502701223E-1
1.959632875E0;-6.089802980E-1;-1.262675881E0;1.916371584E-1
1.971543813E0;-3.460115194E-1;-1.254158735E0;-3.513347730E-2
1.983454750E0;-1.511804163E-1;-1.170051217E0;-2.395464331E-1
1.995367250E0;-4.577998444E-2;-1.094461083E0;-3.385589719E-1
2.007282875E0;-1.171115879E-2;-9.677675962E-1;-3.747570813E-1
2.019189125E0;-3.193952516E-2;-8.740783334E-1;-4.343775511E-1
2.031101625E0;-8.836601675E-2;-7.750658393E-1;-4.982565939E-1
2.043012563E0;-1.192408949E-1;-6.739239693E-1;-5.493598580E-1
2.054951625E0;-1.522450745E-1;-6.334672570E-1;-6.185621619E-1
2.066836000E0;-1.405339092E-1;-7.207686305E-1;-6.835058331E-1
2.078746938E0;-9.901253134E-2;-8.463973999E-1;-7.431262732E-1
2.090659438E0;-3.193952516E-2;-1.013547659E0;-8.314923048E-1
2.102573500E0;3.939208016E-2;-1.087008476E0;-8.634318113E-1
2.114482875E0;1.256287992E-1;-1.101913571E0;-8.485267162E-1
2.126393813E0;2.299645841E-1;-1.141305685E0;-8.080700040E-1
2.138306313E0;2.981022298E-1;-1.238188982E0;-7.441909313E-1
2.150218813E0;2.672273517E-1;-1.441537261E0;-6.962816715E-1
2.162129750E0;2.044129670E-1;-1.634239078E0;-6.558248997E-1
2.174042250E0;1.160469428E-1;-1.610816717E0;-5.568124056E-1
2.185959438E0;2.874557301E-2;-1.431955338E0;-4.354421794E-1
2.197864125E0;-2.981022373E-2;-1.186021090E0;-3.023608327E-1
2.209776625E0;-3.193952516E-2;-9.273108840E-1;-1.884431988E-1
2.221687563E0;0.000000000E0;-7.984881401E-1;-1.203055456E-1
2.233600063E0;1.149822921E-1;-9.017592669E-1;-1.309520602E-1
2.245511000E0;1.777966917E-1;-1.079555988E0;-8.304276317E-2
2.257423500E0;1.714087874E-1;-1.238188982E0;1.171115879E-2
2.269334438E0;8.730136603E-2;-1.254158735E0;1.245641485E-1
2.281246938E0;-8.304276317E-2;-1.031646609E0;1.618269235E-1
2.293159438E0;-2.118655145E-1;-7.239625454E-1;1.543743759E-1
2.305068813E0;-2.267706245E-1;-5.216789246E-1;1.895078421E-1
2.316981313E0;-2.981022373E-2;-7.878416181E-1;2.139948159E-1
2.328892250E0;1.618269235E-1;-1.111495495E0;1.916371584E-1
2.340804750E0;8.197811246E-2;-8.038113713E-1;1.596976221E-1
2.352714125E0;-1.352106631E-1;-6.068509817E-2;4.684463516E-2
2.364626625E0;-3.523994386E-1;2.959729433E-1;4.471533373E-2
2.376537563E0;-5.919458866E-1;2.267706245E-1;-1.011418328E-1
2.388450063E0;-8.038113713E-1;-2.246413231E-1;-2.225120217E-1
2.400361000E0;-8.059406877E-1;-2.991668880E-1;-2.246413231E-1
2.412275063E0;-5.791700482E-1;-9.049531817E-2;-1.746027321E-1
2.424186000E0;-2.778738737E-1;-2.938436270E-1;1.426632106E-1
2.436095375E0;2.512575984E-1;-1.323361039E0;6.547602415E-1
2.448007875E0;3.396236300E-1;-1.626786470E0;6.696653962E-1
2.459925063E0;1.234994978E-1;-1.485187888E0;5.578770638E-1
2.471831313E0;-2.118655145E-1;-9.858666658E-1;3.949854672E-1
2.483762563E0;-4.801575243E-1;-3.704984784E-1;2.363524884E-1
2.495654750E0;-4.812221825E-1;-5.216789246E-2;2.746799290E-1
2.507564125E0;-2.427403927E-1;3.726277873E-2;5.791700482E-1
2.519478188E0;3.087487444E-2;-5.962044746E-2;9.901252985E-1
2.531395375E0;2.810678184E-1;6.068509817E-2;1.322296381E0
2.543307875E0;2.661627233E-1;3.896622062E-1;1.365947008E0
2.555211000E0;3.619812801E-2;1.002901077E0;1.191344261E0
2.567121938E0;-1.884431988E-1;1.492640495E0;9.198583364E-1
2.579040688E0;-2.257059813E-1;1.362753034E0;7.505788207E-1
2.590945375E0;-1.501157731E-1;7.984881401E-1;5.866225958E-1
2.602856313E0;-8.304276317E-2;2.533869147E-1;5.472305417E-1
2.614768813E0;-4.152138159E-2;-3.790156841E-1;5.451012254E-1
2.626679750E0;-5.749114603E-2;-7.995527983E-1;5.376486778E-1
2.638600063E0;-1.309520602E-1;-9.102764726E-1;4.599291682E-1
2.650504750E0;-2.267706245E-1;-6.398551464E-1;3.641105890E-1
2.662415688E0;-3.832743168E-1;7.771950960E-2;4.333128929E-1
2.674328188E0;-5.578770638E-1;8.272337317E-1;5.216789246E-1
2.686239125E0;-7.303504944E-1;1.489446521E0;6.611481905E-1
2.698150063E0;-8.879188299E-1;2.043065071E0;8.346862793E-1
2.710062563E0;-9.816080928E-1;2.291128635E0;9.592503905E-1
2.721979750E0;-1.028452754E0;2.075004578E0;1.090202451E0
2.733886000E0;-9.890606403E-1;1.373399615E0;1.166857362E0
2.745796938E0;-8.581085801E-1;2.640334070E-1;1.212637305E0
2.757725063E0;-7.473849058E-1;-4.865454435E-1;1.210507989E0
2.769620375E0;-6.611481905E-1;-8.346862793E-1;1.138111711E0
2.781531313E0;-9.837373495E-1;1.256287992E-1;9.283755422E-1
2.793443813E0;-1.045487165E0;1.002901077E0;7.644193172E-1
2.805354750E0;-9.773494601E-1;1.909983635E0;5.706528425E-1
2.817271938E0;-6.526309848E-1;1.999414325E0;3.981794119E-1
2.829178188E0;-2.480636388E-1;1.414920926E0;2.927789688E-1
2.841089125E0;8.197811246E-2;3.832742944E-2;3.257831633E-1
2.853001625E0;9.901253134E-2;-1.425567508E0;3.960501254E-1
2.864912563E0;1.171115879E-2;-1.971733332E0;3.449468613E-1
2.876825063E0;4.365068302E-2;-1.523515344E0;2.874557376E-1
2.888746938E0;-2.821324766E-1;-6.749886274E-1;2.885203660E-1
2.900646938E0;-4.460887015E-1;-2.565808594E-1;3.428175747E-1
2.912559438E0;-3.971147537E-1;-5.951398015E-1;1.107236892E-1
2.924470375E0;-5.653296113E-1;-8.634318113E-1;4.365068302E-2
2.936384438E0;-7.463202477E-1;-1.127465248E0;-9.581857920E-2
2.948293813E0;-7.644193172E-1;-1.054004312E0;-1.873785406E-1
2.960214125E0;-3.236538470E-1;1.437278688E-1;-4.535412490E-1
2.972123500E0;-7.559020817E-2;2.885203660E-1;-2.629687488E-1
2.984028188E0;-1.043357849E-1;-8.676904440E-1;1.682148278E-1
2.995945375E0;-4.184077680E-1;-1.920630097E0;4.684463739E-1
3.007851625E0;-4.418300986E-1;-2.028159857E0;4.130845368E-1
3.019762563E0;-9.049531817E-2;-1.064650893E0;1.969604045E-1
3.031675063E0;1.437278688E-1;1.863138974E-1;2.022836544E-2
3.043587563E0;7.452555932E-3;5.844933391E-1;-1.341460049E-1
3.055498500E0;-1.479864717E-1;-1.703441292E-1;-2.033483088E-1
3.067418813E0;5.855579674E-2;-1.327619553E0;-1.405339092E-1
3.079320375E0;3.108780384E-1;-1.330813527E0;1.586329788E-1
3.091232875E0;9.305048585E-1;-6.739239693E-1;5.046445131E-1
3.103143813E0;1.955763578E0;-4.822868407E-1;8.740783334E-1
3.115054750E0;2.533869028E0;-6.728593111E-1;1.183891773E0
3.126967250E0;2.259189129E0;-1.150887609E0;1.513933539E0
3.138878188E0;1.433019996E0;-1.645950198E0;1.800324559E0
3.150790688E0;7.047988772E-1;-1.016741514E0;1.702376723E0
3.162701625E0;1.054004356E-1;-1.234994978E-1;8.463973999E-1
3.174620375E0;-2.001543641E-1;-9.901253134E-2;2.714859545E-1
3.186531313E0;-8.943066746E-2;3.300417587E-2;-4.365068302E-2
3.198437563E0;1.171115879E-2;5.387133360E-1;-2.022836655E-1
3.210348500E0;-4.535412490E-1;5.429719090E-1;-1.777966917E-1
3.222261000E0;-9.933192134E-1;6.185621619E-1;-2.885203660E-1
3.234176625E0;-1.111495495E0;5.525537729E-1;-3.726277947E-1
3.246093813E0;-1.069974065E0;4.056319594E-1;-2.917143404E-1
3.258000063E0;-7.622900009E-1;5.876872540E-1;-1.426632106E-1
3.269906313E0;-3.087487444E-2;4.886747301E-1;9.475392103E-2
3.281818813E0;3.492054641E-1;4.322482347E-1;3.183306158E-1
3.293736000E0;3.044901490E-1;4.950626493E-1;2.736152709E-1
3.305640688E0;2.363524884E-1;5.419072509E-1;3.832742944E-2
3.317553188E0;1.149822921E-1;3.204599023E-1;1.213701963E-1
3.329464125E0;-3.183306158E-1;-2.118655145E-1;1.969604045E-1
3.341376625E0;-4.993212521E-1;-6.973463297E-1;3.673045337E-1
3.353293813E0;-3.939208090E-1;-1.074232697E0;5.546830893E-1
3.365198500E0;-3.704984784E-1;-9.347634315E-1;6.558248997E-1
3.377111000E0;-2.682920098E-1;-9.102764726E-1;1.105107546E0
3.389021938E0;-3.864682615E-1;-1.373399615E0;1.671501875E0
3.400934438E0;-8.357509375E-1;-1.746027350E0;2.353943110E0
3.412851625E0;-1.837587357E0;-7.420616150E-1;3.509089231E0
3.424765688E0;-2.129301786E0;2.129301727E-1;4.388490677E0
3.436668813E0;-1.370205641E0;-8.006174564E-1;4.013733864E0
3.448579750E0;-7.825183868E-1;-1.700247407E0;2.988474846E0
3.460492250E0;-3.460115194E-1;-3.854036033E-1;2.349684477E0
3.472409438E0;9.049531817E-2;1.054004356E-1;1.958957553E0
3.484325063E0;2.044129670E-1;-3.119426966E-1;2.076069117E0
3.496226625E0;4.503473043E-1;-7.346090674E-2;3.226956606E0
3.508137563E0;1.209443331E0;-1.362753063E-1;3.657075644E0
3.520048500E0;1.950440288E0;-2.906496823E-1;3.966889143E0
3.531961000E0;1.988767743E0;3.460115194E-1;4.089323997E0
3.543876625E0;1.595911622E0;6.505016685E-1;3.675174713E0
3.555784438E0;6.632774472E-1;2.746799290E-1;2.818130732E0
3.567695375E0;4.343775511E-1;-5.003858805E-1;2.020707369E0
3.579607875E0;4.556705654E-1;-6.068509817E-1;1.360623717E0
3.591525063E0;2.863910794E-1;-4.546059072E-1;1.581006527E0
3.603429750E0;-3.704984784E-1;-3.843389452E-1;1.427696824E0
3.615342250E0;-8.389448524E-1;-7.324797511E-1;1.043357849E0
3.627254750E0;-1.266934514E0;-7.367383838E-1;4.556705654E-1
3.639165688E0;-1.379787445E0;-6.835058331E-1;-2.501929402E-1
3.651106313E0;-1.002901077E0;-8.559792638E-1;-8.602378964E-1
3.662989125E0;-3.449468613E-1;-1.065715432E0;-1.117883325E0
3.674900063E0;1.011418328E-1;-7.633546591E-1;-1.321231723E0
3.686812563E0;3.470761776E-1;2.012190074E-1;-1.774773002E0
3.698723500E0;6.558248997E-1;8.080700040E-1;-1.842910647E0
3.710639125E0;7.718718648E-1;1.159404755E0;-1.694924116E0
3.722546938E0;5.887519121E-1;1.554390192E0;-1.479864717E0
3.734478188E0;4.173431396E-1;1.534161806E0;-1.337201476E0
3.746370375E0;5.546830893E-1;8.836601675E-2;-1.157275438E0
3.758281313E0;6.888290644E-1;-1.562907457E0;-9.411513209E-1
3.770200063E0;5.674588680E-1;-1.828005433E0;-1.121077299E0
3.782104750E0;6.494370103E-1;-1.645950198E0;-1.507545590E0
3.794015688E0;4.982565939E-1;-1.012483001E0;-1.818423629E0
3.805928188E0;1.607622802E-1;-6.568895578E-1;-1.544808388E0
3.817839125E0;-2.608394623E-1;-6.174975038E-1;-8.432034850E-1
3.829757875E0;1.490511186E-2;-4.237310290E-1;7.984881103E-2
3.841664125E0;3.736924529E-1;-3.353650272E-1;7.505788207E-1
3.853590688E0;7.889062762E-1;-2.842617631E-1;1.187085629E0
3.865486000E0;8.804662228E-1;-5.749114603E-2;1.653402805E0
3.877396938E0;5.972691178E-1;-2.022836655E-1;2.472119331E0
3.889325063E0;3.545287251E-1;-1.373399645E-1;3.303611517E0
3.901228188E0;2.523222566E-1;2.874557376E-1;4.014798164E0
3.913131313E0;-1.916371472E-2;7.505788207E-1;4.352292538E0
3.925043813E0;-4.066966176E-1;1.417050242E0;4.520507336E0
3.936954750E0;-7.931648493E-1;1.013547659E0;4.897393703E0
3.948873500E0;-9.816080928E-1;7.729365230E-1;5.471240520E0
3.960786000E0;-1.229671717E0;8.293629885E-1;5.485081196E0
3.972696938E0;-1.587394357E0;7.484495640E-1;5.070931911E0
3.984601625E0;-1.476670742E0;2.650980651E-1;4.152138233E0
3.996512563E0;-8.304276466E-1;3.279124498E-1;3.248249769E0
4.008456313E0;-1.149822921E-1;7.910355926E-1;2.745734453E0
4.020336000E0;2.001543641E-1;1.376593590E0;2.263447762E0
4.032248500E0;1.607622802E-1;1.529903293E0;1.874850154E0
4.044159438E0;1.075297371E-1;1.612946033E0;1.467088819E0
4.056071938E0;1.692794859E-1;1.517127395E0;1.118947983E0
4.067990688E0;4.205370843E-1;1.339330792E0;1.157275438E0
4.079895375E0;6.462430358E-1;2.168693781E0;9.017592669E-1
4.091806313E0;5.493598580E-1;2.972505093E0;6.717946529E-1
4.103717250E0;4.205370843E-1;2.592424870E0;7.559021115E-1
4.115629750E0;3.949854672E-1;2.079262972E0;1.116818786E0
4.127545375E0;5.781053901E-1;1.779031515E0;1.191344261E0
4.139453188E0;8.219104409E-1;1.425567508E0;7.803890705E-1
4.151364125E0;9.954485297E-1;7.867769599E-1;2.714859545E-1
4.163281313E0;9.667029381E-1;4.088259339E-1;2.267706245E-1
4.175187563E0;7.111867666E-1;5.621356368E-1;3.289771080E-1
4.187098500E0;4.854807854E-1;9.411513209E-1;2.374171317E-1
4.199011000E0;4.812221825E-1;1.285033584E0;4.471533373E-2
4.210921938E0;6.888290644E-1;1.190279603E0;-4.471533373E-2
4.222834438E0;1.160469413E0;6.068509817E-2;6.387905218E-3
4.234745375E0;1.522450686E0;-1.257352591E0;2.342231758E-2
4.246662563E0;1.257352591E0;-1.030582070E0;2.129301615E-2
4.258568813E0;8.155225515E-1;-5.962044597E-1;8.091346174E-2
4.270481313E0;3.034254909E-1;-6.100449562E-1;1.384046078E-1
4.282392250E0;-1.213701963E-1;-8.495913744E-1;1.831199378E-1
4.294303188E0;-4.854807854E-1;-1.008224368E0;1.767320335E-1
4.306217250E0;-5.972691178E-1;-9.379574060E-1;9.901253134E-2
4.318126625E0;-5.152910352E-1;-7.186393142E-1;1.809906401E-2
4.330042250E0;-2.991668880E-1;-6.015277505E-1;-2.022836544E-2
4.341950063E0;4.471533373E-2;-6.494370103E-1;-4.152138159E-2
4.353861000E0;4.013733566E-1;-7.995527983E-1;-5.323254317E-2
4.365773500E0;6.739239693E-1;-9.869313240E-1;-6.920230389E-2
4.377690688E0;8.740783334E-1;-1.181762457E0;-8.730136603E-2
4.389601625E0;9.400866628E-1;-1.304197311E0;-1.149822921E-1
4.401507875E0;8.921774030E-1;-1.354235888E0;-1.522450745E-1
4.413418813E0;7.218332887E-1;-1.271193147E0;-1.905725002E-1
4.425336000E0;4.908040464E-1;-1.026323438E0;-1.927018017E-1
4.437242250E0;2.768092155E-1;-7.814537287E-1;-1.394692659E-1
4.449154750E0;9.901253134E-2;-6.675360799E-1;-8.943066746E-2
4.461065688E0;-3.513347730E-2;-6.238853931E-1;-5.003859103E-2
4.472976625E0;-1.096590385E-1;-6.483723521E-1;-1.596976258E-2
4.484903188E0;-1.085943878E-1;-7.292858362E-1;-2.981022373E-2
4.496800063E0;-7.665485889E-2;-8.123285770E-1;-7.026695460E-2
4.508712563E0;-3.406882659E-2;-8.794015646E-1;-1.054004356E-1
4.520623500E0;8.517206647E-3;-9.113411307E-1;-1.522450745E-1
4.532534438E0;4.258603230E-2;-9.305048585E-1;-1.724734306E-1
4.544448500E0;5.962044746E-2;-9.315694571E-1;-1.788613349E-1
4.556357875E0;5.642649531E-2;-8.719490170E-1;-1.746027321E-1
4.568268813E0;3.087487444E-2;-8.538499475E-1;-1.522450745E-1
4.580181313E0;-5.323254038E-3;-8.953713775E-1;-1.171115935E-1
4.592092250E0;-6.920230389E-2;-9.688322544E-1;-1.181762442E-1
4.604011000E0;-1.171115935E-1;-1.116818786E0;-1.565036774E-1
4.615915688E0;-6.600835174E-2;-9.922545552E-1;-2.012190074E-1
4.627828188E0;9.688322991E-2;-6.185621619E-1;-2.406110913E-1
4.639739125E0;2.895850241E-1;-6.600835323E-1;-2.693566680E-1
4.651651625E0;5.046445131E-1;-6.494370103E-1;-2.544515431E-1
4.663578188E0;6.717946529E-1;-4.727049768E-1;-2.193180770E-1
4.675479750E0;7.399323583E-1;-2.938436270E-1;-1.820552945E-1
4.687384438E0;6.771179438E-1;-2.650980651E-1;-1.469218135E-1
4.699296938E0;5.216789246E-1;-4.184077680E-1;-1.266934574E-1
4.711209438E0;3.726277947E-1;-5.674588680E-1;-7.665485889E-2
4.723120375E0;3.108780384E-1;-5.727821589E-1;-4.471533373E-2
4.735032875E0;3.598519862E-1;-5.057091713E-1;-3.300417587E-2
4.746943813E0;5.131617188E-1;-4.226663709E-1;-4.152138159E-2
4.758854750E0;7.143807411E-1;-3.438822329E-1;-1.266934574E-1
4.770767250E0;9.486039281E-1;-2.076069117E-1;-2.650980651E-1
4.782704750E0;1.144499660E0;-5.962044746E-2;-3.694338500E-1
4.794590688E0;1.306326628E0;6.281439960E-2;-5.035798550E-1
4.806501625E0;1.417050242E0;2.267706245E-1;-6.686007380E-1
4.818417250E0;1.457507014E0;3.864682615E-1;-7.718718648E-1
4.830325063E0;1.405339122E0;4.567352235E-1;-7.889062762E-1
4.842236000E0;1.232865691E0;3.513347805E-1;-6.622128487E-1
4.854148500E0;9.933192134E-1;1.256287992E-1;-5.919458866E-1
4.866059438E0;7.420616150E-1;-4.684463516E-2;-5.759761333E-1
4.877970375E0;5.365840197E-1;-1.724734306E-1;-4.993212521E-1
4.889882875E0;3.215245605E-1;-1.490511149E-1;-4.184077680E-1
4.901793813E0;1.469218135E-1;-8.517206647E-3;-3.343003690E-1
4.913712563E0;9.794788063E-2;2.629687488E-1;-3.438822329E-1
4.925617250E0;1.756673902E-1;5.663942695E-1;-4.279896319E-1
4.937528188E0;3.300417662E-1;6.089802980E-1;-4.428947568E-1
4.949440688E0;4.460887015E-1;4.226663709E-1;-4.311835766E-1
4.961353188E0;4.897393882E-1;1.650208831E-1;-3.758217394E-1
4.973262563E0;4.556705654E-1;-8.517206647E-3;-3.119426966E-1
4.985175063E0;3.864682615E-1;-5.749114603E-2;-2.672273517E-1
4.997086000E0;3.502701223E-1;-4.152138159E-2;-2.501929402E-1
5.008998500E0;3.683691919E-1;-7.771950960E-2;-2.544515431E-1
5.020909438E0;4.077612758E-1;-1.266934574E-1;-2.661627233E-1
5.032821938E0;4.397007823E-1;-1.692794859E-1;-2.661627233E-1
5.044732875E0;4.492826462E-1;-1.895078421E-1;-2.544515431E-1
5.056643813E0;4.237310290E-1;-1.756673902E-1;-2.374171317E-1
5.068556313E0;3.662398756E-1;-1.415985674E-1;-2.171887755E-1
5.080467250E0;3.055547774E-1;-1.139176413E-1;-2.203827202E-1
5.092389125E0;2.555162013E-1;-7.559020817E-2;-2.342231870E-1
5.104295375E0;2.299645841E-1;-3.513347730E-2;-2.576455176E-1
5.116201625E0;2.246413231E-1;1.171115879E-2;-2.821324766E-1
5.128114125E0;2.267706245E-1;4.471533373E-2;-3.034254909E-1
5.140032875E0;2.395464331E-1;6.920230389E-2;-3.162012994E-1
5.151937563E0;2.789385319E-1;1.117883399E-1;-3.172659576E-1
5.163848500E0;3.385589719E-1;1.341460049E-1;-3.140719831E-1
5.175761000E0;3.971147537E-1;1.799259931E-1;-2.991668880E-1
5.187671938E0;4.322482347E-1;2.406110913E-1;-2.757445574E-1
5.199584438E0;4.503473043E-1;2.640334070E-1;-2.491282970E-1
5.211495375E0;4.588645101E-1;2.555162013E-1;-2.288999259E-1
5.223406313E0;4.663170576E-1;2.214473784E-1;-2.161241174E-1
5.235318813E0;4.854807854E-1;1.533097178E-1;-2.001543641E-1
5.247229750E0;5.142263770E-1;7.771950960E-2;-1.916371584E-1
5.259143813E0;5.461658835E-1;2.874557301E-2;-1.958957613E-1
5.271053188E0;5.812993646E-1;1.064650831E-3;-2.171887755E-1
5.282970375E0;6.121742129E-1;-1.596976258E-2;-2.320938855E-1
5.294875063E0;6.345319152E-1;-3.619812801E-2;-2.363524884E-1
5.306787563E0;6.355965734E-1;-4.897394031E-2;-2.320938855E-1
5.318700063E0;6.249500513E-1;-7.559020817E-2;-2.129301727E-1
5.330611000E0;6.089802980E-1;-1.064650863E-1;-1.895078421E-1
5.342540688E0;5.695881844E-1;-6.600835174E-2;-1.799259931E-1
5.354454750E0;5.142263770E-1;1.916371472E-2;-1.873785406E-1
5.366345375E0;4.407654405E-1;8.836601675E-2;-1.852492392E-1
5.378264125E0;3.939208090E-1;1.011418328E-1;-1.682148278E-1
5.390168813E0;3.651752472E-1;8.836601675E-2;-1.373399645E-1
5.402095375E0;3.662398756E-1;5.749114603E-2;-1.213701963E-1
5.413992250E0;3.896622062E-1;4.365068302E-2;-1.128529906E-1
5.425903188E0;4.098905623E-1;6.600835174E-2;-1.022064835E-1
5.437814125E0;4.269249737E-1;6.068509817E-2;-7.559020817E-2
5.449734438E0;4.109552205E-1;2.981022373E-2;-6.174974889E-2
5.461637563E0;3.800803423E-1;3.726277873E-2;-5.429719388E-2
5.473550063E0;3.694338500E-1;5.642649531E-2;-4.897394031E-2
5.485461000E0;3.896622062E-1;6.920230389E-2;-4.790928960E-2
5.497378188E0;4.056319594E-1;7.026695460E-2;-5.003859103E-2
5.509284438E0;4.013733566E-1;5.216789246E-2;-4.684463516E-2
5.521195375E0;3.747570813E-1;2.981022373E-2;-5.110324174E-2
5.533107875E0;3.428175747E-1;2.129301615E-2;-5.749114603E-2
5.545020375E0;3.225892186E-1;3.513347730E-2;-5.962044746E-2
5.556931313E0;3.193952441E-1;4.684463516E-2;-5.642649531E-2
5.568842250E0;3.236538470E-1;5.110324174E-2;-4.258603230E-2
5.580756313E0;3.374943137E-1;5.429719388E-2;-3.087487444E-2
5.592665688E0;3.449468613E-1;5.110324174E-2;-2.235766686E-2
5.604576625E0;3.438822329E-1;5.429719388E-2;-2.555162087E-2
5.616489125E0;3.268478215E-1;7.133160532E-2;-3.406882659E-2
5.628401625E0;3.076840937E-1;6.813765317E-2;-3.513347730E-2
5.640311000E0;2.704213262E-1;6.494370103E-2;-3.087487444E-2
5.652223500E0;2.374171317E-1;9.262461960E-2;-2.448697016E-2
5.664134438E0;2.267706245E-1;1.426632106E-1;-2.342231758E-2
5.676053188E0;2.352878302E-1;1.565036774E-1;-2.129301615E-2
5.687957875E0;2.363524884E-1;1.373399645E-1;-2.342231758E-2
5.699870375E0;2.161241174E-1;1.203055456E-1;-1.809906401E-2
5.711782875E0;1.841845959E-1;7.878416032E-2;2.129301662E-3
5.723693813E0;1.234994978E-1;1.703441329E-2;3.193952516E-2
5.735606313E0;5.216789246E-2;4.258603323E-3;4.471533373E-2
5.747517250E0;5.323254038E-3;1.064650808E-2;5.429719388E-2
5.759428188E0;-2.129301615E-2;3.300417587E-2;6.281439960E-2
5.771340688E0;-4.258603323E-3;-3.193952609E-3;8.517206460E-2
5.783251625E0;2.129301615E-2;1.809906401E-2;8.304276317E-2
5.795162563E0;4.152138159E-2;4.471533373E-2;7.878416032E-2
5.807082875E0;5.749114603E-2;8.304276317E-2;6.600835174E-2
5.818986000E0;5.110324174E-2;7.026695460E-2;5.429719388E-2
5.830898500E0;3.513347730E-2;3.193952609E-3;5.855579674E-2
5.842811000E0;1.171115879E-2;-5.323254317E-2;7.133160532E-2
5.854726625E0;-1.277581044E-2;-8.943066746E-2;7.984881103E-2
5.866632875E0;-3.406882659E-2;-7.665485889E-2;8.730136603E-2
5.878543813E0;-3.832742944E-2;-2.661627159E-2;8.730136603E-2
5.890456313E0;-1.277581044E-2;-7.452555932E-3;7.452555746E-2
5.902367250E0;1.596976258E-2;-3.087487444E-2;4.258603230E-2
5.914286000E0;3.193952516E-2;-5.642649531E-2;8.517206647E-3
5.926190688E0;5.962044746E-2;-9.475392103E-2;4.258603323E-3
5.938101625E0;5.323254317E-2;-7.878416032E-2;-1.064650831E-3
5.950012563E0;2.342231758E-2;-4.577998444E-2;1.277581044E-2
5.961925063E0;-3.300417587E-2;7.452555932E-3;3.193952516E-2
5.973836000E0;-8.517206460E-2;4.045673087E-2;6.600835174E-2
5.985748500E0;-1.064650863E-1;4.365068302E-2;1.096590385E-1
5.997665688E0;-1.032711342E-1;2.129301615E-2;1.394692659E-1
6.009571938E0;-7.771950960E-2;-1.171115879E-2;1.554390192E-1
6.021482875E0;-7.239625603E-2;-2.768092230E-2;1.437278688E-1
6.033401625E0;-8.410741389E-2;-3.300417587E-2;1.341460049E-1
6.045306313E0;-1.000771821E-1;-3.832742944E-2;1.437278688E-1
6.057217250E0;-1.107236892E-1;-4.152138159E-2;1.639562249E-1
6.069129750E0;-1.117883399E-1;-4.790928960E-2;1.660855263E-1
6.081040688E0;-1.224348471E-1;-5.110324174E-2;1.596976221E-1
6.092957875E0;-1.309520602E-1;-5.962044746E-2;1.469218135E-1
6.104862563E0;-1.309520602E-1;-8.943066746E-2;1.501157731E-1
6.116775063E0;-1.256287992E-1;-7.346090674E-2;1.618269235E-1
6.128693813E0;-1.213701963E-1;0.000000000E0;1.639562249E-1
6.140600063E0;-1.022064835E-1;2.129301615E-2;1.852492392E-1
6.152514125E0;-7.559020817E-2;7.452555932E-3;1.916371584E-1
6.164421938E0;-4.684463516E-2;-2.448697016E-2;2.012190074E-1
6.176334438E0;-3.832742944E-2;-5.855579674E-2;1.958957613E-1
6.188245375E0;-5.536184460E-2;-8.730136603E-2;1.980250627E-1
6.200157875E0;-8.517206460E-2;-1.139176413E-1;2.065422684E-1
6.212089125E0;-1.181762442E-1;-1.288227588E-1;2.097362131E-1
6.223979750E0;-1.479864717E-1;-1.203055456E-1;2.033483088E-1
6.235892250E0;-1.533097178E-1;-8.410741389E-2;1.884431988E-1
6.247809438E0;-1.373399645E-1;-4.471533373E-2;1.788613349E-1
6.259715688E0;-1.000771821E-1;-5.429719388E-2;1.575683206E-1
6.271651625E0;-8.197811246E-2;-8.730136603E-2;1.469218135E-1
6.283537563E0;-7.346090674E-2;-1.213701963E-1;1.447925121E-1
6.295450063E0;-7.771950960E-2;-1.256287992E-1;1.415985674E-1
6.307364125E0;-1.192408949E-1;-9.368927032E-2;1.224348471E-1
6.319273500E0;-1.767320335E-1;-8.304276317E-2;1.011418328E-1
6.331190688E0;-2.193180770E-1;-7.878416032E-2;8.304276317E-2
6.343096938E0;-2.161241174E-1;-2.981022373E-2;6.494370103E-2
6.355014125E0;-1.916371584E-1;-9.581857361E-3;5.429719388E-2
6.366918813E0;-1.746027321E-1;-4.577998444E-2;5.323254317E-2
6.378829750E0;-1.703441292E-1;-1.000771821E-1;5.855579674E-2
6.390742250E0;-1.703441292E-1;-1.149822921E-1;5.429719388E-2
6.402653188E0;-1.682148278E-1;-1.213701963E-1;5.216789246E-2
6.414565688E0;-1.660855263E-1;-1.181762442E-1;5.429719388E-2
6.426476625E0;-1.841845959E-1;-1.043357849E-1;5.855579674E-2
6.438389125E0;-2.203827202E-1;-7.665485889E-2;5.216789246E-2
6.450301625E0;-2.310292274E-1;-6.281439960E-2;3.406882659E-2
6.462212563E0;-2.022836655E-1;-7.346090674E-2;6.387905218E-3
6.474123500E0;-1.479864717E-1;-6.920230389E-2;-1.596976258E-2
6.486034438E0;-8.304276317E-2;-5.216789246E-2;-4.684463516E-2
6.497945375E0;-3.619812801E-2;-4.577998444E-2;-7.239625603E-2
6.509867250E0;-1.384046115E-2;-5.642649531E-2;-8.623671532E-2
6.521775063E0;-2.342231758E-2;-7.984881103E-2;-9.901253134E-2
6.533684438E0;-4.790928960E-2;-1.107236892E-1;-1.096590385E-1
6.545592250E0;-6.281439960E-2;-1.320167035E-1;-1.203055456E-1
6.557504750E0;-4.790928960E-2;-1.394692659E-1;-1.298874021E-1
6.569415688E0;-1.490511186E-2;-1.469218135E-1;-1.330813617E-1
6.581329750E0;4.258603230E-2;-1.426632106E-1;-1.309520602E-1
6.593239125E0;8.943066746E-2;-1.266934574E-1;-1.320167035E-1
6.605150063E0;1.298874021E-1;-1.107236892E-1;-1.288227588E-1
6.617062563E0;1.586329788E-1;-1.022064835E-1;-1.234994978E-1
6.628979750E0;1.628915817E-1;-1.043357849E-1;-1.298874021E-1
6.640887563E0;1.554390192E-1;-9.155996889E-2;-1.330813617E-1
6.652796938E0;1.309520602E-1;-7.665485889E-2;-1.341460049E-1
6.664709438E0;8.304276317E-2;-5.536184460E-2;-1.394692659E-1
6.676620375E0;4.152138159E-2;-5.855579674E-2;-1.373399645E-1
6.688532875E0;2.874557301E-2;-7.559020817E-2;-1.320167035E-1
6.700443813E0;5.003859103E-2;-1.160469428E-1;-1.213701963E-1
6.712356313E0;9.475392103E-2;-1.234994978E-1;-1.054004356E-1
6.724275063E0;1.213701963E-1;-1.288227588E-1;-1.043357849E-1
6.736178188E0;1.245641485E-1;-1.437278688E-1;-1.149822921E-1
6.748098500E0;1.224348471E-1;-1.660855263E-1;-1.245641485E-1
6.760009438E0;1.394692659E-1;-1.533097178E-1;-1.320167035E-1
6.771912563E0;1.799259931E-1;-1.149822921E-1;-1.501157731E-1
6.783825063E0;2.448696941E-1;-9.368927032E-2;-1.682148278E-1
6.795737563E0;3.374943137E-1;-7.665485889E-2;-1.884431988E-1
6.807659438E0;3.992440701E-1;-2.448697016E-2;-2.139948159E-1
6.819559438E0;4.460887015E-1;3.406882659E-2;-2.363524884E-1
6.831470375E0;5.035798550E-1;2.129301615E-2;-2.320938855E-1
6.843382875E0;5.504244566E-1;-3.406882659E-2;-2.161241174E-1
6.855295375E0;5.759761333E-1;-1.330813617E-1;-1.937664598E-1
6.867212563E0;5.706528425E-1;-2.203827202E-1;-1.927018017E-1
6.879117250E0;5.674588680E-1;-2.374171317E-1;-2.310292274E-1
6.891029750E0;6.100449562E-1;-1.767320335E-1;-2.619041204E-1
6.902940688E0;6.707300544E-1;-9.901253134E-2;-2.704213262E-1
6.914851625E0;6.930876970E-1;-1.064650863E-1;-2.608394623E-1
6.926770375E0;6.260147095E-1;-1.820552945E-1;-2.512575984E-1
6.938675063E0;4.876100719E-1;-1.426632106E-1;-2.352878302E-1
6.950586000E0;3.928561509E-1;4.258603323E-3;-2.086715698E-1
6.962498500E0;3.513347805E-1;1.298874021E-1;-1.873785406E-1
6.974409438E0;3.257831633E-1;1.565036774E-1;-1.831199378E-1
6.986336000E0;2.778738737E-1;1.117883399E-1;-1.916371584E-1
6.998234438E0;2.235766798E-1;4.045673087E-2;-1.948311031E-1
7.010143813E0;2.182534188E-1;7.452555932E-3;-1.831199378E-1
7.022056313E0;2.608394623E-1;-7.984881103E-2;-1.650208831E-1
7.033967250E0;3.673045337E-1;-2.288999259E-1;-1.873785406E-1
7.045886000E0;5.344547033E-1;-3.417529166E-1;-2.246413231E-1
7.057790688E0;7.324797511E-1;-3.992440701E-1;-2.672273517E-1
7.069701625E0;9.911899567E-1;-3.481408358E-1;-2.991668880E-1
7.081614125E0;1.207314014E0;-2.097362131E-1;-3.108780384E-1
7.093525063E0;1.400015831E0;-2.661627159E-2;-3.257831633E-1
7.105436000E0;1.487317204E0;7.771950960E-2;-3.343003690E-1
7.117359438E0;1.514998198E0;1.767320335E-1;-3.609166443E-1
7.129259438E0;1.488381863E0;2.246413231E-1;-4.109552205E-1
7.141173500E0;1.426632166E0;1.948311031E-1;-4.716403186E-1
7.153082875E0;1.422373533E0;2.203827202E-1;-5.089030862E-1
7.164995375E0;1.469218135E0;2.533869147E-1;-5.270021558E-1
7.176906313E0;1.566101432E0;2.757445574E-1;-5.419072509E-1
7.188831313E0;1.708764553E0;2.938436270E-1;-5.482951999E-1
7.200731313E0;1.872720838E0;3.151366413E-1;-5.812993646E-1
7.212640688E0;2.084586382E0;2.991668880E-1;-6.292086244E-1
7.224553188E0;2.255995035E0;2.533869147E-1;-6.558248997E-1
7.236464125E0;2.444438219E0;2.118655145E-1;-6.622128487E-1
7.248376625E0;2.663756371E0;2.033483088E-1;-6.632774472E-1
7.260287563E0;2.833035946E0;1.788613349E-1;-6.536956429E-1
7.272198500E0;2.842617750E0;2.981022373E-2;-6.664714217E-1
7.284111000E0;2.696760654E0;-1.543743759E-1;-6.813765168E-1
7.296021938E0;2.504058838E0;-1.298874021E-1;-7.058635354E-1
7.307934438E0;2.347555161E0;-1.064650863E-1;-6.717946529E-1
7.319845375E0;2.186792850E0;-7.239625603E-2;-6.079156399E-1
7.331757875E0;2.103749990E0;5.110324174E-2;-5.568124056E-1
7.343668813E0;2.109073400E0;1.501157731E-1;-5.301961303E-1
7.355586000E0;2.130366325E0;1.724734306E-1;-5.312607884E-1
7.367492250E0;2.114396572E0;1.266934574E-1;-5.259374976E-1
7.379403188E0;2.027095318E0;7.346090674E-2;-5.291314721E-1
7.391315688E0;1.936599851E0;6.494370103E-2;-5.440365672E-1
7.403237563E0;1.894013882E0;9.688322991E-2;-5.323254466E-1
7.415137563E0;1.898272395E0;1.660855263E-1;-4.993212521E-1
7.427050063E0;1.898272395E0;2.491282970E-1;-4.641877711E-1
7.438961000E0;1.881237984E0;4.045673311E-1;-4.216017425E-1
7.450871938E0;1.855686426E0;5.514891148E-1;-3.928561509E-1
7.462800063E0;1.845039964E0;6.260147095E-1;-3.609166443E-1
7.474695375E0;1.852492452E0;5.908812284E-1;-3.321710527E-1
7.486606313E0;1.836522698E0;4.684463739E-1;-3.098133802E-1
7.498518813E0;1.781160831E0;3.492054641E-1;-2.789385319E-1
7.510429750E0;1.664049268E0;2.640334070E-1;-2.459343374E-1
7.522342250E0;1.489446521E0;1.682148278E-1;-2.342231870E-1
7.534254750E0;1.341460109E0;1.181762442E-1;-2.012190074E-1
7.546165688E0;1.216895938E0;1.373399645E-1;-1.533097178E-1
7.558076625E0;1.166857362E0;2.544515431E-1;-1.139176413E-1
7.569987563E0;1.149822950E0;3.949854672E-1;-1.043357849E-1
7.581936000E0;1.222219110E0;5.344547033E-1;-6.387905031E-2
7.593814125E0;1.402145147E0;7.111867666E-1;-5.323254317E-2
7.605723500E0;1.660855293E0;8.368155360E-1;-6.387905031E-2
7.617634438E0;1.855686426E0;7.825183868E-1;-7.771950960E-2
7.629546938E0;1.906789660E0;5.355193615E-1;-6.920230389E-2
7.641457875E0;1.833328724E0;2.310292274E-1;-6.813765317E-2
7.653370375E0;1.734316230E0;4.258603323E-3;-1.107236892E-1
7.665281313E0;1.716217160E0;9.581857361E-3;-1.937664598E-1
7.677192250E0;1.743898034E0;7.346090674E-2;-2.523222566E-1
7.689104750E0;1.809906483E0;2.427403927E-1;-1.948311031E-1
7.701017250E0;1.865268230E0;5.057091713E-1;-5.429719388E-2
7.712928188E0;1.853557110E0;7.803890705E-1;3.619812801E-2
7.724839125E0;1.805647850E0;8.783369660E-1;4.258603323E-3
7.736751625E0;1.819488287E0;5.120970607E-1;-3.193952516E-2
7.748662563E0;1.915306807E0;-2.299645841E-1;1.064650808E-2
7.760575063E0;2.071810484E0;-9.539271593E-1;1.139176413E-1
7.772492250E0;2.273029566E0;-1.156210780E0;2.331585288E-1
7.784396938E0;2.411434174E0;-8.080700040E-1;2.693566680E-1
7.796309438E0;2.340102434E0;-4.237310290E-1;1.479864717E-1
7.808220375E0;2.035612345E0;-3.726277947E-1;6.387905218E-3
7.820131313E0;1.563972116E0;-4.790928662E-1;3.300417587E-2
7.832050063E0;9.539271593E-1;-3.523994386E-1;1.628915817E-1
7.843954750E0;8.517206460E-2;4.045673087E-2;3.694338500E-1
7.855867250E0;-6.451784372E-1;4.322482347E-1;5.387133360E-1
7.867778188E0;-1.161534071E0;5.578770638E-1;6.185621619E-1
7.879690688E0;-1.377658129E0;5.003858805E-1;6.377258301E-1
7.891601625E0;-1.419179559E0;5.695881844E-1;6.387904882E-1
7.903512563E0;-1.240318179E0;9.177290201E-1;6.611481905E-1
7.915425063E0;-9.432806373E-1;1.203055501E0;6.675360799E-1
7.927336000E0;-5.110324025E-1;1.334007502E0;6.622128487E-1
7.939267250E0;-1.107236892E-1;1.159404755E0;5.908812284E-1
7.951164125E0;3.130073547E-1;8.155225515E-1;4.386361539E-1
7.963071938E0;7.260918617E-1;2.640334070E-1;2.459343374E-1
7.974982875E0;1.038034558E0;-1.756673902E-1;3.726277873E-2
7.986893813E0;1.241382837E0;-2.650980651E-1;-1.341460049E-1
7.998809438E0;1.347847939E0;-1.841845959E-1;-2.714859545E-1
8.010723500E0;1.323361039E0;3.513347730E-2;-3.396236300E-1
8.022629750E0;1.112560153E0;2.927789688E-1;-2.768092155E-1
8.034540688E0;6.941523552E-1;5.110324025E-1;-1.341460049E-1
8.046451625E0;2.044129670E-1;5.589416623E-1;-1.384046115E-2
8.058371938E0;-1.362753063E-1;4.695110321E-1;-1.384046115E-2
8.070275063E0;-3.044901490E-1;4.546059072E-1;-4.897394031E-2
8.082186000E0;-1.724734306E-1;4.024380147E-1;6.387905031E-2
8.094098500E0;3.225892186E-1;-9.368927032E-2;2.619041204E-1
8.106009438E0;6.515663266E-1;-2.981022298E-1;3.949854672E-1
8.117928188E0;4.524766207E-1;-2.129301662E-3;4.993212521E-1
8.129834438E0;-1.490511186E-2;3.321710527E-1;5.940751433E-1
8.141745375E0;-2.587101460E-1;1.735380888E-1;5.653296113E-1
8.153656313E0;-1.522450745E-1;5.216789246E-2;4.641877711E-1
8.165568813E0;3.193952441E-1;1.447925121E-1;3.193952441E-1
8.177479750E0;9.347634315E-1;3.875329196E-1;1.682148278E-1
8.189398500E0;1.598040938E0;1.756673902E-1;1.809906401E-2
8.201303188E0;2.349684477E0;-4.684463739E-1;-2.278352827E-1
8.213221938E0;2.959729433E0;-1.112560153E0;-4.269249737E-1
8.225126625E0;3.217374802E0;-1.324425697E0;-5.642649531E-1
8.237048500E0;2.882009745E0;-8.708843589E-1;-5.067738295E-1
8.248954750E0;2.324132681E0;-3.864682615E-1;-3.960501254E-1
8.260861000E0;1.800324559E0;-2.150594741E-1;-3.385589719E-1
8.272771938E0;1.360623717E0;-2.885203660E-1;-3.215245605E-1
8.284684438E0;8.197811246E-1;-3.140719831E-1;-3.130073547E-1
8.296600063E0;4.727049768E-1;-1.990897059E-1;-3.406882584E-1
8.308506313E0;3.257831633E-1;-7.984881103E-2;-4.045673311E-1
8.320418813E0;3.992440701E-1;-1.394692659E-1;-5.291314721E-1
8.332329750E0;5.855579376E-1;-3.513347805E-1;-6.888290644E-1
8.344242250E0;7.952941656E-1;-5.653296113E-1;-7.984881401E-1
8.356153188E0;9.305048585E-1;-6.771179438E-1;-8.314923048E-1
8.368065688E0;1.035905242E0;-6.781826019E-1;-7.974234819E-1
8.379976625E0;1.069974065E0;-6.962816715E-1;-7.228979468E-1
8.391887563E0;9.858666658E-1;-6.717946529E-1;-6.505016685E-1
8.403800063E0;7.942295074E-1;-5.866225958E-1;-5.951398015E-1
8.415731313E0;6.153681874E-1;-4.918686748E-1;-5.163556337E-1
8.427623500E0;4.471533597E-1;-4.514119625E-1;-4.120198786E-1
8.439539125E0;3.130073547E-1;-4.237310290E-1;-3.321710527E-1
8.451445375E0;1.948311031E-1;-2.970375717E-1;-2.523222566E-1
8.463357875E0;1.213701963E-1;-1.075297371E-1;-1.841845959E-1
8.475275063E0;1.075297371E-1;5.749114603E-2;-1.394692659E-1
8.487179750E0;1.533097178E-1;2.587101460E-1;-1.043357849E-1
8.499092250E0;2.054776102E-1;4.397007823E-1;-8.517206460E-2
8.511003188E0;2.821324766E-1;5.727821589E-1;-4.897394031E-2
8.522915688E0;4.258603454E-1;6.228207350E-1;-1.384046115E-2
8.534834438E0;5.557477474E-1;5.025151968E-1;1.916371472E-2
8.546745375E0;6.707300544E-1;2.438050359E-1;3.939208016E-2
8.558650063E0;7.409969568E-1;-1.245641485E-1;4.045673087E-2
8.570562563E0;7.718718648E-1;-4.397007823E-1;4.045673087E-2
8.582473500E0;8.304276466E-1;-5.610709786E-1;4.577998444E-2
8.594390688E0;9.645736814E-1;-3.896622062E-1;7.559020817E-2
8.606295375E0;1.106172204E0;-6.068509817E-2;9.049531817E-2
8.618209438E0;1.148758292E0;1.554390192E-1;4.577998444E-2
8.630120375E0;1.094461083E0;1.958957613E-1;-4.152138159E-2
8.642031313E0;9.603150487E-1;1.596976221E-1;-1.852492392E-1
8.653948500E0;7.527081370E-1;9.262461960E-2;-2.650980651E-1
8.665854750E0;5.046445131E-1;-1.277581044E-2;-2.469989955E-1
8.677767250E0;2.938436270E-1;-1.777966917E-1;-2.821324766E-1
8.689678188E0;2.108008713E-1;-3.417529166E-1;-5.131617188E-1
8.701589125E0;2.619041204E-1;-2.406110913E-1;-6.483723521E-1
8.713509438E0;4.471533597E-1;7.133160532E-2;-5.514891148E-1
8.725421938E0;6.877644658E-1;4.354421794E-1;-3.023608327E-1
8.737325063E0;8.517206907E-1;7.750658393E-1;-8.623671532E-2
8.749236000E0;9.667029381E-1;1.085943818E0;0.000000000E0
8.761146938E0;1.113624811E0;1.222219110E0;8.836601675E-2
8.773064125E0;1.232865691E0;1.150887609E0;2.161241174E-1
8.784970375E0;1.335072160E0;9.667029381E-1;3.619812727E-1
8.796881313E0;1.403209805E0;8.378801942E-1;4.450240433E-1
8.808793813E0;1.273322463E0;7.899709344E-1;4.609938264E-1
8.820704750E0;8.346862793E-1;9.954485297E-1;4.588645101E-1
8.832648500E0;2.863910794E-1;1.171115875E0;4.929333329E-1
8.844528188E0;-3.981794119E-1;1.138111711E0;5.451012254E-1
8.856440688E0;-7.952941656E-1;8.996299505E-1;5.557477474E-1
8.868351625E0;-1.141305685E0;4.066966176E-1;5.632002950E-1
8.880262563E0;-1.338266134E0;-2.331585288E-1;5.493598580E-1
8.892181313E0;-1.500092983E0;-7.111867666E-1;5.291314721E-1
8.904089125E0;-1.648079515E0;-9.315694571E-1;5.184849501E-1
8.915998500E0;-1.872720838E0;-7.527081370E-1;5.514891148E-1
8.927909438E0;-2.119719744E0;-6.281439960E-2;6.813765168E-1
8.939821938E0;-2.232572794E0;6.419844627E-1;8.325569630E-1
8.951739125E0;-2.064357996E0;7.921002507E-1;8.357509375E-1
8.963643813E0;-1.717281818E0;8.240397573E-1;7.686778903E-1
8.975554750E0;-1.205184698E0;8.325569630E-1;6.600835323E-1
8.987475063E0;-7.303504944E-1;7.356737256E-1;5.067738295E-1
8.999378188E0;-1.958957613E-1;5.131617188E-1;2.523222566E-1
9.011296938E0;1.799259931E-1;2.619041204E-1;2.768092230E-2
9.023203188E0;4.780282378E-1;6.068509817E-2;-2.033483088E-1
9.035114125E0;7.197039723E-1;2.555162087E-2;-4.109552205E-1
9.047025063E0;8.421388268E-1;8.197811246E-2;-5.546830893E-1
9.058936000E0;8.133932352E-1;1.724734306E-1;-7.026695609E-1
9.070854750E0;6.281439662E-1;2.650980651E-1;-7.963588238E-1
9.082759438E0;2.949082851E-1;3.343003690E-1;-8.400095105E-1
9.094670375E0;-3.939208016E-2;3.108780384E-1;-7.910355926E-1
9.106584438E0;-3.971147537E-1;2.682920098E-1;-6.324025989E-1
9.118495375E0;-7.101221085E-1;2.129301727E-1;-4.971919358E-1
9.130406313E0;-8.197811246E-1;1.256287992E-1;-4.088259339E-1
9.142323500E0;-3.736924529E-1;-5.802347064E-1;-2.469989955E-1
9.154236000E0;5.749114603E-2;-8.911127448E-1;-1.746027321E-1
9.166142250E0;-3.130073547E-1;8.623671532E-2;-2.768092230E-2
9.178053188E0;-1.315908432E0;1.163663387E0;2.959729433E-1
9.189967250E0;-1.984509110E0;9.315694571E-1;4.631231129E-1
9.201882875E0;-1.727928281E0;2.278352827E-1;3.683691919E-1
9.213790688E0;-1.054004312E0;5.685235262E-1;1.394692659E-1
9.225698500E0;-9.368927032E-2;9.954485297E-1;-1.490511149E-1
9.237611000E0;1.135982394E0;5.962044597E-1;-2.672273517E-1
9.249523500E0;2.395464420E0;-4.173431396E-1;-2.682920098E-1
9.261434438E0;3.322775364E0;-1.348912597E0;-2.917143404E-1
9.273345375E0;4.045673370E0;-2.232572794E0;-4.567352235E-1
9.285257875E0;4.374650478E0;-2.756381035E0;-5.323254466E-1
9.297170375E0;4.168107986E0;-2.513640642E0;-3.779510558E-1
9.309081313E0;3.196081877E0;-8.794015646E-1;-2.693566680E-1
9.320992250E0;2.103749990E0;6.866998076E-1;-3.193952441E-1
9.332925063E0;1.516062737E0;7.995527983E-1;-4.237310290E-1
9.344815688E0;1.269063830E0;3.555933833E-1;-5.259374976E-1
9.356726625E0;1.187085629E0;-2.129301662E-3;-7.047988772E-1
9.368643813E0;1.244576812E0;-5.323254317E-2;-7.218332887E-1
9.380550063E0;1.355300546E0;-1.384046115E-2;-6.547602415E-1
9.392461000E0;1.326554894E0;-5.429719388E-2;-6.132388711E-1
9.404379750E0;1.176439166E0;-1.415985674E-1;-5.855579376E-1
9.416284438E0;9.411513209E-1;-2.491282970E-1;-5.248728395E-1
9.428201625E0;7.612253428E-1;-3.417529166E-1;-4.258603454E-1
9.440106313E0;7.079927921E-1;-4.641877711E-1;-3.513347805E-1
9.452018813E0;8.304276466E-1;-4.812221825E-1;-3.215245605E-1
9.463931313E0;1.115754128E0;-3.087487519E-1;-3.215245605E-1
9.475842250E0;1.431955338E0;-2.438050359E-1;-3.502701223E-1
9.487753188E0;1.750285983E0;-2.906496823E-1;-4.897393882E-1
9.499665688E0;2.205956459E0;-2.086715698E-1;-7.058635354E-1
9.511576625E0;2.384817839E0;-5.376486778E-1;-6.866998076E-1
9.523489125E0;2.269835472E0;-1.094461083E0;-6.228207350E-1
9.535400063E0;2.047323465E0;-1.304197311E0;-6.664714217E-1
9.547318813E0;1.789678097E0;-1.259481907E0;-7.527081370E-1
9.559223500E0;1.374464273E0;-1.048681021E0;-7.654839754E-1
9.571134438E0;1.081685305E0;-6.654067636E-1;-7.218332887E-1
9.583046938E0;8.591732383E-1;-2.203827202E-1;-6.600835323E-1
9.594957875E0;8.165872097E-1;-5.323254317E-2;-5.557477474E-1
9.606893813E0;7.995527983E-1;-8.091346174E-2;-4.322482347E-1
9.618781313E0;7.239625454E-1;-5.323254317E-2;-3.151366413E-1
9.630693813E0;6.664714217E-1;1.330813617E-1;-9.688322991E-2
9.642604750E0;7.165099978E-1;4.311835766E-1;1.990897059E-1
9.654515688E0;9.102764726E-1;6.206914186E-1;4.077612758E-1
9.666431313E0;1.220089912E0;4.492826462E-1;5.536184311E-1
9.678348500E0;1.508610249E0;1.181762442E-1;5.834286809E-1
9.690250063E0;1.754544616E0;-1.703441292E-1;4.088259339E-1
9.702162563E0;1.923824072E0;-2.054776102E-1;2.203827202E-1
9.714075063E0;1.983444571E0;6.494370103E-2;-4.577998444E-2
9.725992250E0;1.842910647E0;2.523222566E-1;-2.065422684E-1
9.737896938E0;1.608687401E0;2.267706245E-1;-3.428175747E-1
9.749809438E0;1.535226464E0;3.193952516E-2;-6.068509817E-1
9.761721938E0;1.744962692E0;-2.491282970E-1;-7.484495640E-1
9.773632875E0;1.845039964E0;-6.632774472E-1;-4.535412490E-1
9.785573500E0;1.973862648E0;-5.834286809E-1;3.832742944E-2
9.797454750E0;2.175081730E0;-3.502701223E-1;5.451012254E-1
9.809367250E0;2.287934542E0;-3.257831633E-1;8.474620581E-1
9.821278188E0;2.288999319E0;-4.993212521E-1;1.005030394E0
9.833189125E0;2.143142223E0;-6.547602415E-1;1.069974065E0
9.845103188E0;1.880173326E0;-5.344547033E-1;1.073168039E0
9.857015688E0;1.573553920E0;-9.794788063E-2;9.635090232E-1
9.868925063E0;1.438343287E0;1.234994978E-1;7.665486336E-1
9.880836000E0;1.403209805E0;1.682148278E-1;5.003858805E-1
9.892748500E0;1.285033584E0;1.384046078E-1;3.140719831E-1
9.904661000E0;9.411513209E-1;2.384817898E-1;3.566580415E-1
9.916571938E0;2.161241174E-1;6.579542160E-1;6.153681874E-1
9.928482875E0;-7.079927921E-1;1.310585141E0;1.044422507E0
9.940393813E0;-1.309520483E0;1.419179559E0;1.425567508E0
9.952306313E0;-1.325490236E0;7.814537287E-1;1.548002362E0
9.964225063E0;-9.965131879E-1;1.213701963E-1;1.610816717E0
9.976131313E0;-6.004630923E-1;-2.608394623E-1;1.741768718E0
9.988040688E0;-2.044129670E-1;-3.108780384E-1;1.868462205E0
9.999951625E0;1.735380888E-1;-2.374171317E-1;1.866332889E0
1.001186412E1;6.483723521E-1;4.258603323E-3;1.802453876E0
1.002378288E1;9.645736814E-1;4.503473043E-1;1.853557110E0
1.003568600E1;1.172180533E0;7.761304379E-1;1.985573769E0
1.004759850E1;1.306326628E0;7.899709344E-1;2.172952414E0
1.005950944E1;1.382981420E0;5.600063205E-1;2.193180799E0
1.007142194E1;1.574618578E0;3.481408358E-1;2.048388243E0
1.008333444E1;1.641691566E0;3.449468613E-1;1.739639521E0
1.009524381E1;1.661919951E0;3.917915225E-1;1.332942843E0
1.010715631E1;1.676825047E0;3.098133802E-1;1.127465248E0
1.011906881E1;1.585265160E0;3.172659576E-1;1.271193147E0
1.013097975E1;1.243512154E0;1.277581044E-2;1.616140008E0
1.014290788E1;9.997071624E-1;-5.493598580E-1;1.678954363E0
1.015480163E1;8.911127448E-1;-1.010353684E0;1.448989749E0
1.016671412E1;8.740783334E-1;-9.230522513E-1;1.001836419E0
1.017862506E1;7.537727952E-1;-1.937664598E-1;4.993212521E-1
1.019053756E1;4.556705654E-1;4.418300986E-1;1.256287992E-1
1.020245006E1;1.054004356E-1;7.058635354E-1;-9.368927032E-2
1.021437038E1;-1.756673902E-1;9.134704471E-1;-3.566580415E-1
1.022627194E1;-1.927018017E-1;9.166643620E-1;-7.143807411E-1
1.023818444E1;2.342231758E-2;6.749886274E-1;-1.253094077E0
1.025009538E1;3.247185051E-1;4.152138233E-1;-1.982379913E0
1.026201412E1;5.376486778E-1;4.098905623E-1;-2.620105743E0
1.027391881E1;5.365840197E-1;8.857895136E-1;-2.760639668E0
1.028582975E1;4.439594150E-1;1.271193147E0;-2.464666605E0
1.029774225E1;8.634318113E-1;-1.245641485E-1;-2.139948130E0
1.030965319E1;1.388304710E0;-1.853557110E0;-1.868462205E0
1.032156412E1;1.790742755E0;-3.275930643E0;-1.698118091E0
1.033348288E1;1.890819907E0;-4.030767918E0;-1.659790635E0
1.034538756E1;1.678954363E0;-4.138298035E0;-1.610816717E0
1.035730006E1;1.237124324E0;-3.421787739E0;-1.524580002E0
1.036921100E1;7.079927921E-1;-1.967474699E0;-1.312714458E0
1.038112194E1;3.130073547E-1;-5.280668139E-1;-1.106172204E0
1.039304225E1;1.160469428E-1;1.022064835E-1;-1.002901077E0
1.040494694E1;2.661627159E-2;7.771950960E-2;-9.922545552E-1
1.041685788E1;-5.642649531E-2;-1.426632106E-1;-1.013547659E0
1.042876881E1;-1.426632106E-1;-3.513347805E-1;-1.015676856E0
1.044068756E1;-2.246413231E-1;-3.864682615E-1;-9.571211338E-1
1.045259225E1;-3.523994386E-1;-2.704213262E-1;-8.964360356E-1
1.046450319E1;-5.301961303E-1;-7.346090674E-2;-8.229750991E-1
1.047641569E1;-6.898937225E-1;-6.920230389E-2;-8.048760295E-1
1.048832663E1;-7.963588238E-1;-2.150594741E-1;-8.165872097E-1
1.050023912E1;-8.101992607E-1;-3.513347805E-1;-8.059406877E-1
1.051215006E1;-7.495141625E-1;-4.162784815E-1;-7.931648493E-1
1.052406100E1;-6.324025989E-1;-5.791700482E-1;-7.601606846E-1
1.053597350E1;-4.162784815E-1;-8.602378964E-1;-6.707300544E-1
1.054788444E1;-1.192408949E-1;-1.030582070E0;-5.663942695E-1
1.055979538E1;1.767320335E-1;-9.709615707E-1;-4.727049768E-1
1.057171569E1;4.790928662E-1;-7.825183868E-1;-4.130845368E-1
1.058361881E1;6.494370103E-1;-6.526309848E-1;-4.439594150E-1
1.059553131E1;7.143807411E-1;-6.579542160E-1;-4.993212521E-1
1.060744381E1;6.451784372E-1;-8.357509375E-1;-5.589416623E-1
1.061935788E1;5.387133360E-1;-1.073168039E0;-5.663942695E-1
1.063127038E1;4.152138233E-1;-1.289292216E0;-5.355193615E-1
1.064317819E1;3.076840937E-1;-1.295680046E0;-4.886747301E-1
1.065508912E1;1.660855263E-1;-1.051874995E0;-3.704984784E-1
1.066700163E1;2.129301615E-2;-6.345319152E-1;-1.958957613E-1
1.067892506E1;-1.916371472E-2;-2.129301615E-2;-1.490511186E-2
1.069082350E1;-2.129301662E-3;5.206142664E-1;4.471533373E-2
1.070273600E1;4.045673087E-2;7.537727952E-1;-8.517206647E-3
1.071464694E1;1.384046078E-1;9.539271593E-1;-8.197811246E-2
1.072655944E1;3.225892186E-1;1.390434027E0;-6.600835174E-2
1.073847194E1;6.079156399E-1;1.907854319E0;-5.323254038E-3
1.075038288E1;8.474620581E-1;1.989832401E0;1.064650808E-2
1.076229381E1;9.315694571E-1;1.590588331E0;2.129301662E-3
1.077420475E1;8.932420611E-1;1.131723881E0;5.110324174E-2
1.078611725E1;8.070053458E-1;8.261690736E-1;1.032711342E-1
1.079805631E1;7.867769599E-1;5.152910352E-1;2.331585288E-1
1.080994225E1;8.836601973E-1;2.406110913E-1;4.663170576E-1
1.082185162E1;1.140241027E0;-7.452555932E-3;6.707300544E-1
1.083376256E1;1.469218135E0;-1.437278688E-1;7.825183868E-1
1.084567506E1;1.809906483E0;-2.044129670E-1;7.910355926E-1
1.085758912E1;1.915306807E0;-1.724734306E-1;7.026695609E-1
1.086950319E1;1.796065927E0;-1.788613349E-1;5.557477474E-1
1.088140944E1;1.379787445E0;-2.363524884E-1;4.482180178E-1
1.089332662E1;8.400095105E-1;-8.623671532E-2;4.673817158E-1
1.090523288E1;3.321710527E-1;1.767320335E-1;5.461658835E-1
1.091714381E1;2.448697016E-2;2.821324766E-1;6.473076940E-1
1.092905944E1;-1.692794859E-1;2.885203660E-1;7.484495640E-1
1.094096725E1;-2.831971347E-1;2.480636388E-1;8.762076497E-1
1.095287819E1;-4.162784815E-1;2.565808594E-1;1.018870831E0
1.096479069E1;-7.665486336E-1;6.345319152E-1;1.204120159E0
1.097670162E1;-1.176439166E0;1.238188982E0;1.415985584E0
1.098861413E1;-1.406403780E0;1.618269324E0;1.631045103E0
1.100052506E1;-1.301003337E0;1.506480932E0;1.703441381E0
1.101243600E1;-9.869313240E-1;1.141305685E0;1.609752059E0
1.102434850E1;-7.239625454E-1;8.985652924E-1;1.516062737E0
1.103626881E1;-5.078384280E-1;7.601606846E-1;1.450054407E0
1.104817038E1;-3.598519862E-1;8.506560326E-1;1.442601919E0
1.106008288E1;-2.331585288E-1;9.656383395E-1;1.477735400E0
1.107199381E1;-1.085943878E-1;9.560564756E-1;1.513933539E0
1.108390631E1;-3.193952516E-2;7.612253428E-1;1.591652989E0
1.109585006E1;8.623671532E-2;4.684463739E-1;1.649144173E0
1.110773600E1;1.948311031E-1;2.139948159E-1;1.634239078E0
1.111964069E1;1.905725002E-1;9.262461960E-2;1.526709318E0
1.113155475E1;1.266934574E-1;1.309520602E-1;1.396821856E0
1.114346413E1;5.216789246E-2;2.118655145E-1;1.211572647E0
1.115538131E1;-6.174974889E-2;2.161241174E-1;1.010353684E0
1.116729381E1;-1.234994978E-1;1.852492392E-1;7.857123017E-1
1.117919850E1;-8.730136603E-2;2.501929402E-1;5.536184311E-1
1.119111100E1;8.517206647E-3;3.470761776E-1;3.523994386E-1
1.120302350E1;6.707300246E-2;4.024380147E-1;1.288227588E-1
1.121494069E1;7.026695460E-2;4.194724262E-1;-5.642649531E-2
1.122684538E1;7.771950960E-2;4.929333329E-1;-2.384817898E-1
1.123875788E1;6.387905031E-2;7.165099978E-1;-2.650980651E-1
1.125066881E1;7.878416032E-2;9.209229946E-1;-1.096590385E-1
1.126257975E1;9.155996889E-2;1.105107546E0;2.640334070E-1
1.127450944E1;7.133160532E-2;1.380852103E0;1.501157731E-1
1.128640319E1;1.958957613E-1;1.332942843E0;-8.783369660E-1
1.129832663E1;4.216017425E-1;1.155146122E0;-1.993026376E0
1.131022662E1;6.824411750E-1;1.205184698E0;-2.747863770E0
1.132213756E1;1.228607059E0;1.873785406E-1;-2.984216213E0
1.133407975E1;1.634239078E0;-9.305048585E-1;-2.820260048E0
1.134596412E1;1.878044128E0;-2.278352737E0;-2.347555161E0
1.135787194E1;1.808841825E0;-3.237603188E0;-1.828005433E0
1.136978444E1;1.419179559E0;-3.776316643E0;-1.384046078E0
1.138169538E1;8.644964695E-1;-3.626200676E0;-1.046551824E0
1.139361413E1;4.045673311E-1;-2.869234085E0;-8.751429915E-1
1.140552506E1;-3.087487444E-2;-1.611881375E0;-7.899709344E-1
1.141742975E1;-1.607622802E-1;-7.303504944E-1;-8.336216211E-1
1.142934225E1;-2.661627159E-2;-3.566580415E-1;-9.315694571E-1
1.144125319E1;2.374171317E-1;-4.460887015E-1;-1.026323438E0
1.145316569E1;4.737696350E-1;-7.133160830E-1;-1.137047052E0
1.146507819E1;5.727821589E-1;-9.603150487E-1;-1.207314014E0
1.147698913E1;5.717175007E-1;-1.043357849E0;-1.174309850E0
1.148890006E1;4.226663709E-1;-8.794015646E-1;-1.102978230E0
1.150081256E1;8.517206460E-2;-4.833514690E-1;-9.081471562E-1
1.151272350E1;-2.629687488E-1;-2.480636388E-1;-7.708072066E-1
1.152463912E1;-5.812993646E-1;-1.927018017E-1;-6.824411750E-1
1.153654694E1;-8.527853489E-1;-2.672273517E-1;-6.228207350E-1
1.154846256E1;-9.826727509E-1;-3.374943137E-1;-6.047216654E-1
1.156036881E1;-9.762848020E-1;-4.492826462E-1;-6.185621619E-1
1.157229850E1;-7.867769599E-1;-4.918686748E-1;-6.590188742E-1
1.158419225E1;-4.631231129E-1;-4.982565939E-1;-7.026695609E-1
1.159610475E1;4.045673087E-2;-4.333128929E-1;-8.442681432E-1
1.160801569E1;5.727821589E-1;-1.171115935E-1;-9.464746118E-1
1.161992819E1;1.157275438E0;3.002315462E-1;-1.013547659E0
1.163184538E1;1.314843774E0;1.969604045E-1;-9.741555452E-1
1.164375162E1;1.108301520E0;-2.800031602E-1;-9.124057889E-1
1.165566256E1;7.548374534E-1;-8.272337317E-1;-7.761304379E-1
1.166757350E1;3.715631366E-1;-1.368076324E0;-5.749114752E-1
1.167948600E1;7.239625603E-2;-1.768385053E0;-4.045673311E-1
1.169140006E1;6.387905218E-3;-1.757738590E0;-3.044901490E-1
1.170330944E1;1.256287992E-1;-1.139176369E0;-2.395464331E-1
1.171522663E1;2.533869147E-1;-1.533097178E-1;-2.438050359E-1
1.172713288E1;4.024380147E-1;1.025258780E0;-1.671501845E-1
1.173904381E1;5.876872540E-1;1.709829211E0;-7.239625603E-2
1.175096413E1;8.346862793E-1;1.666178584E0;-7.133160532E-2
1.176287975E1;1.135982394E0;1.083814502E0;-1.320167035E-1
1.177477819E1;1.339330792E0;6.430491209E-1;-1.075297371E-1
1.178669069E1;1.510739565E0;7.431262732E-1;1.660855263E-1
1.179860162E1;1.568230629E0;8.038113713E-1;3.513347805E-1
1.181052194E1;1.518192053E0;3.098133802E-1;3.374943137E-1
1.182242506E1;1.484123230E0;-2.459343374E-1;5.195496082E-1
1.183433600E1;1.363817692E0;-6.302732825E-1;7.793244123E-1
1.184624850E1;1.153016806E0;-6.877644658E-1;1.000771761E0
1.185815944E1;7.548374534E-1;-3.545287251E-1;1.190279603E0
1.187007038E1;3.119426966E-1;3.172659576E-1;1.270128489E0
1.188198756E1;-4.258603323E-3;1.022064805E0;1.267999172E0
1.189389381E1;-1.245641485E-1;1.286098242E0;1.217960596E0
1.190580631E1;-6.920230389E-2;1.279710293E0;1.142370343E0
1.191771725E1;7.878416032E-2;1.155146122E0;1.096590400E0
1.192963600E1;5.855579674E-2;1.243512154E0;1.176439166E0
1.194154069E1;-6.387905031E-2;1.499028325E0;1.318037748E0
1.195345163E1;-1.788613349E-1;1.711958528E0;1.446860433E0
1.196536412E1;-2.076069117E-1;1.775837660E0;1.538420439E0
1.197727506E1;-4.897394031E-2;1.371270299E0;1.480929375E0
1.198920631E1;1.479864717E-1;6.505016685E-1;1.296744704E0
1.200109850E1;2.054776102E-1;2.587101460E-1;1.151952267E0
1.201300944E1;1.362753063E-1;1.841845959E-1;1.068909407E0
1.202492194E1;4.577998444E-2;3.811450005E-1;1.175374508E0
1.203683288E1;-4.684463516E-2;6.877644658E-1;1.534161806E0
1.204874694E1;-1.394692659E-1;7.995527983E-1;1.956828237E0
1.206065631E1;-7.984881103E-2;6.217560768E-1;2.260253668E0
1.207256881E1;1.980250627E-1;4.844161272E-1;2.259189129E0
1.208447819E1;6.015277505E-1;3.992440701E-1;2.010060787E0
1.209639069E1;9.784141183E-1;2.086715698E-1;1.717281818E0
1.210832350E1;1.175374508E0;5.429719388E-2;1.603364110E0
1.212022038E1;1.191344261E0;-4.684463516E-2;1.633174419E0
1.213212663E1;1.095525742E0;-8.091346174E-2;1.664049268E0
1.214403756E1;9.305048585E-1;-1.543743759E-1;1.562907457E0
1.215594850E1;7.367383838E-1;-1.777966917E-1;1.296744704E0
1.216789225E1;5.514891148E-1;-1.171115935E-1;9.368927479E-1
1.217977194E1;3.917915225E-1;1.064650808E-2;5.536184311E-1
1.219168444E1;2.970375717E-1;9.262461960E-2;2.682920098E-1
1.220359538E1;2.438050359E-1;1.426632106E-1;6.387905031E-2
1.221550788E1;1.575683206E-1;3.289771080E-1;6.494370103E-2
1.222741881E1;-1.596976258E-2;3.087487519E-1;5.110324174E-2
1.223933288E1;-2.800031602E-1;2.448696941E-1;-7.239625603E-2
1.225124225E1;-5.472305417E-1;1.022064835E-1;-3.832743168E-1
1.226315319E1;-5.844933391E-1;1.160469428E-1;-8.101992607E-1
1.227506569E1;-4.705756605E-1;5.387133360E-1;-1.168986678E0
1.228697819E1;-3.204599023E-1;7.356737256E-1;-1.264805198E0
1.229888912E1;-2.555162087E-2;4.886747301E-1;-1.385110736E0
1.231080006E1;3.300417662E-1;2.565808594E-1;-1.524580002E0
1.232271100E1;5.823640227E-1;3.460115194E-1;-1.377658129E0
1.233462350E1;6.888290644E-1;8.400095105E-1;-7.910355926E-1
1.234653444E1;6.739239693E-1;9.422159791E-1;-8.070053458E-1
1.235844538E1;9.145350456E-1;1.682148278E-1;-1.636368394E0
1.237035788E1;1.353171229E0;-3.396236300E-1;-2.542386293E0
1.238226881E1;1.936599851E0;-5.472305417E-1;-2.852199554E0
1.239418131E1;2.394399643E0;-1.007159710E0;-2.608394623E0
1.240609225E1;2.581778288E0;-1.578877211E0;-2.005802155E0
1.241800319E1;2.349684477E0;-2.434856415E0;-1.397886515E0
1.242991569E1;1.806712508E0;-2.694631338E0;-1.144499660E0
1.244182663E1;1.221154571E0;-2.648851395E0;-9.858666658E-1
1.245373912E1;8.325569630E-1;-2.271964788E0;-9.890606403E-1
1.246565006E1;6.398551464E-1;-1.812035680E0;-1.074232697E0
1.247756100E1;6.238853931E-1;-1.320167065E0;-1.198796868E0
1.248947350E1;8.432034850E-1;-1.077426672E0;-1.288227558E0
1.250139069E1;1.266934514E0;-1.302067995E0;-1.378722787E0
1.251329694E1;1.669372559E0;-1.692794800E0;-1.458571672E0
1.252520788E1;1.825876236E0;-1.861009717E0;-1.495834470E0
1.253712038E1;1.724734306E0;-1.656596661E0;-1.483058572E0
1.254903131E1;1.404274464E0;-1.102978230E0;-1.351041913E0
1.256094538E1;8.708843589E-1;-3.992440701E-1;-1.155146122E0
1.257285319E1;3.417529166E-1;-3.832742944E-2;-9.507331848E-1
1.258476881E1;-5.110324174E-2;-6.920230389E-2;-8.123285770E-1
1.259667662E1;-3.108780384E-1;-2.395464331E-1;-7.633546591E-1
1.260858912E1;-4.854807854E-1;-4.727049768E-1;-7.750658393E-1
1.262050006E1;-5.174202919E-1;-6.260147095E-1;-8.176518679E-1
1.263241256E1;-4.439594150E-1;-7.633546591E-1;-8.442681432E-1
1.264432350E1;-2.320938855E-1;-7.910355926E-1;-9.028239250E-1
1.265623600E1;1.415985674E-1;-7.367383838E-1;-9.081471562E-1
1.266814694E1;5.908812284E-1;-5.280668139E-1;-9.720262289E-1
1.268005944E1;1.099784374E0;-1.596976221E-1;-1.068909407E0
1.269197662E1;1.577812552E0;2.320938855E-1;-1.041228533E0
1.270388131E1;1.749221325E0;3.321710527E-1;-9.741555452E-1
1.271579381E1;1.692794800E0;2.629687488E-1;-8.921774030E-1
1.272770475E1;1.376593590E0;-2.022836544E-2;-8.378801942E-1
1.273961725E1;7.984881401E-1;-6.153681874E-1;-7.409969568E-1
1.275152819E1;2.736152709E-1;-1.226477742E0;-5.887519121E-1
1.276344069E1;1.064650863E-1;-1.291421413E0;-3.406882584E-1
1.277535162E1;3.066194355E-1;-6.015277505E-1;-2.150594741E-1
1.278727038E1;6.111095548E-1;2.352878302E-1;-1.777966917E-1
1.279917506E1;9.603150487E-1;1.021000147E0;-2.033483088E-1
1.281108600E1;1.263740540E0;1.535226464E0;-2.629687488E-1
1.282300475E1;1.454313040E0;1.727928281E0;-2.874557376E-1
1.283491100E1;1.500092983E0;1.669372559E0;-2.033483088E-1
1.284682038E1;1.404274464E0;1.574618578E0;-2.342231758E-2
1.285873288E1;1.234995008E0;1.478800058E0;2.086715698E-1
1.287064381E1;1.065715432E0;9.581857324E-1;2.725506127E-1
1.288256256E1;9.890606403E-1;-2.342231758E-2;2.161241174E-1
1.289446725E1;9.411513209E-1;-1.345718622E0;2.299645841E-1
1.290638288E1;1.025258780E0;-2.148465395E0;3.907268643E-1
1.291829069E1;1.231801033E0;-2.048388243E0;6.473076940E-1
1.293020162E1;1.453248382E0;-1.194538236E0;8.336216211E-1
1.294211413E1;1.651273489E0;-1.064650808E-2;8.485267162E-1
1.295402506E1;1.702376723E0;6.941523552E-1;6.654067636E-1
1.296593756E1;1.625721812E0;6.984109282E-1;3.683691919E-1
1.297784850E1;1.582071185E0;3.651752472E-1;1.501157731E-1
1.298975944E1;1.543743730E0;7.026695460E-2;2.342231758E-2
1.300167194E1;1.434084654E0;8.091346174E-2;4.471533373E-2
1.301358288E1;1.225413084E0;2.714859545E-1;7.984881103E-2
1.302549381E1;9.592503905E-1;4.205370843E-1;1.735380888E-1
1.303740631E1;6.760532856E-1;5.057091713E-1;4.056319594E-1
1.304931725E1;3.832742944E-2;1.168986678E0;8.900480866E-1
1.306123600E1;-4.471533597E-1;1.715152502E0;1.329748869E0
1.307314069E1;-6.047216654E-1;1.674695730E0;1.611881375E0
1.308505162E1;-4.173431396E-1;8.985652924E-1;1.652338147E0
1.309696413E1;-1.990897059E-1;-2.342231758E-2;1.576747894E0
1.310887662E1;-1.064650808E-2;-5.568124056E-1;1.429826021E0
1.312078756E1;6.813765317E-2;-5.749114752E-1;1.434084654E0
1.313270006E1;9.794788063E-2;-1.415985674E-1;1.585265160E0
1.314461100E1;5.749114603E-2;4.045673311E-1;1.892949224E0
1.315652194E1;1.554390192E-1;7.708072066E-1;2.160176516E0
1.316843444E1;4.663170576E-1;7.740011811E-1;2.203827143E0
1.318034538E1;8.165872097E-1;5.057091713E-1;2.024966002E0
1.319225631E1;1.165792704E0;1.245641485E-1;1.639562249E0
1.320416881E1;1.341460109E0;-6.281439960E-2;1.356365204E0
1.321607975E1;1.319102407E0;-4.045673087E-2;1.149822950E0
1.322799225E1;1.052939653E0;1.447925121E-1;9.805434346E-1
1.323990319E1;7.292858362E-1;1.618269235E-1;8.389448524E-1
1.325181413E1;3.843389452E-1;3.406882659E-2;7.058635354E-1
1.326372662E1;1.650208831E-1;-7.984881103E-2;5.812993646E-1
1.327563756E1;1.352106631E-1;-2.544515431E-1;3.822096586E-1
1.328755006E1;2.938436270E-1;-2.533869147E-1;1.266934574E-1
1.329946100E1;4.141491652E-1;-4.258603323E-3;1.916371472E-2
1.331137975E1;3.981794119E-1;3.673045337E-1;-1.320167035E-1
1.332328444E1;2.650980651E-1;5.408426523E-1;-3.406882584E-1
1.333519538E1;8.091346174E-2;3.992440701E-1;-5.067738295E-1
1.334710788E1;-8.091346174E-2;1.107236892E-1;-5.908812284E-1
1.335902506E1;-1.011418328E-1;-2.033483088E-1;-5.301961303E-1
1.337093131E1;4.684463516E-2;-4.120198786E-1;-4.354421794E-1
1.338284225E1;2.523222566E-1;-2.427403927E-1;-4.673817158E-1
1.339475319E1;3.981794119E-1;2.778738737E-1;-7.282211781E-1
1.340666569E1;6.047216654E-1;5.972691178E-1;-1.215831280E0
1.341859225E1;9.688322544E-1;3.023608327E-1;-1.534161806E0
1.343048756E1;1.356365204E0;-1.831199378E-1;-1.473476768E0
1.344240006E1;1.807777166E0;-1.097655058E0;-1.253094077E0
1.345431100E1;2.174016953E0;-2.117590427E0;-1.305261970E0
1.346622350E1;2.084586382E0;-2.368848085E0;-1.549067020E0
1.347814069E1;1.721540451E0;-2.053711414E0;-1.692794800E0
1.349004538E1;1.187085629E0;-1.506480932E0;-1.734316230E0
1.350195788E1;5.759761333E-1;-8.559792638E-1;-1.722605109E0
1.351386881E1;1.501157731E-1;-4.173431396E-1;-1.672566414E0
1.352578131E1;6.494370103E-2;-5.184849501E-1;-1.628915787E0
1.353769225E1;2.299645841E-1;-9.315694571E-1;-1.589523673E0
1.354960475E1;5.333900452E-1;-1.354235888E0;-1.583135843E0
1.356151569E1;8.357509375E-1;-1.529903293E0;-1.519256711E0
1.357342819E1;1.102978230E0;-1.426632166E0;-1.496899128E0
1.358533912E1;1.211572647E0;-9.922545552E-1;-1.510739565E0
1.359725006E1;1.196667552E0;-5.206142664E-1;-1.501157641E0
1.360916256E1;1.075297356E0;-8.304276317E-2;-1.439407945E0
1.362107350E1;9.305048585E-1;1.341460049E-1;-1.372334957E0
1.363298600E1;7.282211781E-1;1.873785406E-1;-1.296744704E0
1.364489694E1;5.397779942E-1;7.665485889E-2;-1.197732210E0
1.365682662E1;3.587873280E-1;-9.794788063E-2;-1.085943818E0
1.366872819E1;2.352878302E-1;-1.820552945E-1;-9.411513209E-1
1.368063288E1;1.671501845E-1;-2.320938855E-1;-7.889062762E-1
1.369254381E1;1.511804163E-1;-3.406882584E-1;-6.238853931E-1
1.370445475E1;1.352106631E-1;-5.429719090E-1;-4.035026729E-1
1.371637350E1;8.943066746E-2;-7.473849058E-1;-2.800031602E-1
1.372827819E1;5.429719388E-2;-1.035905242E0;-2.842617631E-1
1.374020006E1;8.091346174E-2;-1.259481907E0;-2.661627233E-1
1.375210163E1;2.022836655E-1;-1.257352591E0;-2.406110913E-1
1.376401413E1;4.865454435E-1;-1.009289026E0;-3.247185051E-1
1.377592506E1;8.016820550E-1;-7.867769599E-1;-4.514119625E-1
1.378783600E1;1.063586235E0;-6.089802980E-1;-5.823640227E-1
1.379974850E1;1.212637305E0;-5.110324025E-1;-6.771179438E-1
1.381165944E1;1.143435001E0;-5.035798550E-1;-7.761304379E-1
1.382357038E1;9.113411307E-1;-5.983337760E-1;-8.293629885E-1
1.383548288E1;6.515663266E-1;-6.302732825E-1;-7.814537287E-1
1.384739381E1;3.492054641E-1;-3.513347805E-1;-5.866225958E-1
1.385930631E1;1.660855263E-1;1.682148278E-1;-3.768863976E-1
1.387122194E1;1.298874021E-1;7.633546591E-1;-2.033483088E-1
1.388312975E1;1.511804163E-1;1.253094077E0;-5.003859103E-2
1.389504069E1;1.958957613E-1;1.644885540E0;5.323254038E-3
1.390695163E1;3.374943137E-1;2.111202717E0;-2.555162087E-2
1.391886256E1;5.951398015E-1;2.489153624E0;-6.387905031E-2
1.393077506E1;9.933192134E-1;2.723376751E0;-6.813765317E-2
1.394268600E1;1.349977255E0;2.664821148E0;4.790928960E-2
1.395461569E1;1.533097267E0;2.113332033E0;8.836601675E-2
1.396652038E1;1.543743730E0;1.117883325E0;4.471533373E-2
1.397842038E1;1.359559178E0;-2.203827202E-1;1.916371472E-2
1.399033288E1;1.210507989E0;-1.523515344E0;9.794788063E-2
1.400224538E1;1.451119065E0;-2.056905508E0;3.641105890E-1
1.401415631E1;1.917436123E0;-1.820552945E0;5.440365672E-1
1.402606881E1;2.344361067E0;-1.091267109E0;5.259374976E-1
1.403797975E1;2.650980473E0;-2.555162087E-2;3.066194355E-1
1.404989069E1;2.676532269E0;7.079927921E-1;1.415985674E-1
1.406180163E1;2.320938826E0;8.165872097E-1;1.309520602E-1
1.407371569E1;1.742833376E0;3.119426966E-1;1.586329788E-1
1.408562506E1;9.943838716E-1;-3.130073547E-1;2.523222566E-1
1.409753756E1;3.981794119E-1;-5.557477474E-1;4.130845368E-1
1.410944850E1;7.452555746E-2;-3.673045337E-1;4.908040464E-1
1.412136100E1;2.448697016E-2;-9.262461960E-2;4.066966176E-1
1.413327194E1;2.225120217E-1;5.536184460E-2;4.194724262E-1
1.414518288E1;3.204599023E-1;1.788613349E-1;4.631231129E-1
1.415709538E1;1.032711342E-1;6.717946529E-1;6.430491209E-1
1.416900631E1;-2.501929402E-1;1.397886515E0;8.857895136E-1
1.418091881E1;-4.918686748E-1;1.839716673E0;1.139176369E0
1.419283288E1;-4.748342633E-1;1.637432933E0;1.260546565E0
1.420474225E1;-3.492054641E-1;1.110430837E0;1.297809362E0
1.421665319E1;-2.171887755E-1;5.142263770E-1;1.386175394E0
1.422856569E1;-7.452555746E-2;3.300417587E-2;1.533097267E0
1.424047663E1;6.387905218E-3;2.235766686E-2;1.677889705E0
1.425238912E1;1.266934574E-1;2.097362131E-1;1.815229654E0
1.426430163E1;3.715631366E-1;2.895850241E-1;1.884431958E0
1.427621100E1;6.536956429E-1;3.066194355E-1;1.835458040E0
1.428812350E1;9.134704471E-1;4.354421794E-1;1.789678097E0
1.430003444E1;1.079555988E0;4.098905623E-1;1.850363135E0
1.431196569E1;1.178568482E0;2.991668880E-1;1.802453876E0
1.432385788E1;1.175374508E0;8.091346174E-2;1.568230629E0
1.433576881E1;1.115754128E0;-6.494370103E-2;1.313779116E0
1.434768131E1;1.036969900E0;2.874557301E-2;1.105107546E0
1.435959225E1;9.134704471E-1;1.639562249E-1;8.815308809E-1
1.437152038E1;8.570439219E-1;6.281439960E-2;5.216789246E-1
1.438341569E1;8.197811246E-1;-7.984881103E-2;8.943066746E-2
1.439532663E1;7.431262732E-1;-4.258603230E-2;-3.385589719E-1
1.440723912E1;6.760532856E-1;1.735380888E-1;-6.707300544E-1
1.441915006E1;6.398551464E-1;3.385589719E-1;-9.773494601E-1
1.443106100E1;6.558248997E-1;5.301961303E-1;-1.174309850E0
1.444297662E1;6.888290644E-1;7.335444093E-1;-1.189214945E0
1.445488444E1;7.505788207E-1;8.048760295E-1;-9.837373495E-1
1.446679694E1;7.228979468E-1;6.462430358E-1;-6.462430358E-1
1.447870788E1;6.579542160E-1;3.417529166E-1;-6.696653962E-1
1.449062506E1;7.058635354E-1;-2.342231758E-2;-1.090202451E0
1.450253131E1;8.836601973E-1;-4.035026729E-1;-1.625721812E0
1.451444225E1;1.231801033E0;-7.463202477E-1;-2.051582098E0
1.452635475E1;1.607622743E0;-1.091267109E0;-2.083521605E0
1.453826569E1;1.896143198E0;-1.586329699E0;-1.828005433E0
1.455018913E1;2.036677122E0;-2.128237009E0;-1.718346477E0
1.456208913E1;1.849298477E0;-2.149529934E0;-1.769449711E0
1.457400006E1;1.502222300E0;-1.772643685E0;-1.761997104E0
1.458591256E1;1.042293191E0;-1.334007502E0;-1.684277654E0
1.459782350E1;5.834286809E-1;-1.071038723E0;-1.624657154E0
1.460973600E1;2.661627233E-1;-9.997071624E-1;-1.592717648E0
1.462164694E1;9.794788063E-2;-9.624443650E-1;-1.398951173E0
1.463355788E1;1.000771821E-1;-9.390220642E-1;-1.147693634E0
1.464547038E1;1.820552945E-1;-9.390220642E-1;-9.177290201E-1
1.465738288E1;2.597748041E-1;-8.772723079E-1;-7.750658393E-1
1.466929850E1;3.247185051E-1;-7.409969568E-1;-6.717946529E-1
1.468120475E1;3.928561509E-1;-5.951398015E-1;-5.663942695E-1
1.469311725E1;4.397007823E-1;-4.577998519E-1;-4.950626493E-1
1.470502819E1;4.758989215E-1;-2.480636388E-1;-4.450240433E-1
1.471694069E1;5.472305417E-1;-8.410741389E-2;-3.715631366E-1
1.472885788E1;5.993984342E-1;-1.405339092E-1;-3.651752472E-1
1.474076256E1;6.185621619E-1;-3.364296556E-1;-3.726277947E-1
1.475267506E1;5.557477474E-1;-5.621356368E-1;-3.406882584E-1
1.476458600E1;3.481408358E-1;-6.973463297E-1;-2.427403927E-1
1.477649850E1;4.577998444E-2;-7.026695609E-1;-1.320167035E-1
1.478841569E1;-2.108008713E-1;-6.579542160E-1;-6.281439960E-2
1.480032038E1;-2.810678184E-1;-5.663942695E-1;-9.475392103E-2
1.481223288E1;-1.927018017E-1;-4.418300986E-1;-1.245641485E-1
1.482414381E1;-7.452555932E-3;-2.863910794E-1;-1.746027321E-1
1.483605631E1;2.129301727E-1;-1.373399645E-1;-2.533869147E-1
1.484796725E1;3.885975480E-1;-1.171115935E-1;-3.183306158E-1
1.485988288E1;5.238082409E-1;-1.724734306E-1;-3.449468613E-1
1.487179069E1;6.228207350E-1;-3.002315462E-1;-3.651752472E-1
1.488370162E1;6.696653962E-1;-3.715631366E-1;-3.843389452E-1
1.489561413E1;6.515663266E-1;-4.109552205E-1;-3.907268643E-1
1.490752663E1;5.993984342E-1;-3.896622062E-1;-3.832743168E-1
1.491943600E1;5.238082409E-1;-3.385589719E-1;-3.619812727E-1
1.493134850E1;4.652524292E-1;-2.342231870E-1;-3.119426966E-1
1.494325944E1;4.695110321E-1;-5.323254038E-3;-2.022836655E-1
1.495517194E1;4.695110321E-1;1.873785406E-1;-1.447925121E-1
1.496708288E1;4.737696350E-1;2.842617631E-1;-1.181762442E-1
1.497899850E1;4.822868407E-1;3.055547774E-1;-1.032711342E-1
1.499090631E1;4.535412490E-1;2.257059813E-1;-1.064650863E-1
1.500281725E1;3.790156841E-1;9.475392103E-2;-1.032711342E-1
1.501472975E1;3.002315462E-1;3.087487444E-2;-7.026695460E-2
1.502664069E1;2.342231870E-1;4.684463516E-2;-2.874557301E-2
1.503855319E1;1.852492392E-1;1.022064835E-1;5.323254038E-3
1.505046413E1;2.086715698E-1;1.469218135E-1;1.703441329E-2
1.506237506E1;2.938436270E-1;1.799259931E-1;1.490511186E-2
1.507428756E1;4.205370843E-1;1.927018017E-1;3.193952609E-3
1.508621725E1;5.493598580E-1;2.235766798E-1;-3.193952609E-3
1.509811100E1;6.430491209E-1;2.661627233E-1;-1.171115879E-2
1.511002194E1;7.452555895E-1;3.492054641E-1;-1.809906401E-2
1.512193444E1;8.538499475E-1;4.652524292E-1;-9.581857361E-3
1.513384538E1;9.400866628E-1;5.791700482E-1;6.387905218E-3
1.514575631E1;9.933192134E-1;6.760532856E-1;-1.490511186E-2
1.515767506E1;9.273108840E-1;5.621356368E-1;-1.171115935E-1
1.516957975E1;6.132388711E-1;8.517206647E-3;-3.566580415E-1
1.518149225E1;1.777966917E-1;-5.919458866E-1;-5.546830893E-1
1.519340319E1;-7.665485889E-2;-5.184849501E-1;-3.076840937E-1
1.520531725E1;3.566580415E-1;2.927789688E-1;6.281439960E-2
1.521722662E1;1.024194121E0;8.261690736E-1;1.735380888E-1
1.522913756E1;1.780096173E0;8.613025546E-1;1.405339092E-1
1.524105631E1;2.402916908E0;6.451784372E-1;-1.916371472E-2
1.525296100E1;2.956535339E0;2.214473784E-1;-2.831971347E-1
1.526487350E1;3.176918030E0;-5.536184460E-2;-4.056319594E-1
1.527678444E1;3.144978523E0;-2.203827202E-1;-3.673045337E-1
1.528869694E1;2.861781359E0;-2.480636388E-1;-2.139948159E-1
1.530060788E1;2.326261997E0;-1.692794859E-1;-9.581857361E-3
1.531251881E1;1.678954363E0;-6.494370103E-2;1.415985674E-1
1.532443131E1;1.186021090E0;-1.245641485E-1;2.310292274E-1
1.533634225E1;7.995527983E-1;-2.278352827E-1;3.172659576E-1
1.534825319E1;5.419072509E-1;-2.310292274E-1;3.779510558E-1
1.536016569E1;3.193952441E-1;-1.437278688E-1;3.992440701E-1
1.537207663E1;1.501157731E-1;-2.342231758E-2;3.438822329E-1
1.538398913E1;3.619812801E-2;3.619812801E-2;3.087487519E-1
1.539590006E1;-6.281439960E-2;1.809906401E-2;3.108780384E-1
1.540781100E1;-1.767320335E-1;1.064650831E-3;3.332357109E-1
1.541972506E1;-4.045673311E-1;4.790928960E-2;4.013733566E-1
1.543163444E1;-7.569667697E-1;2.778738737E-1;5.653296113E-1
1.544354694E1;-1.141305685E0;5.589416623E-1;8.112639189E-1
1.545545944E1;-1.412791610E0;7.399323583E-1;1.146628976E0
1.546736881E1;-1.384046078E0;7.708072066E-1;1.352106571E0
1.547928131E1;-1.062521577E0;6.121742129E-1;1.458571672E0
1.549119225E1;-5.504244566E-1;3.843389452E-1;1.502222300E0
1.550310475E1;3.726277873E-2;2.310292274E-1;1.540549755E0
1.551502194E1;5.887519121E-1;-7.452555932E-3;1.567166090E0
1.552692663E1;1.061456919E0;-2.448696941E-1;1.555454850E0
1.553883912E1;1.569295287E0;-5.067738295E-1;1.593782306E0
1.555075006E1;1.920630097E0;-6.302732825E-1;1.583135843E0
1.556266569E1;1.931276679E0;-5.259374976E-1;1.481993914E0
1.557457506E1;1.786484122E0;-2.427403927E-1;1.388304710E0
1.558648444E1;1.569295287E0;6.920230389E-2;1.312714458E0
1.559839694E1;1.318037748E0;2.267706245E-1;1.204120159E0
1.561030944E1;9.581857324E-1;2.725506127E-1;1.007159710E0
1.562222663E1;6.590188742E-1;3.683691919E-1;8.879188299E-1
1.563413444E1;4.205370843E-1;4.471533597E-1;7.889062762E-1
1.564604381E1;2.736152709E-1;4.620584548E-1;6.824411750E-1
1.565795475E1;1.735380888E-1;3.992440701E-1;5.866225958E-1
1.566986725E1;1.394692659E-1;3.225892186E-1;4.184077680E-1
1.568177819E1;1.565036774E-1;3.236538470E-1;2.331585288E-1
1.569368912E1;2.065422684E-1;3.875329196E-1;1.458571702E-1
1.570560163E1;3.108780384E-1;3.939208090E-1;1.075297371E-1
1.571751413E1;4.439594150E-1;2.320938855E-1;3.939208016E-2
1.572942506E1;5.089030862E-1;8.623671532E-2;-8.836601675E-2
1.574133600E1;4.737696350E-1;-3.087487444E-2;-2.448696941E-1
1.575324850E1;4.397007823E-1;-1.628915817E-1;-4.450240433E-1
1.576515944E1;4.003087282E-1;-1.384046078E-1;-6.483723521E-1
1.577707038E1;3.651752472E-1;-3.193952609E-3;-8.432034850E-1
1.578898288E1;3.417529166E-1;2.129301727E-1;-1.001836419E0
1.580089381E1;3.545287251E-1;4.194724262E-1;-1.156210780E0
1.581280631E1;4.258603454E-1;6.451784372E-1;-1.365947008E0
1.582471725E1;5.610709786E-1;7.292858362E-1;-1.690665483E0
1.583662819E1;7.409969568E-1;6.281439662E-1;-2.088845015E0
1.584854069E1;8.112639189E-1;5.184849501E-1;-1.963216186E0
1.586045944E1;5.546830893E-1;4.705756605E-1;-9.464746118E-1
1.587236256E1;3.044901490E-1;-3.502701223E-1;-2.565808594E-1
1.588427506E1;4.631231129E-1;-1.510739565E0;-3.406882584E-1
1.589618600E1;7.963588238E-1;-2.060099363E0;-6.579542160E-1
1.590809850E1;9.613797069E-1;-1.808841825E0;-1.048681021E0
1.592001100E1;8.123285770E-1;-1.149822950E0;-1.276516318E0
1.593192819E1;4.886747301E-1;-3.225892186E-1;-1.414920926E0
1.594383288E1;1.171115935E-1;2.182534188E-1;-1.512868881E0
1.595576413E1;-1.596976221E-1;2.384817898E-1;-1.581006527E0
1.596765631E1;-3.002315462E-1;-1.054004356E-1;-1.581006527E0
1.597956725E1;-2.991668880E-1;-5.812993646E-1;-1.473476768E0
1.599147975E1;-1.969604045E-1;-9.667029381E-1;-1.221154571E0
1.600339069E1;-7.878416032E-2;-1.116818786E0;-9.613797069E-1
1.601530162E1;1.171115879E-2;-1.181762457E0;-7.559021115E-1
1.602721412E1;1.149822921E-1;-1.094461083E0;-6.089802980E-1
1.603912506E1;1.916371584E-1;-9.581857324E-1;-5.770407319E-1
1.605103756E1;2.491282970E-1;-8.165872097E-1;-6.004630923E-1
1.606294850E1;2.704213262E-1;-7.175746560E-1;-6.174975038E-1
1.607486100E1;2.959729433E-1;-6.217560768E-1;-6.664714217E-1
1.608677194E1;3.300417662E-1;-5.035798550E-1;-6.430491209E-1
1.609868756E1;3.971147537E-1;-2.810678184E-1;-4.908040464E-1
1.611059694E1;5.408426523E-1;-7.452555746E-2;-3.183306158E-1
1.612250944E1;6.739239693E-1;5.962044746E-2;-1.980250627E-1
1.613441881E1;7.899709344E-1;1.139176413E-1;-1.618269235E-1
1.614632975E1;8.432034850E-1;4.790928960E-2;-1.245641485E-1
1.615824225E1;8.208457828E-1;-5.536184460E-2;-1.384046078E-1
1.617015475E1;7.441909313E-1;-2.342231870E-1;-1.384046078E-1
1.618206569E1;6.249500513E-1;-3.704984784E-1;-1.266934574E-1
1.619398444E1;5.078384280E-1;-4.418300986E-1;-1.213701963E-1
1.620588913E1;4.258603454E-1;-3.694338500E-1;-1.256287992E-1
1.621780162E1;3.790156841E-1;-2.672273517E-1;-1.692794859E-1
1.622971100E1;3.470761776E-1;-2.214473784E-1;-1.937664598E-1
1.624162350E1;3.396236300E-1;-1.586329788E-1;-1.990897059E-1
1.625353444E1;3.715631366E-1;-9.901253134E-2;-2.033483088E-1
1.626544694E1;3.822096586E-1;-1.203055456E-1;-2.033483088E-1
1.627735788E1;3.694338500E-1;-1.650208831E-1;-1.873785406E-1
1.628926881E1;3.151366413E-1;-1.724734306E-1;-1.831199378E-1
1.630118131E1;2.257059813E-1;-1.043357849E-1;-1.873785406E-1
1.631309381E1;1.384046078E-1;-5.110324174E-2;-1.895078421E-1
1.632500475E1;4.577998444E-2;-1.192408949E-1;-1.884431988E-1
1.633692350E1;1.596976258E-2;-2.533869147E-1;-1.682148278E-1
1.634882975E1;4.577998444E-2;-3.353650272E-1;-1.352106631E-1
1.636073913E1;1.990897059E-1;-2.650980651E-1;-9.155996889E-2
1.637265006E1;4.056319594E-1;-1.777966917E-1;-8.836601675E-2
1.638456256E1;5.993984342E-1;-8.836601675E-2;-9.368927032E-2
1.639647350E1;6.611481905E-1;-4.258603323E-3;-1.022064835E-1
1.640839381E1;6.015277505E-1;7.665485889E-2;-1.128529906E-1
1.642029694E1;5.046445131E-1;1.522450745E-1;-1.064650863E-1
1.643220788E1;4.546059072E-1;2.672273517E-1;-2.874557301E-2
1.644412038E1;4.386361539E-1;3.289771080E-1;5.749114603E-2
1.645603131E1;4.503473043E-1;3.076840937E-1;1.064650863E-1
1.646794381E1;5.003858805E-1;2.438050359E-1;1.107236892E-1
1.647986100E1;5.876872540E-1;1.884431988E-1;7.133160532E-2
1.649176569E1;7.026695609E-1;2.267706245E-1;5.429719388E-2
1.650367819E1;7.814537287E-1;3.066194355E-1;3.619812801E-2
1.651558912E1;8.016820550E-1;3.662398756E-1;2.342231758E-2
1.652750162E1;7.569667697E-1;3.736924529E-1;3.619812801E-2
1.653941256E1;6.345319152E-1;2.555162013E-1;4.684463516E-2
1.655132350E1;3.130073547E-1;-1.469218135E-1;-1.490511186E-2
1.656323600E1;-3.044901490E-1;-8.144578934E-1;-1.490511149E-1
1.657514850E1;-9.762848020E-1;-1.172180533E0;-1.245641485E-1
1.658705788E1;-8.794015646E-1;-5.227435827E-1;2.267706245E-1
1.659897038E1;-3.726277873E-2;3.726277947E-1;3.811450005E-1
1.661088131E1;9.858666658E-1;7.292858362E-1;2.693566680E-1
1.662279381E1;2.100556135E0;5.419072509E-1;1.809906401E-2
1.663470475E1;2.624364376E0;1.703441292E-1;-1.895078421E-1
1.664661725E1;2.743605137E0;-3.513347730E-2;-3.023608327E-1
1.665852819E1;2.469990015E0;6.068509817E-2;-2.597748041E-1
1.667044069E1;1.915306807E0;2.257059813E-1;-1.352106631E-1
1.668235163E1;1.087008476E0;2.161241174E-1;2.342231758E-2
1.669427038E1;4.705756605E-1;-9.794788063E-2;1.054004356E-1
1.670617506E1;-9.581857920E-2;-4.237310290E-1;1.863138974E-1
1.671808600E1;-4.758989215E-1;-5.057091713E-1;2.491282970E-1
1.672999850E1;-6.856351495E-1;-3.492054641E-1;3.193952441E-1
1.674190944E1;-7.590960264E-1;-4.045673087E-2;4.003087282E-1
1.675382194E1;-7.282211781E-1;7.878416032E-2;4.343775511E-1
1.676573288E1;-6.536956429E-1;6.600835174E-2;4.918686748E-1
1.677764381E1;-5.674588680E-1;-6.068509817E-2;5.493598580E-1
1.678955631E1;-6.004630923E-1;-7.665485889E-2;6.888290644E-1
1.680146725E1;-1.090202451E0;6.739239693E-1;1.005030394E0
1.681337975E1;-1.814164996E0;1.887625933E0;1.437278628E0
1.682529069E1;-2.193180799E0;2.399723053E0;1.883367300E0
1.683720163E1;-2.119719744E0;1.997285008E0;2.077133894E0
1.684911412E1;-1.743898034E0;1.054004312E0;2.127172470E0
1.686102506E1;-1.271193147E0;2.757445574E-1;2.168693781E0
1.687293913E1;-7.654839754E-1;-1.511804163E-1;2.119719744E0
1.688485006E1;-1.969604045E-1;-2.267706245E-1;1.986638427E0
1.689675944E1;2.438050359E-1;-8.197811246E-2;1.874850154E0
1.690867194E1;5.568124056E-1;4.684463516E-2;1.769449711E0
1.692058288E1;7.324797511E-1;6.387905218E-3;1.719411135E0
1.693251256E1;8.123285770E-1;-4.152138159E-2;1.647014856E0
1.694440631E1;7.324797511E-1;2.448697016E-2;1.546937704E0
1.695631725E1;5.642649531E-1;6.387905218E-3;1.495834470E0
1.696823288E1;3.119426966E-1;-1.980250627E-1;1.460700989E0
1.698014069E1;-3.193952609E-3;-4.418300986E-1;1.411727071E0
1.699205163E1;-1.895078421E-1;-4.216017425E-1;1.355300546E0
1.700397506E1;-2.778738737E-1;-1.852492392E-1;1.243512154E0
1.701587506E1;-2.746799290E-1;1.458571702E-1;9.911899567E-1
1.702778756E1;-2.682920098E-1;3.225892186E-1;7.473849058E-1
1.703969850E1;-2.991668880E-1;4.652524292E-1;4.876100719E-1
1.705160944E1;-3.204599023E-1;5.568124056E-1;3.130073547E-1
1.706352350E1;-2.704213262E-1;5.738468170E-1;1.682148278E-1
1.707543288E1;-1.863138974E-1;4.961272776E-1;8.517206647E-3
1.708734538E1;-1.522450745E-1;4.546059072E-1;-1.203055456E-1
1.709925788E1;-1.309520602E-1;4.141491652E-1;-3.492054641E-1
1.711116881E1;-9.475392103E-2;3.864682615E-1;-6.004630923E-1
1.712308288E1;-4.045673087E-2;3.364296556E-1;-8.251044154E-1
1.713499225E1;8.730136603E-2;2.257059813E-1;-9.922545552E-1
1.714690319E1;2.810678184E-1;9.155996889E-2;-1.099784374E0
1.715881413E1;4.322482347E-1;7.026695460E-2;-1.171115875E0
1.717072662E1;5.110324025E-1;1.735380888E-1;-1.159404755E0
1.718263912E1;5.440365672E-1;3.598519862E-1;-1.023129463E0
1.719455006E1;5.110324025E-1;4.854807854E-1;-8.038113713E-1
1.720646100E1;3.598519862E-1;6.632774472E-1;-6.313379407E-1
1.721837350E1;1.863138974E-1;8.187164664E-1;-6.781826019E-1
1.723028444E1;1.820552945E-1;8.943067193E-1;-9.805434346E-1
1.724220319E1;4.322482347E-1;6.952170134E-1;-1.387240052E0
1.725410788E1;7.825183868E-1;2.991668880E-1;-1.601234913E0
1.726602038E1;1.129594564E0;-2.906496823E-1;-1.420244217E0
1.727793131E1;1.385110736E0;-1.311649799E0;-1.144499660E0
1.728984225E1;1.372334957E0;-2.020707369E0;-1.147693634E0
1.730175631E1;1.161534071E0;-2.127172470E0;-1.197732210E0
1.731366569E1;9.294402003E-1;-1.921694756E0;-1.157275438E0
1.732557662E1;7.111867666E-1;-1.495834470E0;-1.159404755E0
1.733748912E1;5.312607884E-1;-9.965131879E-1;-1.266934514E0
1.734940006E1;4.141491652E-1;-6.324025989E-1;-1.435149312E0
1.736131412E1;4.226663709E-1;-6.217560768E-1;-1.489446521E0
1.737322350E1;5.632002950E-1;-8.229750991E-1;-1.454313040E0
1.738513444E1;7.282211781E-1;-9.677675962E-1;-1.353171229E0
1.739704694E1;8.304276466E-1;-9.177290201E-1;-1.261611223E0
1.740895788E1;8.794015646E-1;-6.355965734E-1;-1.158340096E0
1.742087038E1;8.197811246E-1;-2.629687488E-1;-1.085943818E0
1.743278131E1;7.228979468E-1;-1.522450745E-1;-1.124271274E0
1.744469225E1;6.132388711E-1;-2.288999259E-1;-1.138111711E0
1.745660475E1;4.460887015E-1;-4.237310290E-1;-1.153016806E0
1.746851569E1;3.247185051E-1;-5.546830893E-1;-1.159404755E0
1.748042819E1;2.044129670E-1;-5.983337760E-1;-1.154081464E0
1.749233912E1;1.352106631E-1;-6.238853931E-1;-1.097655058E0
1.750425006E1;1.224348471E-1;-6.494370103E-1;-1.051874995E0
1.751616256E1;1.405339092E-1;-5.791700482E-1;-9.070824981E-1
1.752807350E1;1.490511149E-1;-4.961272776E-1;-8.101992607E-1
1.753998912E1;8.304276317E-2;-3.098133802E-1;-6.292086244E-1
1.755190163E1;1.384046115E-2;-1.203055456E-1;-3.768863976E-1
1.756380788E1;-4.258603230E-2;3.300417587E-2;-1.735380888E-1
1.757572038E1;-4.790928960E-2;-3.193952516E-2;-9.581857920E-2
1.758763288E1;1.916371472E-2;-2.544515431E-1;-1.128529906E-1
1.759954381E1;1.171115935E-1;-5.610709786E-1;-1.671501845E-1
1.761145475E1;1.724734306E-1;-7.622900009E-1;-2.565808594E-1
1.762336725E1;2.619041204E-1;-8.740783334E-1;-3.353650272E-1
1.763527819E1;4.088259339E-1;-8.868541718E-1;-3.875329196E-1
1.764718912E1;4.865454435E-1;-8.762076497E-1;-4.407654405E-1
1.765910162E1;5.142263770E-1;-8.581085801E-1;-4.673817158E-1
1.767101256E1;5.323254466E-1;-8.080700040E-1;-4.780282378E-1
1.768292506E1;5.568124056E-1;-6.760532856E-1;-4.620584548E-1
1.769483600E1;6.292086244E-1;-4.503473043E-1;-5.216789246E-1
1.770674850E1;6.217560768E-1;-4.173431396E-1;-6.111095548E-1
1.771865944E1;4.503473043E-1;-5.770407319E-1;-5.749114752E-1
1.773057194E1;2.214473784E-1;-6.185621619E-1;-4.130845368E-1
1.774248913E1;4.790928960E-2;-4.556705654E-1;-2.672273517E-1
1.775439381E1;-5.323254317E-2;-3.183306158E-1;-2.331585288E-1
1.776630631E1;8.517206647E-3;-1.852492392E-1;-2.129301727E-1
1.777821725E1;9.262461960E-2;-7.452555932E-3;-2.331585288E-1
1.779012975E1;1.884431988E-1;1.969604045E-1;-2.533869147E-1
1.780204069E1;3.012961745E-1;3.076840937E-1;-2.661627233E-1
1.781395162E1;4.503473043E-1;1.820552945E-1;-2.608394623E-1
1.782587194E1;5.429719090E-1;-6.600835174E-2;-2.342231870E-1
1.783777819E1;5.898165703E-1;-2.246413231E-1;-2.225120217E-1
1.784968600E1;6.015277505E-1;-1.405339092E-1;-2.203827202E-1
1.786159850E1;6.611481905E-1;2.576455176E-1;-1.724734306E-1
1.787350944E1;7.186393142E-1;7.548374534E-1;-9.901253134E-2
1.788542194E1;7.143807411E-1;1.047616482E0;-6.494370103E-2
1.789733288E1;6.877644658E-1;1.151952267E0;-8.836601675E-2
1.790924381E1;7.058635354E-1;1.129594564E0;-1.596976221E-1
1.792115631E1;8.155225515E-1;1.027388096E0;-2.885203660E-1
1.793306725E1;1.011418343E0;9.624443650E-1;-4.247956872E-1
1.794497819E1;1.126400590E0;7.921002507E-1;-5.067738295E-1
1.795689069E1;9.848020077E-1;1.980250627E-1;-5.046445131E-1
1.796880162E1;8.176518679E-1;-1.479864717E-1;-1.543743759E-1
1.798071413E1;7.505788207E-1;1.501157731E-1;2.235766798E-1
1.799262506E1;8.847248554E-1;6.345319152E-1;3.321710527E-1
1.800453756E1;1.125335932E0;7.292858362E-1;3.406882584E-1
1.801644850E1;1.541614413E0;4.971919358E-1;2.533869147E-1
1.802836100E1;2.043065071E0;3.002315462E-1;8.943066746E-2
1.804027819E1;2.587101460E0;1.171115935E-1;-1.234994978E-1
1.805218288E1;2.930983782E0;-1.234994978E-1;-2.917143404E-1
1.806409538E1;2.922466516E0;-2.001543641E-1;-3.460115194E-1
1.807600631E1;2.612653255E0;-6.813765317E-2;-3.044901490E-1
1.808791881E1;2.013254642E0;1.852492392E-1;-1.863138974E-1
1.809982975E1;1.192408919E0;4.322482347E-1;3.087487444E-2
1.811174225E1;4.492826462E-1;4.971919358E-1;2.108008713E-1
1.812365944E1;-5.323254038E-3;4.482180178E-1;2.225120217E-1
1.813556569E1;-2.171887755E-1;4.535412490E-1;1.394692659E-1
1.814747662E1;-2.959729433E-1;5.727821589E-1;5.216789246E-2
1.815938756E1;-3.374943137E-1;7.420616150E-1;-1.490511186E-2
1.817130006E1;-3.406882584E-1;8.953713775E-1;-7.878416032E-2
1.818322038E1;-2.768092155E-1;8.857895136E-1;-9.262461960E-2
1.819512350E1;-2.097362131E-1;7.441909313E-1;-6.920230389E-2
1.820703444E1;-1.437278688E-1;5.142263770E-1;-2.448697016E-2
1.821894538E1;-1.469218135E-1;2.853264213E-1;3.726277873E-2
1.823085788E1;-2.171887755E-1;2.597748041E-1;1.000771821E-1
1.824276881E1;-3.896622062E-1;5.259374976E-1;1.958957613E-1
1.825468131E1;-5.759761333E-1;8.613025546E-1;2.981022298E-1
1.826659225E1;-7.463202477E-1;1.111495495E0;4.354421794E-1
1.827850319E1;-7.484495640E-1;1.087008476E0;5.301961303E-1
1.829041569E1;-6.036570072E-1;9.486039281E-1;5.972691178E-1
1.830232663E1;-4.205370843E-1;8.549146056E-1;6.217560768E-1
1.831424225E1;-2.448696941E-1;8.794015646E-1;6.217560768E-1
1.832615006E1;-7.452555746E-2;9.219876528E-1;6.590188742E-1
1.833806256E1;1.479864717E-1;8.495913744E-1;6.803118587E-1
1.834997350E1;4.045673311E-1;7.154453397E-1;6.313379407E-1
1.836188444E1;6.345319152E-1;5.514891148E-1;5.376486778E-1
1.837379694E1;8.985652924E-1;3.172659576E-1;4.056319594E-1
1.838570788E1;1.055068970E0;1.724734306E-1;3.098133802E-1
1.839762038E1;1.170051217E0;3.726277873E-2;1.831199378E-1
1.840953131E1;1.199861526E0;-9.581857361E-3;4.790928960E-2
1.842144694E1;1.132788539E0;-1.916371472E-2;-8.836601675E-2
1.843335631E1;1.029517412E0;-2.129301662E-3;-1.820552945E-1
1.844526569E1;8.762076497E-1;1.064650831E-3;-2.672273517E-1
1.845717819E1;7.228979468E-1;6.387905218E-3;-3.183306158E-1
1.846909069E1;5.344547033E-1;-1.277581044E-2;-3.428175747E-1
1.848100631E1;3.534640670E-1;-1.064650808E-2;-3.492054641E-1
1.849291256E1;2.714859545E-1;3.619812801E-2;-3.513347805E-1
1.850482350E1;2.842617631E-1;9.794788063E-2;-3.534640670E-1
1.851673444E1;3.609166443E-1;1.820552945E-1;-3.704984784E-1
1.852864694E1;4.854807854E-1;2.757445574E-1;-4.258603454E-1
1.854055788E1;5.919458866E-1;3.619812727E-1;-4.918686748E-1
1.855247038E1;6.494370103E-1;5.089030862E-1;-5.695881844E-1
1.856438131E1;6.771179438E-1;7.047988772E-1;-6.494370103E-1
1.857629850E1;6.984109282E-1;8.282983303E-1;-6.515663266E-1
1.858820475E1;7.186393142E-1;8.474620581E-1;-5.642649531E-1
1.860013131E1;7.452555895E-1;7.441909313E-1;-4.546059072E-1
1.861202819E1;7.814537287E-1;5.546830893E-1;-3.183306158E-1
1.862394069E1;7.952941656E-1;3.598519862E-1;-2.161241174E-1
1.863585162E1;8.059406877E-1;1.000771821E-1;-1.618269235E-1
1.864776413E1;7.952941656E-1;-1.320167035E-1;-1.405339092E-1
1.865967506E1;7.644193172E-1;-1.873785406E-1;-1.405339092E-1
1.867158600E1;7.143807411E-1;-8.304276317E-2;-1.384046078E-1
1.868350475E1;6.579542160E-1;1.160469428E-1;-1.032711342E-1
1.869540944E1;5.770407319E-1;3.492054641E-1;-1.703441329E-2
1.870732350E1;4.854807854E-1;4.397007823E-1;7.026695460E-2
1.871923444E1;3.587873280E-1;4.216017425E-1;1.320167035E-1
1.873114381E1;2.789385319E-1;3.928561509E-1;2.001543641E-1
1.874305631E1;2.949082851E-1;4.269249737E-1;2.863910794E-1
1.875496725E1;5.120970607E-1;4.354421794E-1;4.216017425E-1
1.876687975E1;9.283755422E-1;3.449468613E-1;5.110324025E-1
1.877879069E1;1.411727071E0;1.958957613E-1;5.206142664E-1
1.879070319E1;1.806712508E0;3.193952609E-3;4.620584548E-1
1.880261412E1;2.162305832E0;-2.203827202E-1;2.917143404E-1
1.881452506E1;2.421015978E0;-4.524766207E-1;9.901253134E-2
1.882643756E1;2.649915934E0;-7.729365230E-1;-1.139176413E-1
1.883834850E1;2.734023333E0;-1.006095052E0;-2.139948159E-1
1.885025944E1;2.668015003E0;-1.005030394E0;-2.235766798E-1
1.886217194E1;2.523222446E0;-7.878416181E-1;-1.596976221E-1
1.887408288E1;2.331585407E0;-4.929333329E-1;-4.897394031E-2
1.888599538E1;2.125043154E0;-2.331585288E-1;1.085943878E-1
1.889791100E1;2.063293219E0;-2.725506127E-1;1.777966917E-1
1.890981881E1;2.106944084E0;-4.758989215E-1;1.756673902E-1
1.892172975E1;2.195310116E0;-5.781053901E-1;1.298874021E-1
1.893364069E1;2.259189129E0;-4.939979911E-1;6.707300246E-2
1.894555319E1;2.312421560E0;-3.193952441E-1;-5.429719388E-2
1.895748600E1;2.311357021E0;-2.299645841E-1;-1.501157731E-1
1.896937506E1;2.252801180E0;-2.257059813E-1;-2.235766798E-1
1.898128912E1;2.098426819E0;-2.501929402E-1;-3.002315462E-1
1.899319850E1;1.861009717E0;-3.279124498E-1;-3.279124498E-1
1.900511100E1;1.621463180E0;-3.641105890E-1;-2.917143404E-1
1.901702819E1;1.459636331E0;-4.056319594E-1;-2.352878302E-1
1.902893288E1;1.375528932E0;-4.854807854E-1;-1.628915817E-1
1.904084538E1;1.419179559E0;-5.025151968E-1;-9.475392103E-2
1.905275631E1;1.543743730E0;-4.939979911E-1;-5.323254317E-2
1.906466881E1;1.718346477E0;-4.705756605E-1;-3.832742944E-2
1.907658600E1;1.878044128E0;-3.673045337E-1;-1.703441329E-2
1.908849225E1;1.971733332E0;-2.597748041E-1;-8.410741389E-2
1.910040475E1;2.095232964E0;-2.299645841E-1;-1.384046078E-1
1.911232194E1;2.342231750E0;-1.543743759E-1;-2.086715698E-1
1.912422975E1;2.648851395E0;-2.768092230E-2;-2.981022298E-1
1.913615631E1;2.900108814E0;7.026695460E-2;-4.354421794E-1
1.914805006E1;2.904367447E0;-2.129301615E-2;-5.663942695E-1
1.915996100E1;2.563679218E0;-2.459343374E-1;-6.898937225E-1
1.917187350E1;2.119719744E0;-4.184077680E-1;-6.994755864E-1
1.918378444E1;1.733251572E0;-4.918686748E-1;-6.430491209E-1
1.919570006E1;1.582071185E0;-5.355193615E-1;-5.685235262E-1
1.920761413E1;1.586329699E0;-5.759761333E-1;-4.514119625E-1
1.921951881E1;1.554390192E0;-7.111867666E-1;-3.257831633E-1
1.923143131E1;1.439407945E0;-8.879188299E-1;-2.150594741E-1
1.924335163E1;1.334007502E0;-7.782597542E-1;-1.022064835E-1
1.925526100E1;1.358494520E0;-4.056319594E-1;-7.346090674E-2
1.926716569E1;1.487317204E0;-8.623671532E-2;-9.688322991E-2
1.927907663E1;1.695988774E0;1.415985674E-1;-1.330813617E-1
1.929098913E1;1.852492452E0;2.320938855E-1;-1.543743759E-1
1.930290006E1;1.895078540E0;2.310292274E-1;-1.384046078E-1
1.931481881E1;1.832264066E0;1.958957613E-1;-1.000771821E-1
1.932672350E1;1.701312065E0;1.714087874E-1;-3.726277873E-2
1.933863444E1;1.576747894E0;1.575683206E-1;6.387905218E-3
1.935054694E1;1.509674907E0;1.426632106E-1;1.064650808E-2
1.936245788E1;1.544808388E0;9.155996889E-2;-4.897394031E-2
1.937436881E1;1.678954363E0;-2.342231758E-2;-1.415985674E-1
1.938629381E1;1.813100338E0;-4.098905623E-1;-1.927018017E-1
1.939819225E1;1.746027350E0;-1.001836419E0;-2.480636388E-1
1.941010475E1;1.698118091E0;-1.351041913E0;-1.714087874E-1
1.942201569E1;1.639562249E0;-1.168986678E0;9.475392103E-2
1.943392819E1;1.595911622E0;-7.420616150E-1;4.705756605E-1
1.944585788E1;1.518192053E0;-3.385589719E-1;7.537727952E-1
1.945775006E1;1.501157641E0;8.517206647E-3;8.794015646E-1
1.946966256E1;1.560778141E0;4.886747301E-1;9.262462258E-1
1.948157350E1;1.789678097E0;5.589416623E-1;8.006174564E-1
1.949348444E1;1.947246432E0;4.886747301E-1;7.452555895E-1
1.950539694E1;1.961086869E0;6.483723521E-1;6.568895578E-1
1.951730788E1;1.793936610E0;1.081685305E0;4.567352235E-1
1.952922038E1;1.501157641E0;1.289292216E0;3.406882584E-1
1.954113131E1;1.246706128E0;9.283755422E-1;2.469989955E-1
1.955304381E1;9.730908871E-1;3.012961745E-1;6.707300246E-2
1.956495475E1;7.154453397E-1;-2.448696941E-1;-3.939208016E-2
1.957686569E1;5.440365672E-1;-4.599291682E-1;-2.129301615E-2
1.958877819E1;5.227435827E-1;-3.204599023E-1;6.281439960E-2
1.960069069E1;6.824411750E-1;8.943066746E-2;2.203827202E-1
1.961260788E1;8.112639189E-1;3.811450005E-1;3.907268643E-1
1.962451256E1;8.091346622E-1;7.228979468E-1;6.686007380E-1
1.963642663E1;6.441137791E-1;1.084879160E0;9.890606403E-1
1.964833600E1;4.567352235E-1;1.147693634E0;1.164728045E0
1.966024850E1;3.268478215E-1;7.324797511E-1;1.256287932E0
1.967215944E1;1.980250627E-1;4.279896319E-1;1.370205641E0
1.968407194E1;5.855579674E-2;5.674588680E-1;1.525644660E0
1.969598288E1;2.129301727E-1;6.462430358E-1;1.556519508E0
1.970789538E1;4.301189482E-1;8.314923048E-1;1.676825047E0
1.971980631E1;6.643421054E-1;9.134704471E-1;1.796065927E0
1.973171881E1;9.113411307E-1;7.750658393E-1;1.837587357E0
1.974362819E1;1.027388096E0;4.961272776E-1;1.912112951E0
1.975554069E1;9.219876528E-1;2.342231758E-2;2.131430864E0
1.976745319E1;8.123285770E-1;-7.399323583E-1;2.431662560E0
1.977936412E1;8.293629885E-1;-7.537727952E-1;2.497670889E0
1.979129538E1;8.591732383E-1;-2.640334070E-1;2.402916908E0
1.980318756E1;8.432034850E-1;3.151366413E-1;2.167629004E0
1.981509850E1;7.846476436E-1;6.025923491E-1;1.928082705E0
1.982700944E1;6.590188742E-1;3.758217394E-1;1.605493426E0
1.983892194E1;5.791700482E-1;-1.373399645E-1;1.332942843E0
1.985083288E1;5.035798550E-1;-3.683691919E-1;1.160469413E0
1.986274381E1;3.662398756E-1;-3.066194355E-1;1.062521577E0
1.987465631E1;1.916371584E-1;-2.363524884E-1;7.740011811E-1
1.988658756E1;6.387905031E-2;-2.970375717E-1;2.501929402E-1
1.989847975E1;-9.581857920E-2;-5.589416623E-1;-3.502701223E-1
1.991039225E1;-2.427403927E-1;-7.356737256E-1;-7.771950960E-1
1.992230944E1;-2.459343374E-1;-5.408426523E-1;-9.624443650E-1
1.993421412E1;-1.501157731E-1;-1.692794859E-1;-9.241169095E-1
1.994612506E1;2.768092230E-2;9.368927032E-2;-7.356737256E-1
1.995803756E1;3.438822329E-1;5.323254317E-2;-4.790928662E-1
1.996995475E1;5.653296113E-1;-2.661627159E-2;-3.949854672E-1
1.998186100E1;6.877644658E-1;1.596976258E-2;-4.077612758E-1
1.999377194E1;6.962816715E-1;3.193952516E-2;-4.812221825E-1
2.000568288E1;6.036570072E-1;2.448697016E-2;-5.898165703E-1
2.001759538E1;3.939208090E-1;1.277581006E-1;-6.451784372E-1
2.002950944E1;1.724734306E-1;4.439594150E-1;-5.355193615E-1
2.004141881E1;-1.064650808E-2;9.528625011E-1;-1.863138974E-1
2.005332975E1;1.415985674E-1;1.000771761E0;-1.831199378E-1
2.006524069E1;6.089802980E-1;4.801575243E-1;-8.911127448E-1
2.007715319E1;9.581857324E-1;2.374171317E-1;-1.898272395E0
2.008906569E1;1.100848913E0;5.919458866E-1;-2.620105743E0
2.010097662E1;1.130659223E0;1.706635356E0;-2.463602066E0
2.011288756E1;1.371270299E0;1.548002362E0;-1.825876236E0
2.012480006E1;1.752415299E0;-1.533097178E-1;-1.226477742E0
2.013671100E1;1.754544616E0;-1.804583192E0;-9.464746118E-1
2.014862506E1;1.483058572E0;-2.319874287E0;-9.528625011E-1
2.016053444E1;1.137047052E0;-2.196374655E0;-1.072103381E0
2.017244694E1;7.782597542E-1;-1.792872071E0;-1.150887609E0
2.018435788E1;3.662398756E-1;-1.263740540E0;-1.160469413E0
2.019627038E1;1.746027321E-1;-1.060392261E0;-1.223283768E0
2.020818131E1;3.044901490E-1;-1.277580976E0;-1.293550730E0
2.022010006E1;6.962816715E-1;-1.623592496E0;-1.331878185E0
2.023200475E1;1.172180533E0;-1.821617603E0;-1.365947008E0
2.024391569E1;1.656596661E0;-1.803518534E0;-1.413856268E0
2.025582662E1;1.953634262E0;-1.609752059E0;-1.417050242E0
2.026773913E1;2.008996248E0;-1.413856268E0;-1.415985584E0
2.027965006E1;1.822682261E0;-1.131723881E0;-1.322296381E0
2.029156256E1;1.501157641E0;-8.251044154E-1;-1.167922020E0
2.030347350E1;1.135982394E0;-5.057091713E-1;-9.837373495E-1
2.031538444E1;7.580313683E-1;-3.885975480E-1;-8.538499475E-1
2.032730475E1;4.450240433E-1;-5.301961303E-1;-8.453327417E-1
2.033921100E1;1.884431988E-1;-7.665486336E-1;-8.357509375E-1
2.035112038E1;-4.045673087E-2;-9.092118144E-1;-7.835830450E-1
2.036303131E1;-2.054776102E-1;-9.422159791E-1;-6.898937225E-1
2.037494225E1;-3.630459309E-1;-9.017592669E-1;-5.493598580E-1
2.038685475E1;-4.684463739E-1;-9.145350456E-1;-4.035026729E-1
2.039876569E1;-5.397779942E-1;-1.002901077E0;-3.119426966E-1
2.041067662E1;-5.695881844E-1;-1.133853197E0;-1.596976221E-1
2.042258913E1;-5.568124056E-1;-1.172180533E0;-5.962044746E-2
2.043450006E1;-4.695110321E-1;-1.110430837E0;-5.003859103E-2
2.044641256E1;-2.853264213E-1;-1.054004312E0;-9.262461960E-2
2.045832819E1;3.193952609E-3;-1.010353684E0;-1.650208831E-1
2.047023600E1;2.587101460E-1;-9.848020077E-1;-2.406110913E-1
2.048215162E1;4.439594150E-1;-8.921774030E-1;-3.215245605E-1
2.049405944E1;4.844161272E-1;-7.356737256E-1;-4.013733566E-1
2.050597038E1;4.269249737E-1;-6.654067636E-1;-4.098905623E-1
2.051788288E1;3.492054641E-1;-6.079156399E-1;-3.609166443E-1
2.052979381E1;2.800031602E-1;-4.013733566E-1;-2.267706245E-1
2.054170475E1;2.193180770E-1;-2.448697016E-2;-7.239625603E-2
2.055361725E1;1.671501845E-1;4.769635797E-1;-5.110324174E-2
2.056553756E1;1.905725002E-1;8.868541718E-1;-7.239625603E-2
2.057743912E1;2.917143404E-1;1.180697799E0;-8.517206460E-2
2.058935163E1;4.045673311E-1;1.296744704E0;-8.410741389E-2
2.060126256E1;5.067738295E-1;1.382981420E0;-6.068509817E-2
2.061318131E1;5.451012254E-1;1.360623717E0;-5.536184460E-2
2.062512350E1;5.174202919E-1;1.156210780E0;-1.703441329E-2
2.063699694E1;4.546059072E-1;8.016820550E-1;1.171115879E-2
2.064890944E1;3.832743168E-1;8.517206460E-2;8.517206647E-3
2.066082038E1;3.619812727E-1;-6.952170134E-1;6.174974889E-2
2.067273288E1;4.929333329E-1;-1.365947008E0;2.352878302E-1
2.068465162E1;8.378801942E-1;-1.392563343E0;4.290542901E-1
2.069655631E1;1.301003337E0;-1.100848913E0;5.142263770E-1
2.070846725E1;1.955763578E0;-6.781826019E-1;5.142263770E-1
2.072037975E1;2.543450832E0;-3.300417662E-1;4.024380147E-1
2.073229069E1;2.821324825E0;-1.320167035E-1;2.512575984E-1
2.074420163E1;2.687178612E0;-4.790928960E-2;2.331585288E-1
2.075611412E1;2.016448736E0;3.300417587E-2;3.470761776E-1
2.076802662E1;1.069974065E0;1.682148278E-1;5.717175007E-1
2.077994069E1;1.107236892E-1;4.503473043E-1;7.942295074E-1
2.079184850E1;-4.737696350E-1;6.334672570E-1;8.176518679E-1
2.080376100E1;-7.047988772E-1;8.144578934E-1;7.473849058E-1
2.081567194E1;-7.335444093E-1;9.613797069E-1;6.132388711E-1
2.082758288E1;-5.940751433E-1;9.134704471E-1;5.248728395E-1
2.083949538E1;-3.992440701E-1;7.740011811E-1;4.950626493E-1
2.085140631E1;-2.257059813E-1;5.408426523E-1;5.035798550E-1
2.086331725E1;-3.939208090E-1;9.400866628E-1;6.888290644E-1
2.087522975E1;-9.986425042E-1;2.342231750E0;1.188150287E0
2.088714069E1;-1.258417249E0;2.983151674E0;1.598040938E0
2.089905319E1;-1.059327602E0;2.674402952E0;1.829070091E0
2.091097038E1;-4.428947568E-1;9.720262289E-1;1.776902199E0
2.092287662E1;-3.215245605E-1;2.938436270E-1;1.775837660E0
2.093478756E1;-5.057091713E-1;4.790928960E-2;1.949375629E0
2.094670006E1;-6.781826019E-1;-1.618269235E-1;2.178275585E0
2.095861100E1;-7.101221085E-1;-5.557477474E-1;2.330520630E0
2.097052350E1;-5.791700482E-1;-7.356737256E-1;2.278352737E0
2.098243444E1;-2.512575984E-1;-6.079156399E-1;2.175081730E0
2.099434538E1;1.384046115E-2;-2.757445574E-1;2.086715698E0
2.100625631E1;2.917143404E-1;1.703441292E-1;2.047323465E0
2.101816881E1;5.206142664E-1;5.791700482E-1;1.980250597E0
2.103008288E1;5.387133360E-1;9.241169095E-1;1.946181774E0
2.104199069E1;3.811450005E-1;9.305048585E-1;1.724734306E0
2.105390319E1;1.927018017E-1;8.240397573E-1;1.345718622E0
2.106581413E1;-2.981022373E-2;6.600835323E-1;8.985652924E-1
2.107772662E1;-2.448696941E-1;6.132388711E-1;6.877644658E-1
2.108964069E1;-4.322482347E-1;4.173431396E-1;7.026695609E-1
2.110155163E1;-4.141491652E-1;-1.277581044E-2;5.770407319E-1
2.111346100E1;-3.417529166E-1;-1.320167035E-1;2.352878302E-1
2.112537350E1;-2.863910794E-1;1.234994978E-1;-2.533869147E-1
2.113728600E1;-1.533097178E-1;4.269249737E-1;-7.197039723E-1
2.114919538E1;-1.064650831E-3;6.505016685E-1;-1.121077299E0
2.116110788E1;1.565036774E-1;7.750658393E-1;-1.430890679E0
2.117301881E1;3.108780384E-1;7.857123017E-1;-1.668307900E0
2.118493131E1;4.269249737E-1;7.207686305E-1;-1.699182749E0
2.119684225E1;3.949854672E-1;7.218332887E-1;-1.240318179E0
2.120875475E1;2.597748041E-1;6.270793676E-1;-9.028239250E-1
2.122067663E1;2.523222566E-1;1.277581006E-1;-1.176439166E0
2.123257819E1;2.800031602E-1;-1.820552945E-1;-1.793936610E0
2.124448912E1;4.258603454E-1;-2.991668880E-1;-2.164435148E0
2.125640163E1;6.856351495E-1;-3.949854672E-1;-2.054776192E0
2.126831256E1;1.052939653E0;-1.365947008E0;-1.527773976E0
2.128022350E1;1.241382837E0;-2.284740686E0;-1.163663387E0
2.129213444E1;9.635090232E-1;-2.043065071E0;-1.122141957E0
2.130404694E1;6.057863235E-1;-1.375528932E0;-1.155146122E0
2.131595788E1;2.246413231E-1;-6.984109282E-1;-1.222219110E0
2.132787038E1;-6.920230389E-2;-2.640334070E-1;-1.320167065E0
2.133978131E1;-8.730136603E-2;-2.885203660E-1;-1.388304710E0
2.135169225E1;1.479864717E-1;-7.133160830E-1;-1.438343287E0
2.136360475E1;5.057091713E-1;-1.321231723E0;-1.475606084E0
2.137551569E1;7.910355926E-1;-1.751350641E0;-1.507545590E0
2.138742819E1;1.010353684E0;-2.060099363E0;-1.420244217E0
2.139934069E1;1.049745679E0;-2.002608299E0;-1.352106571E0
2.141125006E1;9.528625011E-1;-1.695988774E0;-1.337201476E0
2.142316256E1;7.622900009E-1;-1.210507989E0;-1.290356874E0
2.143507350E1;5.727821589E-1;-8.825955391E-1;-1.200926185E0
2.144698600E1;3.577226698E-1;-6.696653962E-1;-1.087008476E0
2.145889694E1;1.671501845E-1;-5.919458866E-1;-9.315694571E-1
2.147080944E1;-2.022836544E-2;-5.482951999E-1;-7.346090674E-1
2.148272194E1;-1.320167035E-1;-5.610709786E-1;-6.036570072E-1
2.149463131E1;-1.788613349E-1;-5.812993646E-1;-5.163556337E-1
2.150654381E1;-1.809906363E-1;-7.111867666E-1;-5.099677444E-1
2.151845475E1;-1.447925121E-1;-8.155225515E-1;-4.652524292E-1
2.153036569E1;-1.054004356E-1;-8.751429915E-1;-4.003087282E-1
2.154227819E1;-8.623671532E-2;-8.197811246E-1;-3.396236300E-1
2.155419225E1;-1.139176413E-1;-7.388677001E-1;-3.492054641E-1
2.156610162E1;-1.607622802E-1;-5.791700482E-1;-3.417529166E-1
2.157801413E1;-1.639562249E-1;-4.152138233E-1;-2.917143404E-1
2.158993131E1;-1.288227588E-1;-2.310292274E-1;-2.906496823E-1
2.160184069E1;-8.304276317E-2;-1.437278688E-1;-3.162012994E-1
2.161374850E1;-3.619812801E-2;-1.117883399E-1;-3.417529166E-1
2.162565944E1;2.129301662E-3;-1.288227588E-1;-3.641105890E-1
2.163757194E1;4.258603230E-2;-1.607622802E-1;-3.343003690E-1
2.164948600E1;2.661627159E-2;-1.777966917E-1;-2.288999259E-1
2.166139381E1;-4.790928960E-2;-2.320938855E-1;-1.565036774E-1
2.167330631E1;-9.581857920E-2;-4.695110321E-1;-1.309520602E-1
2.168521725E1;-8.091346174E-2;-6.728593111E-1;-1.458571702E-1
2.169712975E1;-9.581857361E-3;-5.908812284E-1;-1.735380888E-1
2.170904225E1;1.746027321E-1;-2.597748041E-1;-1.543743759E-1
2.172095475E1;3.534640670E-1;8.517206460E-2;-5.749114603E-2
2.173286881E1;4.886747301E-1;2.139948159E-1;-2.661627159E-2
2.174477662E1;5.546830893E-1;0.000000000E0;-3.513347730E-2
2.175669225E1;5.919458866E-1;-2.246413231E-1;-6.387905031E-2
2.176859850E1;6.377258301E-1;-2.118655145E-1;-7.239625603E-2
2.178052350E1;7.335444093E-1;6.707300246E-2;-4.152138159E-2
2.179242194E1;8.506560326E-1;4.929333329E-1;8.517206647E-3
2.180433288E1;9.720262289E-1;8.208457828E-1;0.000000000E0
2.181624538E1;9.709615707E-1;5.770407319E-1;-1.022064835E-1
2.182815631E1;8.304276466E-1;-8.943066746E-2;-8.410741389E-2
2.184006881E1;5.834286809E-1;-7.899709344E-1;1.394692659E-1
2.185197975E1;5.014505386E-1;-8.038113713E-1;4.056319594E-1
2.186389069E1;7.090574503E-1;-2.565808594E-1;5.823640227E-1
2.187580319E1;1.066780090E0;3.098133802E-1;5.962044597E-1
2.188771413E1;1.331878185E0;6.728593111E-1;4.641877711E-1
2.189962506E1;1.325490236E0;8.410741687E-1;2.991668880E-1
2.191153912E1;1.069974065E0;9.049532413E-1;2.544515431E-1
2.192344850E1;7.186393142E-1;8.581085801E-1;2.874557376E-1
2.193536100E1;4.652524292E-1;8.006174564E-1;3.854036033E-1
2.194727194E1;2.959729433E-1;5.983337760E-1;4.748342633E-1
2.195918288E1;2.959729433E-1;4.077612758E-1;5.344547033E-1
2.197109538E1;4.279896319E-1;2.949082851E-1;5.663942695E-1
2.198300631E1;5.876872540E-1;3.843389452E-1;6.174975038E-1
2.199493913E1;6.334672570E-1;6.441137791E-1;6.590188742E-1
2.200683600E1;6.047216654E-1;9.006946087E-1;7.314151525E-1
2.201874069E1;5.131617188E-1;9.858666658E-1;8.282983303E-1
2.203065788E1;3.726277947E-1;9.230522513E-1;9.901252985E-1
2.204256413E1;2.076069117E-1;7.218332887E-1;1.143435001E0
2.205448131E1;1.139176413E-1;3.257831633E-1;1.231801033E0
2.206638756E1;1.139176413E-1;-2.981022373E-2;1.312714458E0
2.207830006E1;1.266934574E-1;-1.000771821E-1;1.435149312E0
2.209021100E1;1.245641485E-1;1.916371584E-1;1.468153477E0
2.210212350E1;1.437278688E-1;7.452555895E-1;1.615075350E0
2.211403444E1;2.523222566E-1;9.890606403E-1;1.846104503E0
2.212594694E1;4.865454435E-1;8.825955391E-1;1.978121281E0
2.213785788E1;8.783369660E-1;8.400095105E-1;2.012190104E0
2.214976881E1;1.200926185E0;9.273108840E-1;1.972797990E0
2.216168131E1;1.330813527E0;8.261690736E-1;1.909983635E0
2.217361256E1;1.255223393E0;6.473076940E-1;1.768385053E0
2.218550475E1;1.019935489E0;6.920230389E-1;1.548002362E0
2.219741569E1;7.175746560E-1;6.334672570E-1;1.299938679E0
2.220932819E1;4.737696350E-1;4.609938264E-1;1.043357849E0
2.222123912E1;3.076840937E-1;2.406110913E-1;7.686778903E-1
2.223315631E1;2.374171317E-1;1.107236892E-1;6.025923491E-1
2.224506256E1;2.076069117E-1;0.000000000E0;4.418300986E-1
2.225697350E1;2.054776102E-1;-3.193952516E-2;3.023608327E-1
2.226888444E1;1.543743759E-1;-1.596976258E-2;1.394692659E-1
2.228079694E1;1.096590385E-1;-2.129301615E-2;-1.873785406E-1
2.229270944E1;1.735380888E-1;-7.452555932E-3;-5.908812284E-1
2.230462038E1;3.289771080E-1;-2.129301662E-3;-1.019935489E0
2.231653131E1;5.546830893E-1;2.129301615E-2;-1.332942843E0
2.232844381E1;8.070053458E-1;7.026695460E-2;-1.445795894E0
2.234035475E1;1.001836419E0;2.853264213E-1;-1.096590400E0
2.235227819E1;1.111495495E0;4.801575243E-1;-5.674588680E-1
2.236417819E1;1.271193147E0;1.554390192E-1;-5.695881844E-1
2.237608912E1;1.389369369E0;-1.596976221E-1;-1.011418343E0
2.238800162E1;1.574618578E0;-6.185621619E-1;-1.670437217E0
2.239991256E1;1.692794800E0;-8.613025546E-1;-2.067551851E0
2.241184225E1;1.779031515E0;-1.111495495E0;-2.148465395E0
2.242373600E1;1.899337053E0;-1.527773976E0;-2.102685452E0
2.243564694E1;1.873785496E0;-1.713023186E0;-1.979185939E0
2.244755788E1;1.731122255E0;-1.776902199E0;-1.848233819E0
2.245947038E1;1.437278628E0;-1.895078540E0;-1.660855293E0
2.247138131E1;9.965131879E-1;-1.812035680E0;-1.549067020E0
2.248329381E1;6.270793676E-1;-1.487317204E0;-1.484123230E0
2.249520475E1;4.066966176E-1;-1.065715432E0;-1.387240052E0
2.250713288E1;3.960501254E-1;-8.389448524E-1;-1.363817692E0
2.251902819E1;4.801575243E-1;-6.909583807E-1;-1.288227558E0
2.253094069E1;5.812993646E-1;-5.301961303E-1;-1.209443331E0
2.254285162E1;6.526309848E-1;-3.651752472E-1;-1.146628976E0
2.255476256E1;6.813765168E-1;-2.469989955E-1;-1.095525742E0
2.256667350E1;6.696653962E-1;-2.012190074E-1;-1.063586235E0
2.257858600E1;6.206914186E-1;-1.820552945E-1;-1.017806172E0
2.259050475E1;6.100449562E-1;-2.789385319E-1;-1.074232697E0
2.260240944E1;5.802347064E-1;-3.673045337E-1;-1.098719716E0
2.261432194E1;5.025151968E-1;-4.460887015E-1;-1.078491330E0
2.262623288E1;4.311835766E-1;-6.664714217E-1;-1.112560153E0
2.263814381E1;3.257831633E-1;-6.835058331E-1;-9.443452954E-1
2.265005475E1;2.320938855E-1;-5.493598580E-1;-7.697425485E-1
2.266196725E1;1.288227588E-1;-2.810678184E-1;-6.473076940E-1
2.267388131E1;5.110324174E-2;-5.642649531E-2;-5.440365672E-1
2.268579069E1;-2.661627159E-2;1.149822921E-1;-4.066966176E-1
2.269770319E1;-6.920230389E-2;9.155996889E-2;-3.034254909E-1
2.270962663E1;-7.771950960E-2;-5.749114603E-2;-2.480636388E-1
2.272152663E1;-1.490511186E-2;-2.555162013E-1;-2.182534188E-1
2.273343756E1;6.600835174E-2;-5.099677444E-1;-2.257059813E-1
2.274534850E1;1.628915817E-1;-6.813765168E-1;-2.161241174E-1
2.275726100E1;2.523222566E-1;-6.611481905E-1;-1.884431988E-1
2.276917350E1;2.842617631E-1;-5.482951999E-1;-1.746027321E-1
2.278108444E1;2.491282970E-1;-4.535412490E-1;-1.650208831E-1
2.279299538E1;1.895078421E-1;-3.854036033E-1;-1.384046078E-1
2.280490631E1;1.341460049E-1;-3.513347805E-1;-1.022064835E-1
2.281681725E1;1.181762442E-1;-3.619812727E-1;-8.091346174E-2
2.282873131E1;1.309520602E-1;-3.864682615E-1;-6.174974889E-2
2.284064069E1;1.341460049E-1;-4.184077680E-1;-7.026695460E-2
2.285255319E1;1.224348471E-1;-4.173431396E-1;-1.000771821E-1
2.286447194E1;1.117883399E-1;-3.939208090E-1;-1.160469428E-1
2.287637663E1;9.475392103E-2;-3.630459309E-1;-1.213701963E-1
2.288828756E1;1.149822921E-1;-2.874557376E-1;-1.000771821E-1
2.290020006E1;2.576455176E-1;-8.943066746E-2;-7.026695460E-2
2.291211100E1;3.854036033E-1;-4.897394031E-2;-2.661627159E-2
2.292402194E1;4.258603454E-1;-1.916371472E-2;2.129301662E-3
2.293593288E1;4.546059072E-1;2.278352827E-1;3.087487444E-2
2.294785475E1;5.057091713E-1;5.663942695E-1;3.406882659E-2
2.295975788E1;6.377258301E-1;9.187936783E-1;1.596976258E-2
2.297166881E1;8.794015646E-1;1.156210780E0;-2.661627159E-2
2.298357975E1;1.143435001E0;1.080620646E0;-1.224348471E-1
2.299549225E1;1.365947008E0;8.006174564E-1;-1.809906363E-1
2.300740944E1;1.536291122E0;7.175746560E-1;-1.873785406E-1
2.301931412E1;1.620398521E0;7.899709344E-1;-1.969604045E-1
2.303122506E1;1.485187888E0;4.641877711E-1;-2.693566680E-1
2.304313756E1;1.041228533E0;-5.717175007E-1;-3.321710527E-1
2.305504850E1;5.802347064E-1;-1.539485097E0;1.171115879E-2
2.306696100E1;6.984109282E-1;-1.233930349E0;4.577998519E-1
2.307887506E1;1.207314014E0;-3.566580415E-1;5.791700482E-1
2.309078444E1;1.732186913E0;2.331585288E-1;4.599291682E-1
2.310269538E1;2.231508255E0;5.025151968E-1;3.343003690E-1
2.311460788E1;2.490218401E0;4.279896319E-1;2.065422684E-1
2.312652662E1;2.502994061E0;1.245641485E-1;7.452555746E-2
2.313843131E1;2.332649946E0;4.365068302E-2;8.623671532E-2
2.315034225E1;2.002608299E0;2.501929402E-1;1.682148278E-1
2.316225475E1;1.397886515E0;5.333900452E-1;2.800031602E-1
2.317416569E1;8.698197603E-1;4.812221825E-1;3.374943137E-1
2.318607819E1;5.930105448E-1;1.596976221E-1;3.140719831E-1
2.319798913E1;5.472305417E-1;-1.139176413E-1;2.331585288E-1
2.320990006E1;5.504244566E-1;-1.533097178E-1;1.714087874E-1
2.322181256E1;5.003858805E-1;-1.916371472E-2;1.777966917E-1
2.323372350E1;3.364296556E-1;2.054776102E-1;2.299645841E-1
2.324563444E1;5.003859103E-2;5.653296113E-1;3.662398756E-1
2.325754694E1;-2.342231870E-1;9.560564756E-1;5.301961303E-1
2.326945788E1;-4.961272776E-1;1.180697799E0;7.079927921E-1
2.328137038E1;-5.930105448E-1;1.188150287E0;8.272337317E-1
2.329328131E1;-5.632002950E-1;1.073168039E0;8.985652924E-1
2.330519381E1;-4.077612758E-1;8.751429915E-1;9.486039281E-1
2.331710475E1;-1.905725002E-1;7.463202477E-1;1.027388096E0
2.332904225E1;4.152138159E-2;6.558248997E-1;1.108301520E0
2.334092819E1;1.831199378E-1;5.823640227E-1;1.158340096E0
2.335283913E1;3.140719831E-1;4.599291682E-1;1.209443331E0
2.336475788E1;3.992440701E-1;2.746799290E-1;1.324425697E0
2.337666256E1;5.365840197E-1;-7.239625603E-2;1.447925091E0
2.338857350E1;6.803118587E-1;-4.013733566E-1;1.479864717E0
2.340048600E1;8.389448524E-1;-4.993212521E-1;1.441537261E0
2.341239694E1;1.025258780E0;-3.534640670E-1;1.475606084E0
2.342430788E1;1.125335932E0;-1.394692659E-1;1.528838634E0
2.343622038E1;1.126400590E0;5.429719388E-2;1.611881375E0
2.344813131E1;1.047616482E0;1.139176413E-1;1.604428768E0
2.346004381E1;9.230522513E-1;1.160469428E-1;1.452183723E0
2.347195475E1;8.293629885E-1;8.730136603E-2;1.211572647E0
2.348387194E1;7.654839754E-1;8.517206460E-2;9.209229946E-1
2.349577819E1;6.973463297E-1;1.032711342E-1;6.494370103E-1
2.350768913E1;6.217560768E-1;1.320167035E-1;4.098905623E-1
2.351960162E1;4.716403186E-1;1.075297371E-1;2.427403927E-1
2.353151256E1;3.034254909E-1;8.517206460E-2;1.405339092E-1
2.354342975E1;1.937664598E-1;5.003859103E-2;6.387905218E-3
2.355533756E1;2.118655145E-1;1.054004356E-1;-1.533097178E-1
2.356724694E1;3.406882584E-1;1.639562249E-1;-3.417529166E-1
2.357915944E1;4.460887015E-1;1.522450745E-1;-4.641877711E-1
2.359107038E1;5.163556337E-1;-4.684463516E-2;-5.270021558E-1
2.360298288E1;5.025151968E-1;-2.746799290E-1;-5.855579376E-1
2.361489381E1;4.833514690E-1;-4.130845368E-1;-6.366612315E-1
2.362680631E1;5.035798550E-1;-4.503473043E-1;-6.451784372E-1
2.363871725E1;5.120970607E-1;-2.608394623E-1;-5.972691178E-1
2.365062975E1;4.535412490E-1;2.800031602E-1;-3.736924529E-1
2.366254069E1;5.376486778E-1;5.536184311E-1;-3.460115194E-1
2.367445319E1;8.804662228E-1;4.045673311E-1;-7.303504944E-1
2.368636412E1;1.341460109E0;-2.235766686E-2;-1.433019996E0
2.369827506E1;1.434084654E0;6.174974889E-2;-2.026030540E0
2.371018756E1;1.068909407E0;1.121077299E0;-1.364882350E0
2.372209850E1;1.083814502E0;6.079156399E-1;-8.772723079E-1
2.373400944E1;1.346783280E0;-5.600063205E-1;-1.129594564E0
2.374592194E1;1.446860433E0;-1.374464273E0;-1.493705153E0
2.375783288E1;1.427696824E0;-1.662984610E0;-1.716217160E0
2.376974538E1;1.161534071E0;-1.398951173E0;-1.691730142E0
2.378165631E1;7.516434789E-1;-8.410741687E-1;-1.536291122E0
2.379357350E1;2.874557376E-1;-3.353650272E-1;-1.373399615E0
2.380547975E1;-1.064650831E-3;-2.821324766E-1;-1.304197311E0
2.381739069E1;-1.618269235E-1;-5.706528425E-1;-1.260546565E0
2.382930319E1;-1.703441292E-1;-1.122141957E0;-1.249900103E0
2.384122038E1;-8.410741389E-2;-1.514998198E0;-1.126400590E0
2.385312662E1;7.133160532E-2;-1.619333982E0;-8.740783334E-1
2.386503756E1;2.459343374E-1;-1.402145147E0;-6.377258301E-1
2.387694850E1;4.066966176E-1;-1.051874995E0;-5.259374976E-1
2.388886100E1;5.514891148E-1;-6.302732825E-1;-5.227435827E-1
2.390077506E1;6.654067636E-1;-2.895850241E-1;-6.238853931E-1
2.391268444E1;7.207686305E-1;-1.288227588E-1;-7.250272036E-1
2.392459538E1;7.409969568E-1;-1.011418328E-1;-8.346862793E-1
2.393650631E1;7.197039723E-1;-2.065422684E-1;-9.187936783E-1
2.394841881E1;6.696653962E-1;-3.747570813E-1;-9.379574060E-1
