"Time (s)";"Acceleration x (m/s^2)";"Acceleration y (m/s^2)";"Acceleration z (m/s^2)"
0.000000000E0;1.121223807E0;2.657343388E0;1.016011143E1
1.191093800E-2;1.036267996E0;2.788229704E0;9.431134224E0
2.382343800E-2;9.076993465E-1;3.051189661E0;8.652721405E0
3.573437500E-2;9.708583355E-1;3.442268372E0;8.194585800E0
4.764687500E-2;1.099513173E0;3.688727379E0;8.270703316E0
5.955937500E-2;1.277622700E0;3.556720734E0;9.132117271E0
7.147031300E-2;1.228570223E0;3.222835064E0;9.733214378E0
8.338125000E-2;1.176980019E0;3.000528574E0;9.990438461E0
9.529218800E-2;1.389527559E0;3.004991293E0;9.920661926E0
1.072046880E-1;1.418258071E0;3.227288008E0;9.835036278E0
1.191156250E-1;1.269041896E0;3.431254864E0;9.372754097E0
1.310265630E-1;1.258900046E0;3.358327627E0;9.311451912E0
1.429390630E-1;1.251257658E0;3.296221972E0;9.068948746E0
1.548500000E-1;9.460927844E-1;3.224663973E0;9.467084885E0
1.667625000E-1;6.955538988E-1;2.856550694E0;9.616751671E0
1.786734380E-1;6.126570702E-1;2.649586439E0;9.714464188E0
1.906093750E-1;1.049972415E0;2.730261564E0;1.009237385E1
2.024968750E-1;1.131672144E0;2.877437830E0;9.909811974E0
2.144078130E-1;1.260595083E0;3.080198050E0;9.388220787E0
2.263203130E-1;1.289440393E0;3.145760775E0;9.236255646E0
2.382312500E-1;9.711935520E-1;3.102416277E0;9.254787445E0
2.501421880E-1;9.295823574E-1;3.039975405E0;9.119447708E0
2.620531250E-1;1.009347558E0;3.006600142E0;9.214459419E0
2.739656250E-1;9.270540476E-1;2.840481043E0;9.268501282E0
2.858765630E-1;1.062412620E0;2.789312124E0;9.385260582E0
2.977906250E-1;1.481340408E0;2.812870741E0;9.695290565E0
3.097000000E-1;1.906474113E0;2.619869709E0;9.947381020E0
3.216125000E-1;1.702143312E0;2.345446348E0;9.963911057E0
3.335234380E-1;4.996124208E-1;1.886736274E0;9.948655128E0
3.454359380E-1;-2.381177247E-1;1.177449226E0;9.203253746E0
3.573500000E-1;4.418068230E-1;1.129593968E0;7.838109016E0
3.692671880E-1;1.259991646E0;1.676601887E0;7.423806667E0
3.811703130E-1;1.860342622E0;2.217519283E0;7.988120079E0
3.930812500E-1;2.849377632E0;2.548206329E0;8.574756622E0
4.049937500E-1;3.724094391E0;3.209551811E0;8.836414337E0
4.169156250E-1;3.943748236E0;3.303538561E0;8.963326454E0
4.288171880E-1;3.312176943E0;2.864327192E0;7.833837509E0
4.407281250E-1;3.227699995E0;2.971434116E0;7.304412365E0
4.526390630E-1;4.043576717E0;3.208383560E0;7.652884007E0
4.645515630E-1;3.674046040E0;2.744282007E0;7.767211914E0
4.764625000E-1;3.039860249E0;1.940682530E0;7.949075222E0
4.883750000E-1;2.349602461E0;9.731759429E-1;8.947955132E0
5.002921880E-1;2.099513769E0;3.254773617E-1;9.456120491E0
5.121984380E-1;2.315039873E0;2.760035694E-1;1.014192486E1
5.241093750E-1;2.630729675E0;3.391338885E-1;1.018719387E1
5.360203130E-1;3.294747114E0;2.446682602E-1;9.665277481E0
5.479328130E-1;4.196968555E0;4.277863801E-1;9.679738045E0
5.598500000E-1;4.164397717E0;1.507006437E-1;1.043821144E1
5.717562500E-1;4.553292751E0;5.212656036E-2;1.074031258E1
5.836671880E-1;4.834755421E0;2.087935507E-1;9.807291985E0
5.955921880E-1;4.783557415E0;1.692796350E-1;8.265712738E0
6.075078130E-1;4.750249386E0;-1.666747481E-1;7.393409729E0
6.194015630E-1;4.851811409E0;-3.939419687E-1;7.746459007E0
6.313140630E-1;5.160079002E0;-2.284068465E-1;7.621768475E0
6.432250000E-1;5.838059425E0;2.434041351E-1;6.657949448E0
6.551359380E-1;5.677599907E0;-9.846872836E-2;6.645624161E0
6.670484380E-1;5.368710041E0;-8.061659932E-1;7.632667065E0
6.789593750E-1;5.363710880E0;-8.960826397E-1;9.085305214E0
6.908734380E-1;5.396559715E0;-9.510247707E-1;9.308618546E0
7.027828130E-1;5.532712936E0;-1.401259303E0;6.776222706E0
7.147125000E-1;5.475826740E0;-7.885351181E-1;3.743401289E0
7.266062500E-1;6.274943829E0;1.018828630E0;2.397247076E0
7.385171880E-1;6.759769917E0;2.708177328E0;4.275096416E0
7.504281250E-1;5.758428574E0;3.705936909E0;6.372752190E0
7.623406250E-1;4.666174889E0;4.232124805E0;8.210540771E0
7.742625000E-1;4.934640884E0;4.225229263E0;9.836721420E0
7.861640630E-1;6.852875710E0;3.903573513E0;1.112076092E1
7.980750000E-1;8.410370827E0;3.627502918E0;1.062027645E1
8.099875000E-1;9.076054573E0;3.762497663E0;1.056472206E1
8.219000000E-1;8.343132019E0;3.825943947E0;8.863946915E0
8.338187500E-1;7.831835747E0;4.234394550E0;8.022223473E0
8.457390630E-1;7.350869656E0;4.643688679E0;7.525109768E0
8.576328130E-1;7.539925098E0;5.005595684E0;7.200417995E0
8.695453130E-1;8.390843391E0;4.772458076E0;7.265128613E0
8.814578130E-1;8.975125313E0;4.154658318E0;7.966409206E0
8.933750000E-1;9.839517593E0;3.894446850E0;8.273374557E0
9.053046880E-1;1.034079647E1;3.361804008E0;8.518961906E0
9.171906250E-1;1.010390472E1;2.542987108E0;8.077950478E0
9.291031250E-1;9.860107422E0;2.006973028E0;6.820400715E0
9.410156250E-1;9.864713669E0;2.089984894E0;5.207858086E0
9.529265630E-1;8.847599983E0;1.710590124E0;3.998728752E0
9.648578130E-1;6.391665936E0;5.804790258E-1;3.273295164E0
9.767500000E-1;5.428143501E0;2.123848349E-1;3.109091043E0
9.886609380E-1;6.269446850E0;7.419248223E-1;3.632770061E0
1.000573438E0;7.485662937E0;1.055871725E0;4.286981106E0
1.012485938E0;8.312150955E0;8.110693097E-1;5.166916847E0
1.024395313E0;9.068172455E0;6.585587263E-1;5.985475540E0
1.036307813E0;9.625504494E0;6.961189508E-1;6.206431866E0
1.048218750E0;9.562375069E0;5.694177747E-1;5.896755695E0
1.060131250E0;9.438786507E0;6.827210188E-1;5.313423157E0
1.072050000E0;8.511866570E0;4.949293733E-1;4.942340851E0
1.083954688E0;7.017749786E0;-9.075939655E-2;4.493533611E0
1.095865625E0;6.555218697E0;-1.292102784E-1;4.290007114E0
1.107776563E0;7.318844795E0;6.913114190E-1;4.128743172E0
1.119689063E0;7.889603615E0;1.063130856E0;4.192639828E0
1.131600000E0;9.036109924E0;1.055718541E0;3.743966341E0
1.143521875E0;1.041120529E1;1.617628098E0;3.948833466E0
1.155423438E0;1.017953205E1;1.985339165E0;4.104590893E0
1.167334375E0;9.230432510E0;1.556882381E0;3.629676819E0
1.179246875E0;7.818189144E0;1.358585000E0;3.296901941E0
1.191157813E0;7.107120514E0;1.649786949E0;3.266035795E0
1.203076563E0;7.943013191E0;2.259657145E0;3.001572371E0
1.214981250E0;9.810154915E0;2.834859371E0;3.646158457E0
1.226892188E0;1.253904724E1;3.765907049E0;4.680310249E0
1.238804688E0;1.381045437E1;3.772036076E0;4.984756947E0
1.250715625E0;1.431235504E1;3.392755985E0;4.059962749E0
1.262628125E0;1.363740158E1;3.439807177E0;3.439471960E0
1.274539063E0;1.167848492E1;2.879132748E0;1.671746612E0
1.286450000E0;1.094626141E1;3.190321445E0;6.899227500E-1
1.298362500E0;1.144926357E1;3.477760077E0;3.718290925E-1
1.310275000E0;1.131290913E1;2.086182833E0;2.151621282E-1
1.322185938E0;1.201088715E1;2.492335320E0;9.685887098E-1
1.334096875E0;1.145764351E1;9.086474180E-1;1.963705063E0
1.346012500E0;1.131697941E1;-1.325286388E0;1.496050358E0
1.357920313E0;1.181958961E1;-1.383829474E0;2.262061119E0
1.369831250E0;7.857415676E0;-2.510109901E0;5.192018032E0
1.381753125E0;2.852633715E0;-6.281638145E0;6.100799084E0
1.393656250E0;2.891965866E0;-6.258481503E0;5.544099808E0
1.405573438E0;4.951841354E0;-4.533085823E0;4.998997688E0
1.417478125E0;4.892091274E0;-3.984047413E0;5.697750092E0
1.429401563E0;2.749051094E0;-6.012223721E0;6.084959507E0
1.441301563E0;5.055922031E0;-3.973838568E0;4.357935429E0
1.453212500E0;8.661905289E0;-1.037857652E0;1.813234210E0
1.465125000E0;8.494541168E0;1.847461909E-1;5.723004341E-1
1.477035938E0;6.628558159E0;6.653103828E-1;2.389537811E0
1.488965625E0;6.031875134E0;-1.786294699E0;1.733057261E0
1.500860938E0;5.963899136E0;-5.166773319E0;9.632160664E-1
1.512771875E0;5.976636410E0;-7.372072697E0;5.539799929E-1
1.524682813E0;6.336264133E0;-8.222886086E0;7.295898199E-1
1.536593750E0;7.905855179E0;-7.228535652E0;1.176549077E0
1.548506250E0;1.108574772E1;-3.891478062E0;1.211399078E0
1.560439063E0;1.116623116E1;-2.367118359E0;3.691475868E0
1.572328125E0;9.419057846E0;-2.689483404E0;5.957204819E0
1.584240625E0;8.916217804E0;-2.829745293E0;5.438908100E0
1.596151563E0;7.563407898E0;-6.531363487E0;8.266814232E0
1.608064063E0;6.324034691E0;-8.437626839E0;8.054927826E0
1.619976563E0;6.777266502E0;-7.413128376E0;6.873015404E0
1.631887500E0;8.606590271E0;-4.366046906E0;7.989556789E0
1.643798438E0;9.791107178E0;-2.514467239E0;6.722324848E0
1.655709375E0;9.477686882E0;-2.603435755E0;3.286051512E0
1.667621875E0;8.183908463E0;-2.723682165E0;1.553032517E0
1.679550000E0;7.486601353E0;-2.118274689E0;6.824527979E-1
1.691445313E0;8.020729065E0;-1.956666112E0;1.027198672E0
1.703356250E0;8.520868301E0;-2.793247938E0;2.071137667E0
1.715267188E0;6.658897400E0;-4.799627304E0;2.455761433E0
1.727185938E0;5.349968433E0;-5.727093220E0;2.360864639E0
1.739095313E0;4.887820244E0;-4.833385944E0;1.958571911E0
1.751001563E0;5.696668148E0;-3.919863462E0;2.283091545E0
1.762914063E0;7.418137074E0;-2.925407887E0;2.982868910E0
1.774825000E0;9.406655312E0;-2.900623322E0;1.684100628E0
1.786740625E0;1.121440220E1;-2.918857336E0;-1.251765251E0
1.798648438E0;1.163117599E1;-3.522655964E0;-3.742156506E0
1.810562500E0;1.073662472E1;-3.761166334E0;-3.246710062E0
1.822471875E0;1.005207539E1;-3.788450718E0;1.321790963E-1
1.834384375E0;9.110378265E0;-3.499939680E0;3.338350296E0
1.846295313E0;8.831492424E0;-4.855900764E0;2.073560476E0
1.858221875E0;1.094484329E1;-2.263669968E0;7.971638441E-1
1.870118750E0;1.302819252E1;-3.465453625E0;7.503427565E-2
1.882029688E0;1.459860611E1;-4.840453148E0;-2.787923336E0
1.893942188E0;1.488006973E1;-4.999964714E0;-4.187094688E0
1.905853125E0;1.115458584E1;-5.597394466E0;-4.861263752E0
1.917765625E0;7.301108360E0;-5.435728550E0;-3.396270990E0
1.929676563E0;6.251682281E0;-5.686276913E0;-3.336301088E0
1.941587500E0;6.736967564E0;-6.719892025E0;-3.209992409E0
1.953500000E0;6.701466084E0;-7.195294380E0;-8.417342305E-1
1.965417188E0;7.051977634E0;-7.176092625E0;1.025944233E0
1.977325000E0;7.537942886E0;-6.893797398E0;1.729523420E0
1.989234375E0;9.062417030E0;-6.056966305E0;1.800573707E0
2.001145313E0;9.674854279E0;-5.164484501E0;2.414197922E0
2.013057813E0;9.372562408E0;-4.212750912E0;1.655897021E0
2.024968750E0;7.424199104E0;1.368813068E-1;-4.846553802E0
2.036896875E0;6.613675594E0;3.085532188E0;-3.745470047E0
2.048792188E0;8.570619583E0;1.156590939E0;8.108682036E-1
2.060710938E0;1.167611027E1;-2.787636042E0;1.302464843E0
2.072615625E0;1.244016743E1;-5.689667225E0;1.515912712E-1
2.084526563E0;1.104022980E1;-5.152484894E0;3.269608259E0
2.096454688E0;9.076447487E0;-4.575060844E0;5.334558964E0
2.108350000E0;7.605918884E0;-6.164849281E0;1.015716076E0
2.120260938E0;7.788893700E0;-6.420789242E0;-3.342305869E-2
2.132173438E0;1.098240471E1;-4.960460663E0;-3.626258075E-1
2.144087500E0;1.667955017E1;-2.664066553E0;6.337643266E-1
2.155996875E0;1.614073944E1;-1.490879059E0;9.133113623E-1
2.167907813E0;1.405548668E1;-3.035991430E0;1.699605465E0
2.179820313E0;1.228034019E1;-4.743612766E0;2.115152597E0
2.191731250E0;1.029309464E1;-6.098654270E0;1.109827399E0
2.203650000E0;1.050694466E1;-6.251969337E0;-1.016587615E0
2.215554688E0;1.082481861E1;-4.909339428E0;-3.758896515E-2
2.227465625E0;7.460667610E0;-5.598831177E0;4.630864859E-1
2.239378125E0;4.600420475E0;-5.633853436E0;-1.003189683E0
2.251289063E0;1.540323973E0;-5.340161800E0;-3.871711493E0
2.263206250E0;9.780218005E-1;-4.509536266E0;-4.424618721E0
2.275135938E0;4.701091766E0;-3.228743792E0;-3.289499044E0
2.287023438E0;5.700575352E0;-2.573948622E0;-3.301038980E0
2.298935938E0;5.349345684E0;-2.947846413E0;-2.994849443E0
2.310846875E0;4.202858448E0;-3.891152382E0;-2.648638248E0
2.322765625E0;3.707373619E0;-4.424887180E0;-2.778289080E0
2.334670313E0;5.378124237E0;-4.991086960E0;-1.555417061E0
2.346581250E0;7.002388477E0;-6.248043060E0;7.908048034E-1
2.358493750E0;7.444032669E0;-7.918123245E0;3.802940369E0
2.370404688E0;8.691784859E0;-8.348245621E0;4.691859245E0
2.382317188E0;9.252747536E0;-7.771023273E0;3.960411787E0
2.394256250E0;9.672497749E0;-6.419908047E0;3.335764647E0
2.406140625E0;1.002023220E1;-5.534484386E0;3.104341030E0
2.418051563E0;8.821196556E0;-5.190945148E0;2.775799036E0
2.429964063E0;8.291187286E0;-5.904158592E0;2.605169296E0
2.441878125E0;6.445248604E0;-8.379159927E0;3.247581244E0
2.453787500E0;4.258920670E0;-1.073092651E1;3.854779482E0
2.465696875E0;4.307800770E0;-1.041529465E1;2.532988787E0
2.477609375E0;9.579086304E0;-6.975975990E0;-1.301583886E0
2.489521875E0;1.629598045E1;-5.339088917E0;-7.846344948E0
2.501432813E0;1.748131180E1;-7.555803776E0;-1.010509205E1
2.513343750E0;1.163269806E1;-1.110299492E1;-3.317463398E0
2.525256250E0;6.637445450E0;-1.447558308E1;-2.024249732E-1
2.537167188E0;5.252112389E0;-1.233211136E1;3.980599642E-1
2.549079688E0;3.236721277E0;-9.471691132E0;6.289567947E-1
2.560992188E0;2.314398289E0;-7.780887127E0;-3.710246682E-1
2.572903125E0;2.407676220E0;-7.491342068E0;-1.040165782E0
2.584814063E0;2.877399445E0;-9.590539932E0;-2.064213514E0
2.596725000E0;3.019500256E0;-8.667124748E0;-5.842139125E-1
2.608637500E0;2.779294729E0;-7.935849667E0;1.050221324E0
2.620548438E0;2.407139778E0;-7.738089085E0;1.934763908E0
2.632475000E0;2.476380348E0;-7.013555050E0;2.097512245E0
2.644371875E0;3.002491713E0;-7.103280067E0;1.282554746E0
2.656282813E0;3.001112700E0;-8.343677521E0;-6.347028613E-1
2.668195313E0;2.721240044E0;-8.987488747E0;-1.728029370E0
2.680106250E0;2.346231461E0;-9.340126038E0;-1.865341663E0
2.692018750E0;2.156601191E0;-9.786481857E0;-1.707602143E0
2.703932813E0;2.233790398E0;-1.150560474E1;-2.208459377E0
2.715840625E0;2.622541428E0;-1.132936192E1;-8.334982395E-1
2.727751563E0;2.784513950E0;-1.022949505E1;5.508866310E-1
2.739664063E0;3.240877628E0;-9.252612114E0;9.720458984E-1
2.751587500E0;3.981902122E0;-8.717776299E0;9.036004543E-1
2.763487500E0;4.270566463E0;-8.752818108E0;7.978724837E-1
2.775398438E0;4.237133980E0;-8.832277298E0;3.982323706E-1
2.787310938E0;3.944092989E0;-8.939709663E0;-2.015151680E-1
2.799221875E0;3.297533989E0;-6.844897747E0;-8.062330484E-1
2.811134375E0;3.367205381E0;-2.908773184E0;1.295990944E0
2.823045313E0;4.078905582E0;-6.841105938E0;-6.744945049E-2
2.834957813E0;4.113238335E0;-1.202437019E1;-2.057098150E0
2.846868750E0;2.872371674E0;-1.533130836E1;-7.559452653E-1
2.858779688E0;3.355195999E0;-1.409765339E1;5.523519516E-1
2.870692188E0;3.133828163E0;-1.161159039E1;2.012853384E0
2.882609375E0;2.532768488E0;-9.921159744E0;3.686706781E0
2.894515625E0;3.222518682E0;-1.000780201E1;5.099439144E0
2.906426563E0;3.299382210E0;-1.069755173E1;6.812844872E-1
2.918340625E0;3.332134962E0;-1.122126007E1;-3.122230470E-1
2.930250000E0;4.168209553E0;-1.126792717E1;-7.668915391E-1
2.942175000E0;6.217760563E0;-1.122064686E1;-6.225116253E-1
2.954073438E0;8.431459427E0;-1.080577946E1;-2.359246314E-1
2.965984375E0;1.066822720E1;-1.049928284E1;-1.088270068E0
2.977915625E0;9.578530312E0;-1.241144657E1;-2.352149963E0
2.989834375E0;7.384158611E0;-1.168759251E1;-4.924968481E-1
3.001718750E0;5.287039280E0;-1.110264206E1;1.020217240E-1
3.013631250E0;4.615599632E0;-1.079960251E1;1.656165004E0
3.025542188E0;3.262942553E0;-9.793472290E0;2.337258101E0
3.037454688E0;2.740949154E0;-8.795214653E0;1.729561806E0
3.049376563E0;2.907058954E0;-7.592387199E0;-2.474551052E-1
3.061276563E0;3.776680946E0;-6.627370834E0;-2.561834335E0
3.073189063E0;4.732398510E0;-5.581831932E0;-3.743803740E0
3.085100000E0;5.898833752E0;-4.499499798E0;-1.498751044E0
3.097012500E0;7.745826721E0;-5.037065506E0;2.474742532E-1
3.108923438E0;5.093989849E0;-5.982841969E0;7.354508638E-1
3.120834375E0;4.106458187E0;-6.775370598E0;-3.386933506E-1
3.132746875E0;5.142534733E0;-7.461021900E0;-6.372694969E-1
3.144657813E0;6.900874615E0;-8.220060349E0;-5.331408232E-2
3.156582813E0;8.593105316E0;-8.218787193E0;1.438819408E0
3.168481250E0;1.022960091E1;-8.479812622E0;-2.683325410E-1
3.180392188E0;1.188405037E1;-7.431707382E0;-1.550207257E0
3.192304688E0;1.427353096E1;-5.949945927E0;-1.552266359E0
3.204215625E0;1.504415798E1;-5.118037224E0;5.860047787E-2
3.216135938E0;1.362464523E1;-5.153260708E0;4.470549226E-1
3.228039063E0;1.224899387E1;-4.579724789E0;2.790585756E-1
3.239950000E0;1.114784336E1;-2.780961037E0;1.570893168E0
3.251867188E0;1.018784523E1;-1.382651448E0;-3.149907589E-1
3.263773438E0;8.370857239E0;-3.600592017E-1;-1.684205890E0
3.275685938E0;6.573395729E0;-4.671087563E-1;1.493828654E0
3.287598438E0;4.699932575E0;-5.652327538E-1;2.902270555E0
3.299507813E0;4.262962341E0;8.651687950E-2;1.055258751E0
3.311420313E0;4.906351566E0;1.757018447E0;-6.387059689E-1
3.323332813E0;5.515608788E0;3.287957191E0;-6.188819408E-1
3.335243750E0;5.727552891E0;4.201498508E0;5.087391138E-1
3.347171875E0;5.384923458E0;4.502717972E0;1.033337507E-2
3.359067188E0;5.788030148E0;5.010173321E0;2.968905866E-1
3.370978125E0;7.625101566E0;3.799129009E0;6.723493338E-1
3.382889063E0;8.520149231E0;3.785960674E0;5.232767463E-1
3.394804688E0;8.440432549E0;2.972477913E0;1.282334447E0
3.406712500E0;9.933600426E0;1.370153874E-1;-4.883884192E-1
3.418625000E0;8.780820847E0;-1.571247578E0;6.320692482E-4
3.430535938E0;9.430119514E0;-2.384825945E0;9.294003844E-1
3.442448438E0;7.421373844E0;-2.860333443E0;2.600581884E0
3.454364063E0;5.905077934E0;-3.190130234E0;2.459659100E0
3.466271875E0;2.731401026E-1;-7.654742002E-1;7.552451611E0
3.478182813E0;1.163031387E1;-9.292136192E0;7.143148780E-1
3.490095313E0;1.157789898E1;-5.342201233E0;3.264771700E0
3.502006250E0;9.670985222E0;-6.819462299E0;7.753095627E-1
3.513917188E0;1.057681751E1;-8.272417068E0;2.155116796E0
3.525839063E0;1.340104580E1;-7.522352219E0;-2.257827967E-1
3.537740625E0;1.260683250E1;-2.727665901E-1;-9.853097796E-1
3.549653125E0;1.147300529E1;2.570204258E0;-1.492775202E0
3.561564063E0;9.848720551E0;-2.029900074E0;-2.372299671E0
3.573476563E0;1.341961479E1;-3.750833035E0;-3.583669901E0
3.585396875E0;1.286557770E1;-3.291280270E0;-1.528707385E0
3.597298438E0;1.479434681E1;1.225323677E0;-5.424360752E0
3.609209375E0;1.481661320E1;1.832454920E0;8.838339448E-1
3.621121875E0;1.094815731E1;1.282937765E0;4.836392403E0
3.633053125E0;9.652683258E0;1.679858208E0;4.635088444E0
3.644945313E0;8.820372581E0;1.254906535E0;3.113228321E0
3.656856250E0;8.317523003E0;8.645079136E-1;1.239880443E0
3.668767188E0;8.419075966E0;2.654595077E-1;9.533711523E-2
3.680679688E0;7.320740700E0;-3.079901077E-2;2.120860577E0
3.692590625E0;6.225163937E0;1.343185425E0;2.896275282E0
3.704501563E0;9.442004204E0;1.690612912E0;7.007828355E-1
3.716414063E0;1.198257732E1;1.836400628E0;-9.348782897E-1
3.728326563E0;1.271595001E1;2.420633793E0;-2.216571093E0
3.740237500E0;1.240766335E1;2.116656303E0;-2.395101786E0
3.752148438E0;8.985525131E0;1.164903522E0;-1.205710411E0
3.764070313E0;6.814807415E0;3.359649181E0;-1.468459725E0
3.775971875E0;5.497154236E0;5.991528034E0;-2.378419161E0
3.787882813E0;9.302833557E0;6.652691364E0;-2.632769585E0
3.799795313E0;1.365685272E1;5.611664295E0;-1.161130428E0
3.811707813E0;1.170834541E1;3.587969780E0;1.582854688E-1
3.823618750E0;9.768888474E0;3.114176512E0;2.645975947E-1
3.835529688E0;8.682084084E0;2.451825380E0;1.439106762E-1
3.847442188E0;8.156346321E0;9.089921713E-1;9.687131643E-1
3.859353125E0;7.806667805E0;-5.453225374E-1;1.542699099E0
3.871264063E0;8.608974457E0;3.817794025E-1;3.908773661E-1
3.883176563E0;9.055789948E0;1.956512928E0;1.280208349E0
3.895089063E0;9.181955338E0;1.628248692E0;1.443990946E0
3.907007813E0;8.856419563E0;1.880453825E0;-1.120524645E0
3.918912500E0;9.236887932E0;3.627148390E0;-5.172634125E0
3.930823438E0;9.966467857E0;4.814720631E0;-5.868858814E0
3.942751563E0;1.280679607E1;5.217032909E0;-4.487998009E0
3.954646875E0;1.365431404E1;5.042696476E0;-2.330525398E0
3.966557813E0;1.107435989E1;2.752718925E0;-6.478326917E-1
3.978470313E0;8.812740326E0;8.908345699E-1;-7.759990692E-1
3.990387500E0;8.979396820E0;9.729173779E-1;-1.072994947E0
4.002292188E0;9.166565895E0;7.476134300E-1;-1.513671756E0
4.014204688E0;1.105613613E1;1.345445514E0;-1.720387220E0
4.026115625E0;1.453546715E1;1.609688878E0;-7.962157130E-1
4.038026563E0;1.421807194E1;-3.143491149E-1;-4.446511343E-2
4.049971875E0;9.294204712E0;2.593111992E-1;-7.097850442E-1
4.061867188E0;8.510037422E0;2.780166149E0;-1.902547598E0
4.073762500E0;9.425560951E0;4.899513721E0;-2.071080208E0
4.085673438E0;1.006331825E1;7.401320457E0;-2.093250513E0
4.097584375E0;7.284731865E0;7.628664017E0;-3.193290472E0
4.109498438E0;6.664710522E0;5.926492214E0;-3.438887596E0
4.121417188E0;6.772804260E0;3.367157459E0;-2.411238670E0
4.133320313E0;7.631316662E0;3.713636637E0;1.196018696E0
4.145231250E0;7.635530949E0;4.003067017E0;1.827446342E0
4.157142188E0;1.369952679E0;1.226884723E0;-3.497066796E-1
4.169054688E0;4.887274265E0;5.817814469E-1;-8.400200009E-1
4.180965625E0;6.270289421E0;-2.645401359E-1;1.048842311E0
4.192881250E0;5.046105385E0;-2.148298025E0;3.445342541E0
4.204795313E0;6.114915371E0;-2.801800251E0;4.728050232E0
4.216700000E0;1.020268917E1;-7.716129422E-1;4.975505352E0
4.228625000E0;1.261843872E1;8.316403031E-1;2.566344738E0
4.240534375E0;1.429898643E1;2.198470831E0;-8.501331508E-2
4.252435938E0;1.515142727E1;4.291903496E0;-1.981355071E0
4.264346875E0;1.506681633E1;5.237737656E0;-5.193770409E0
4.276257813E0;1.231692314E1;4.623864174E0;-4.715715408E0
4.288170313E0;8.526000977E0;1.265373945E0;-3.816213846E0
4.300082813E0;6.266257763E0;-1.740172863E0;-3.586083174E0
4.311993750E0;7.450746059E0;-3.197025359E-1;-3.054081917E0
4.323904688E0;7.889009953E0;2.132908106E0;-1.482872844E0
4.335817188E0;8.797609329E0;3.812354565E0;-7.238054872E-1
4.347743750E0;9.907580376E0;4.450026035E0;7.948749512E-2
4.359639063E0;1.036564827E1;4.303089142E0;9.346579909E-1
4.371554688E0;1.037148094E1;3.275641441E0;-7.935724854E-1
4.383462500E0;1.033873749E1;2.368583679E0;-2.628038645E0
4.395375000E0;1.019108200E1;-5.510877967E-1;-1.932714462E0
4.407287500E0;1.053181553E1;-2.588955641E0;-2.238731861E0
4.419218750E0;1.210143471E1;-2.215144157E0;-1.616957664E0
4.431109375E0;1.602382660E1;-7.069885731E-1;9.069810510E-1
4.443021875E0;1.872277069E1;3.178063333E-1;4.578432083E0
4.454932813E0;1.220632076E1;-2.518087149E0;4.372310162E0
4.466843750E0;1.130482674E1;-3.895682096E0;7.027269006E-1
4.478773438E0;1.146346664E1;-3.774219513E0;-1.076691628E0
4.490667188E0;1.030091858E1;-3.062988520E0;-1.063207507E0
4.502579688E0;9.615018845E0;-3.970802784E0;-6.809396744E-1
4.514490625E0;8.199336052E0;-2.345139742E0;-2.346853971E0
4.526401563E0;6.652184010E0;-2.686868906E-1;-3.478976011E0
4.538323438E0;4.885157585E0;1.436846733E0;-3.318114519E0
4.550225000E0;3.630366564E0;2.391673326E0;-2.277451038E0
4.562137500E0;3.531313419E0;2.487738371E0;-5.552249551E-1
4.574048438E0;4.002454281E0;1.988470674E0;1.839752436E0
4.585973438E0;4.604653358E0;1.450158477E0;4.236951828E0
4.597871875E0;5.824862957E0;1.134784579E0;6.317062855E0
4.609784375E0;8.640683174E0;1.263812900E0;7.465466022E0
4.621695313E0;1.765318680E1;2.972794056E0;8.336658478E0
4.633606250E0;2.595484161E1;2.135953665E0;6.224876404E0
4.645517188E0;1.584163761E1;-4.806752205E0;7.763821483E-1
4.657443750E0;1.148389339E1;-6.450602055E0;-2.433945537E-1
4.669340625E0;1.080212116E1;-5.581343651E0;1.886247844E-1
4.681257813E0;9.993839264E0;-4.758102417E0;4.119559228E-1
4.693164063E0;9.599552155E0;-4.282451153E0;1.215871349E-1
4.705076563E0;9.570696831E0;-3.665867567E0;6.685377359E-1
4.716987500E0;9.307698250E0;-2.659067392E0;1.997338891E0
4.728898438E0;9.232424736E0;-1.759795666E0;2.321178436E0
4.740812500E0;1.031532192E1;-8.187403679E-1;1.819535851E0
4.752721875E0;1.113741398E1;-4.569669068E-1;1.189947009E0
4.764632813E0;1.177161884E1;-5.563167110E-2;8.120557666E-1
4.776545313E0;1.206011105E1;4.765036106E-1;4.159685969E-1
4.788457813E0;1.196885395E1;1.086297274E0;-7.626011372E-1
4.800368750E0;1.146239376E1;1.229451299E0;-1.642489433E0
4.812281250E0;1.049723339E1;1.091554761E0;-1.780797601E0
4.824192188E0;9.444656372E0;1.576897860E0;-1.082313180E0
4.836103125E0;8.756811142E0;1.246220350E0;-7.520954013E-1
4.848014063E0;8.900042534E0;5.180094764E-2;-5.884565115E-1
4.859926563E0;9.268577576E0;-9.453074336E-1;-2.578842342E-1
4.871837500E0;9.714635849E0;-1.669840813E0;-1.330601573E-1
4.883750000E0;9.400344849E0;-2.283311844E0;-1.129967421E-1
4.895660938E0;9.344204903E0;-3.275583982E0;9.093273878E-1
4.907579688E0;1.000776291E1;-3.188166857E0;2.020265818E0
4.919484375E0;1.010648060E1;-3.320595026E0;2.640986443E0
4.931395313E0;9.915902138E0;-3.333868504E0;2.024891376E0
4.943309375E0;8.852014542E0;-3.261697531E0;2.569543362E0
4.955231250E0;9.188755035E0;-2.546147108E0;2.920054674E0
4.967131250E0;9.426594734E0;-1.991228938E0;2.817439318E0
4.979042188E0;9.723407745E0;-1.637365818E0;2.486072063E0
4.990954688E0;1.000070477E1;-1.373735428E0;1.850181699E0
5.002865625E0;1.010194111E1;-1.260298252E0;1.479616642E0
5.014781250E0;1.025486469E1;-1.256764412E0;1.220611930E0
5.026689063E0;1.028976154E1;-1.296536922E0;1.107883334E0
5.038600000E0;1.022465801E1;-1.296172976E0;9.543766975E-1
5.050512500E0;9.986186981E0;-1.316370368E0;7.578127384E-1
5.062423438E0;9.764664650E0;-1.258938193E0;6.216592193E-1
5.074343750E0;9.620294571E0;-1.133941770E0;5.272511244E-1
5.086246875E0;9.626453400E0;-1.082686782E0;4.441914558E-1
5.098157813E0;9.509386063E0;-1.252081275E0;4.007223248E-1
5.110070313E0;9.548181534E0;-1.368860841E0;4.703648686E-1
5.121985938E0;9.548488617E0;-1.280131698E0;3.697221875E-1
5.133920313E0;9.475542068E0;-1.157721043E0;1.981154084E-1
5.145804688E0;9.381086349E0;-1.033011794E0;1.660905629E-1
5.157715625E0;9.481871605E0;-8.780686855E-1;1.993891150E-1
5.169628125E0;9.419422150E0;-7.621989250E-1;1.939494908E-1
5.181539063E0;9.509664536E0;-5.908506513E-1;1.282813251E-1
5.193470313E0;9.560737610E0;-4.880436361E-1;1.315566003E-1
5.205362500E0;9.789747238E0;-4.714374840E-1;8.976341039E-2
5.217273438E0;9.976963997E0;-5.181627274E-1;7.161536068E-2
5.229185938E0;1.010198879E1;-6.605027914E-1;6.583096832E-2
5.241103125E0;1.019599533E1;-9.051039815E-1;-1.040998939E-2
5.253015625E0;1.024236584E1;-1.143183470E0;-9.279925376E-2
5.264920313E0;1.031605911E1;-1.414369822E0;-1.287601590E-1
5.276831250E0;1.044822979E1;-1.541272044E0;-7.990887761E-2
5.288743750E0;1.064956284E1;-1.621516228E0;7.455544174E-2
5.300654688E0;1.071947289E1;-1.526274920E0;1.009874269E-1
5.312567188E0;1.058464146E1;-1.370067477E0;2.550686896E-1
5.324478125E0;1.036235332E1;-1.134181261E0;4.615446031E-1
5.336390625E0;9.961048126E0;-8.313913345E-1;5.931491256E-1
5.348301563E0;9.328805923E0;-5.446042418E-1;6.992313862E-1
5.360220313E0;8.536076546E0;-3.024930060E-1;1.045260668E0
5.372140625E0;7.742647171E0;-2.633621693E-1;1.362817883E0
5.384037500E0;7.308415413E0;-3.718865514E-1;1.732118726E0
5.395948438E0;7.501062393E0;-5.949112773E-1;2.152167082E0
5.407859375E0;8.365809441E0;-8.041357398E-1;2.770062685E0
5.419771875E0;9.419986725E0;-1.217691064E0;3.529187441E0
5.431682813E0;1.036954594E1;-1.506479621E0;4.117318153E0
5.443595313E0;1.052043819E1;-1.900421500E0;4.505121708E0
5.455506250E0;1.027897835E1;-2.098163366E0;4.629514694E0
5.467417188E0;1.019851398E1;-1.518900752E0;3.921893835E0
5.479329688E0;1.007390022E1;-3.160920739E-1;2.738373041E0
5.491240625E0;9.857331276E0;4.301326871E-1;1.530852556E0
5.503151563E0;1.022535706E1;9.689142704E-1;8.426153660E-1
5.515064063E0;1.088323593E1;1.254705310E0;4.584034383E-1
5.526975000E0;1.134880352E1;1.141114831E0;5.130583048E-1
5.538893750E0;1.128701401E1;8.632437587E-1;4.348827899E-1
5.550798438E0;1.063991928E1;4.336282313E-1;1.874755770E-1
5.562709375E0;9.943196297E0;-3.712927923E-2;2.013332099E-1
5.574621875E0;9.738702774E0;-2.590239048E-1;4.807748497E-1
5.586532813E0;9.910443306E0;-1.134755835E-1;8.496543169E-1
5.598453125E0;1.034733772E1;1.177947223E-1;1.122066498E0
5.610371875E0;1.053393173E1;3.417483568E-1;1.175677538E0
5.622267188E0;1.050749016E1;4.714566469E-1;1.167786241E0
5.634179688E0;1.033698559E1;4.980322719E-1;1.264502406E0
5.646090625E0;1.010704613E1;4.771835506E-1;1.405731559E0
5.658003125E0;9.908940315E0;2.366237491E-1;1.433762908E0
5.669914063E0;9.900713921E0;-9.634267539E-3;1.330065131E0
5.681825000E0;9.962522507E0;-1.639932394E-1;1.133118153E0
5.693737500E0;1.005512047E1;-1.105546579E-1;7.218230367E-1
5.705648438E0;1.013375568E1;-3.678451478E-2;3.593313694E-1
5.717560938E0;1.019820690E1;1.140406206E-1;8.051221818E-2
5.729489063E0;1.011244774E1;2.758216262E-1;-6.632896513E-2
5.741382813E0;9.865001678E0;2.873999774E-1;-2.892195713E-3
5.753295313E0;9.607222557E0;2.288282216E-1;1.130542085E-1
5.765206250E0;9.211882591E0;-2.947741188E-2;4.374685287E-1
5.777123438E0;8.939451218E0;-2.644826770E-1;5.507717133E-1
5.789035938E0;8.809857368E0;-4.417589307E-1;6.565954685E-1
5.800943750E0;8.870727539E0;-5.450735688E-1;7.594886422E-1
5.812853125E0;9.144021034E0;-5.963956118E-1;6.456108689E-1
5.824764063E0;9.433001518E0;-3.778624833E-1;5.772611499E-1
5.836684375E0;9.720190048E0;8.920795470E-2;6.292920113E-1
5.848587500E0;9.886712074E0;7.079079747E-1;9.329342246E-1
5.860500000E0;9.891663551E0;1.071405292E0;1.334144950E0
5.872410938E0;1.003439617E1;1.169012070E0;1.705035567E0
5.884323438E0;1.022218704E1;1.098038316E0;1.847155452E0
5.896234375E0;1.020877075E1;8.833167553E-1;1.705064178E0
5.908162500E0;1.022556877E1;7.578031421E-1;1.282918572E0
5.920057813E0;1.015375233E1;6.393093467E-1;1.193806410E0
5.931968750E0;1.032227516E1;5.437232256E-1;1.037761927E0
5.943881250E0;1.045290279E1;6.667085290E-1;9.566272497E-1
5.955792188E0;1.062031460E1;9.834327102E-1;1.002595901E0
5.967703125E0;1.099641514E1;1.165612340E0;1.317213178E0
5.979615625E0;1.197873688E1;1.177075863E0;1.658655047E0
5.991526563E0;1.302331734E1;1.031948805E0;1.845508218E0
6.003439063E0;1.253759193E1;1.044101834E0;1.952988625E0
6.015353125E0;1.037544537E1;9.121525288E-1;2.019652843E0
6.027262500E0;9.253225327E0;7.833732367E-1;2.037159204E0
6.039176563E0;9.870660782E0;7.199077010E-1;2.074930191E0
6.051084375E0;1.068646145E1;6.535021067E-1;2.056906462E0
6.062996875E0;1.077248001E1;4.736018479E-1;2.284231186E0
6.074907813E0;1.081277084E1;3.690231144E-1;2.436770439E0
6.086843750E0;1.112323189E1;5.783912539E-1;2.382422209E0
6.098731250E0;1.116592503E1;8.039059043E-1;2.592202187E0
6.110642188E0;1.119322872E1;8.793136477E-1;2.917315722E0
6.122554688E0;1.081420708E1;6.363213658E-1;3.107415199E0
6.134467188E0;9.897889137E0;1.503941864E-1;2.830339193E0
6.146378125E0;9.347854614E0;-3.798831999E-1;2.234604359E0
6.158289063E0;9.378931046E0;-8.732802868E-1;1.541406274E0
6.170209375E0;9.543584824E0;-1.325688601E0;1.171454072E0
6.182112500E0;9.492242813E0;-1.616124511E0;1.092091203E0
6.194023438E0;9.432053566E0;-1.626113057E0;1.285772443E0
6.205934375E0;9.402949333E0;-1.469254494E0;1.791198134E0
6.217862500E0;9.365188599E0;-1.360366225E0;2.206027031E0
6.229757813E0;9.152343750E0;-1.416256428E0;2.564841270E0
6.241668750E0;8.950416565E0;-1.647057533E0;2.846801519E0
6.253581250E0;8.700394630E0;-1.884322882E0;2.983127356E0
6.265492188E0;8.495441437E0;-2.185264349E0;3.026855230E0
6.277404688E0;8.572630882E0;-2.437431335E0;2.903381348E0
6.289315625E0;8.887726784E0;-2.300320387E0;2.887541294E0
6.301228125E0;9.216451645E0;-2.133616686E0;2.931556463E0
6.313146875E0;9.923449516E0;-1.799405336E0;2.582874298E0
6.325068750E0;1.056573677E1;-1.424406409E0;2.369531631E0
6.336970313E0;1.078355217E1;-1.086699486E0;2.160699844E0
6.348878125E0;1.025488281E1;-1.043297410E0;1.677463889E0
6.360785938E0;9.504597664E0;-1.246268153E0;1.357713461E0
6.372696875E0;8.846690178E0;-1.371906281E0;1.475584865E0
6.384609375E0;8.513512611E0;-1.583898544E0;1.711538196E0
6.396521875E0;8.447633743E0;-1.765149117E0;2.057347059E0
6.408432813E0;8.660459518E0;-1.831478119E0;2.345216274E0
6.420343750E0;9.046222687E0;-1.745353937E0;2.323907852E0
6.432262500E0;9.244894028E0;-1.653062224E0;2.018561125E0
6.444171875E0;9.206989288E0;-1.668653250E0;1.629982114E0
6.456078125E0;9.150294304E0;-1.745976329E0;1.467482805E0
6.467990625E0;9.069121361E0;-1.807200909E0;1.487603784E0
6.479901563E0;9.190966606E0;-1.831133246E0;1.521515131E0
6.491837500E0;9.500853539E0;-1.955105066E0;1.705246210E0
6.503734375E0;9.978055954E0;-2.031327009E0;1.986066937E0
6.515637500E0;1.024300766E1;-1.921040416E0;2.026346922E0
6.527548438E0;1.028746319E1;-1.677760720E0;1.800746083E0
6.539459375E0;1.025823498E1;-1.434011817E0;1.583611250E0
6.551376563E0;1.009966183E1;-1.171703100E0;1.685881972E0
6.563282813E0;9.776214600E0;-8.653793931E-1;1.887176752E0
6.575201563E0;9.578598022E0;-4.851610363E-1;1.915179491E0
6.587106250E0;9.617507935E0;-1.066856310E-1;1.761548162E0
6.599018750E0;9.793003082E0;1.824573278E-1;1.653014302E0
6.610931250E0;1.009031582E1;4.012777805E-1;1.675864577E0
6.622840625E0;1.016464043E1;6.060490608E-1;1.710570931E0
6.634753125E0;9.797666550E0;4.616691172E-1;1.889436841E0
6.646664063E0;9.356588364E0;2.647891343E-1;2.271992207E0
6.658575000E0;9.131303787E0;2.464974374E-1;2.325488091E0
6.670493750E0;8.866006851E0;4.476103783E-1;2.314570665E0
6.682425000E0;8.735158920E0;7.176476121E-1;2.392506599E0
6.694310938E0;8.720046997E0;9.471461773E-1;2.596262693E0
6.706221875E0;8.949535370E0;1.213170767E0;2.937551498E0
6.718132813E0;9.439254761E0;1.526772857E0;3.198481083E0
6.730043750E0;1.005345440E1;1.679934740E0;3.404880285E0
6.741965625E0;1.065139198E1;1.744156718E0;3.221829414E0
6.753871875E0;1.086420727E1;1.649260283E0;2.899751663E0
6.765779688E0;1.073735237E1;1.460463047E0;2.290245295E0
6.777690625E0;1.037582779E1;1.315997005E0;1.814900637E0
6.789607813E0;9.920048714E0;1.225917459E0;1.736207962E0
6.801535938E0;9.590932846E0;1.033844948E0;1.601682663E0
6.813426563E0;9.387224197E0;8.987545967E-1;1.569054484E0
6.825337500E0;9.115789413E0;5.661329627E-1;1.570117474E0
6.837250000E0;9.185766220E0;1.768453270E-1;1.597660422E0
6.849167188E0;9.694765091E0;-1.177851483E-1;1.771575212E0
6.861100000E0;1.004959488E1;-2.272671908E-1;2.024661541E0
6.872984375E0;1.033532810E1;-2.141661346E-1;1.975963354E0
6.884898438E0;1.051777649E1;1.083519906E-1;1.769583225E0
6.896807813E0;1.040496063E1;6.117855906E-1;1.434318304E0
6.908718750E0;1.023812389E1;1.103956819E0;1.021328092E0
6.920631250E0;1.015243053E1;1.330524921E0;7.045752406E-1
6.932542188E0;1.000344467E1;1.321024776E0;4.842607975E-1
6.944460938E0;9.810710907E0;1.116234303E0;3.950432837E-1
6.956365625E0;9.707759857E0;6.775878072E-1;5.633364916E-1
6.968276563E0;9.976092339E0;4.919413924E-1;9.336620569E-1
6.980187500E0;1.036453724E1;4.141202569E-1;1.037321448E0
6.992118750E0;1.067616653E1;5.420567989E-1;1.083941340E0
7.004010938E0;1.093493176E1;8.194586039E-1;1.102213860E0
7.015923438E0;1.093260479E1;1.134200454E0;1.364101171E0
7.027834375E0;1.042426777E1;1.137427688E0;1.742710710E0
7.039764063E0;9.530110359E0;8.341015577E-1;1.924277306E0
7.051657813E0;8.934490204E0;4.493629038E-1;2.035808802E0
7.063568750E0;8.765651703E0;2.161485329E-2;2.307081461E0
7.075481250E0;9.097315788E0;-1.195089743E-1;2.686543226E0
7.087392188E0;9.529325485E0;-1.317768544E-2;2.834572077E0
7.099304688E0;9.672920227E0;1.547995061E-1;2.686773300E0
7.111215625E0;9.692207336E0;2.777178288E-1;2.371801615E0
7.123126563E0;9.810768127E0;2.761376202E-1;1.680643439E0
7.135039063E0;1.003904057E1;1.468603313E-1;9.890829921E-1
7.146950000E0;1.023634243E1;1.329835355E-1;5.831509233E-1
7.158879688E0;1.025183773E1;2.214732319E-1;4.026185274E-1
7.170773438E0;1.013124657E1;3.709193170E-1;4.347678721E-1
7.182685938E0;1.002554703E1;4.882256091E-1;7.560697794E-1
7.194596875E0;9.962560654E0;5.115355253E-1;1.136240244E0
7.206507813E0;9.838214874E0;4.071387947E-1;1.511880875E0
7.218425000E0;9.676970482E0;3.117729425E-1;1.834992766E0
7.230331250E0;9.509481430E0;1.063600183E-1;2.066291809E0
7.242243750E0;9.507068634E0;-9.379523993E-2;2.275813341E0
7.254154688E0;9.670075417E0;-2.310691923E-1;2.415567636E0
7.266065625E0;9.736786842E0;-2.836458683E-1;2.328303814E0
7.277995313E0;9.810154915E0;-2.697499096E-1;2.175438643E0
7.289889063E0;9.853183746E0;-2.098469883E-1;1.960448980E0
7.301801563E0;9.950599670E0;-7.014053315E-2;1.685766935E0
7.313712500E0;9.919867516E0;5.526775494E-2;1.401125073E0
7.325631250E0;9.816610336E0;4.906198010E-2;1.140214562E0
7.337553125E0;9.805769920E0;1.155920550E-1;1.097368002E0
7.349448438E0;9.846863747E0;5.244259164E-2;1.118015647E0
7.361359375E0;9.828427315E0;-2.212242456E-3;1.145117879E0
7.373270313E0;9.763391495E0;-5.063257739E-2;1.291825056E0
7.385189063E0;9.686901093E0;1.184650976E-2;1.534826875E0
7.397095313E0;9.685120583E0;7.694006711E-2;1.726094961E0
7.409006250E0;9.817079544E0;1.343434453E-1;1.884140968E0
7.420917188E0;9.846681595E0;7.292738557E-2;1.951063752E0
7.432829688E0;9.770287514E0;-8.157524467E-2;1.932963490E0
7.444740625E0;9.872634888E0;-2.518987358E-1;1.909069419E0
7.456660938E0;9.961229324E0;-4.031260908E-1;1.796455741E0
7.468564063E0;9.999124527E0;-3.905038834E-1;1.665109873E0
7.480475000E0;9.911449432E0;-2.549824715E-1;1.623939037E0
7.492387500E0;9.763688087E0;-1.030751690E-1;1.537489295E0
7.504301563E0;9.642331123E0;5.543055758E-2;1.511229753E0
7.516209375E0;9.483212471E0;7.060021907E-2;1.651051044E0
7.528125000E0;9.483183861E0;-5.988377333E-2;1.856349111E0
7.540037500E0;9.603075981E0;-2.560646534E-1;1.985626340E0
7.551945313E0;9.755002975E0;-3.604039550E-1;2.027036428E0
7.563854688E0;9.907781601E0;-4.692347944E-1;2.016262531E0
7.575785938E0;9.996519089E0;-4.419600666E-1;1.877360582E0
7.587679688E0;9.939845085E0;-3.709384501E-1;1.614295244E0
7.599590625E0;9.868889809E0;-2.034688443E-1;1.400234461E0
7.611503125E0;9.780811310E0;-8.125920594E-2;1.335035682E0
7.623414063E0;9.646880150E0;-1.806185767E-2;1.411650062E0
7.635325000E0;9.565458298E0;-1.546462774E-1;1.626093864E0
7.647237500E0;9.564011574E0;-4.689187706E-1;1.791188478E0
7.659148438E0;9.618580818E0;-7.883914709E-1;1.922668457E0
7.671059375E0;9.838233948E0;-9.423769712E-1;2.101706743E0
7.682978125E0;1.003569794E1;-9.579488635E-1;2.149657965E0
7.694892188E0;9.994317055E0;-7.734708190E-1;2.147972345E0
7.706795313E0;9.733464241E0;-5.498619676E-1;2.000355482E0
7.718706250E0;9.453055382E0;-3.564296067E-1;1.913130045E0
7.730618750E0;9.484677315E0;-3.309935927E-1;1.994810581E0
7.742529688E0;9.580484390E0;-4.415099621E-1;2.026567221E0
7.754456250E0;9.732027054E0;-6.404106617E-1;2.060718060E0
7.766353125E0;9.938225746E0;-7.592109442E-1;1.931977153E0
7.778265625E0;1.009217262E1;-8.260378838E-1;1.652583361E0
7.790176563E0;1.027649784E1;-8.620371222E-1;1.413143992E0
7.802089063E0;1.037468815E1;-7.828561068E-1;1.127870083E0
7.814026563E0;1.025402164E1;-6.082421541E-1;8.163748980E-1
7.825910938E0;1.018645668E1;-3.734475672E-1;7.220625281E-1
7.837823438E0;1.000498581E1;-9.332598001E-2;7.345602512E-1
7.849734375E0;9.883072853E0;1.471859366E-1;8.628032804E-1
7.861645313E0;9.727478981E0;2.949847877E-1;1.143930435E0
7.873556250E0;9.615803719E0;3.595133424E-1;1.328916073E0
7.885468750E0;9.580330849E0;2.100576758E-1;1.440217614E0
7.897381250E0;9.657338142E0;-3.104800731E-2;1.546328783E0
7.909292188E0;9.800818443E0;-2.837895155E-1;1.545955181E0
7.921210938E0;1.008508587E1;-5.171284080E-1;1.414513588E0
7.933115625E0;1.042051411E1;-5.885235071E-1;1.109070778E0
7.945026563E0;1.058173943E1;-6.235841513E-1;1.063475728E0
7.956939063E0;1.045492363E1;-6.139307618E-1;1.143250465E0
7.968850000E0;1.028058720E1;-5.350944996E-1;1.083443403E0
7.980762500E0;1.016439152E1;-3.485861719E-1;8.006018400E-1
7.992698438E0;1.004513168E1;-2.594644129E-1;5.493447781E-1
8.004585938E0;9.965921402E0;-4.197418392E-1;6.899706125E-1
8.016498438E0;9.888139725E0;-6.566624641E-1;6.488860846E-1
8.028407813E0;9.898366928E0;-8.712691665E-1;5.278640389E-1
8.040320313E0;9.996280670E0;-1.140367746E0;4.812536836E-1
8.052231250E0;1.013967419E1;-1.316245794E0;9.209536314E-1
8.064142188E0;1.019846535E1;-1.343415260E0;1.279921055E0
8.076054688E0;1.007617950E1;-1.017267585E0;1.264703512E0
8.087965625E0;9.897753716E0;-7.493181229E-1;1.414867878E0
8.099896875E0;9.708248138E0;-5.344241261E-1;1.632749796E0
8.111814063E0;9.594523430E0;-4.007797837E-1;1.611872315E0
8.123700000E0;9.688558578E0;-5.554451942E-1;1.378878117E0
8.135612500E0;9.845982552E0;-8.057541847E-1;1.133530021E0
8.147523438E0;1.017922688E1;-9.349836707E-1;9.903376102E-1
8.159434375E0;1.030874348E1;-9.086857438E-1;7.045944333E-1
8.171353125E0;1.042523575E1;-6.422110796E-1;3.457035720E-1
8.183257813E0;1.034490490E1;-3.904464245E-1;5.931873992E-2
8.195170313E0;1.025626183E1;-3.200568631E-2;-6.563943624E-2
8.207081250E0;1.006310749E1;1.415068954E-1;-1.392084658E-1
8.218998438E0;9.891251564E0;7.505343854E-2;-1.811165810E-1
8.230904688E0;9.840513229E0;-1.974641681E-1;-1.840853691E-1
8.242815625E0;9.804849625E0;-5.327768922E-1;6.142564118E-2
8.254728125E0;9.661091805E0;-8.027853966E-1;2.531628907E-1
8.266639063E0;9.587772369E0;-6.901046634E-1;6.039900780E-1
8.278557813E0;9.518972397E0;-4.086614847E-1;6.635865569E-1
8.290479688E0;9.579229355E0;-3.675099611E-1;4.928224683E-1
8.302373438E0;9.730322838E0;-4.247792661E-1;4.716960490E-1
8.314285938E0;9.892879486E0;-3.753629327E-1;4.685644209E-1
8.326198438E0;9.783090591E0;-4.931959808E-1;4.856494367E-1
8.338109375E0;9.746105194E0;-5.394711494E-1;3.299784660E-1
8.350031250E0;9.707970619E0;-7.528135777E-1;1.471189111E-1
8.361932813E0;9.783177376E0;-9.590884447E-1;2.655648626E-2
8.373845313E0;9.934969902E0;-9.473856091E-1;2.005766481E-1
8.385756250E0;9.913335800E0;-8.663466573E-1;1.603923589E-1
8.397679688E0;9.897974968E0;-7.875103951E-1;6.247908622E-2
8.409579688E0;9.854448318E0;-6.340324879E-1;6.484455615E-2
8.421490625E0;9.827959061E0;-6.912443042E-1;6.800490618E-2
8.433401563E0;9.927279472E0;-8.659827113E-1;-7.402871735E-3
8.445314063E0;1.016133690E1;-9.071438313E-1;3.215891495E-2
8.457225000E0;1.014543915E1;-1.273743987E0;-1.240196545E-2
8.469156250E0;1.029400349E1;-1.445561528E0;-2.111207098E-1
8.481048438E0;1.048181534E1;-7.807012796E-1;-1.167987362E-1
8.492960938E0;9.870450974E0;-1.236940399E-1;-2.727953494E-1
8.504871875E0;9.228747368E0;3.133626878E-1;-8.784804493E-2
8.516789063E0;8.951738358E0;5.372300744E-1;-1.925895922E-2
8.528693750E0;9.016975403E0;5.531755090E-1;1.543876976E-1
8.540606250E0;9.316173553E0;1.969278753E-1;7.399041206E-2
8.552517188E0;9.810959816E0;-3.604805768E-1;-1.822083294E-1
8.564428125E0;1.019628239E1;-7.582628131E-1;-5.827007890E-1
8.576340625E0;1.029202175E1;-1.154656529E0;-9.172761440E-1
8.588251563E0;1.015375233E1;-1.526782513E0;-9.318233132E-1
8.600164063E0;9.938694954E0;-1.709546208E0;-7.076302767E-1
8.612075000E0;9.629364014E0;-1.785566926E0;-6.173209548E-1
8.623985938E0;9.746450424E0;-1.494001031E0;-7.819558978E-1
8.635898438E0;9.765316010E0;-1.262414694E0;-7.356423736E-1
8.647809375E0;9.737898827E0;-1.076375604E0;-7.476517558E-1
8.659721875E0;9.694602013E0;-9.697570205E-1;-4.840405583E-1
8.671632813E0;9.614692688E0;-9.982289076E-1;-4.646092057E-1
8.683543750E0;9.782602310E0;-1.324089408E0;-7.213634253E-1
8.695462500E0;9.993723869E0;-1.658434868E0;-8.094604611E-1
8.707367188E0;1.009694195E1;-1.563011527E0;-8.173517585E-1
8.719281250E0;9.753584862E0;-1.263391495E0;-6.585299969E-1
8.731190625E0;9.280202866E0;-9.161652327E-1;-5.362628698E-1
8.743101563E0;9.043952942E0;-8.410064578E-1;-8.449233174E-1
8.755029688E0;9.134301186E0;-9.563016295E-1;-1.355118155E0
8.766926563E0;9.330825806E0;-9.857407212E-1;-1.569370508E0
8.778837500E0;9.371048927E0;-1.451834321E0;-1.655140400E0
8.790750000E0;9.433930397E0;-1.894369006E0;-1.646722436E0
8.802660938E0;9.320589066E0;-2.110852718E0;-1.407417059E0
8.814573438E0;9.012560844E0;-1.927638769E0;-1.296019673E0
8.826509375E0;8.736921310E0;-1.397361398E0;-1.024450183E0
8.838395313E0;8.612096786E0;-7.087794542E-1;-1.092091203E0
8.850307813E0;8.971150398E0;1.044638082E-1;-1.424214840E0
8.862218750E0;9.276659966E0;2.688401043E-1;-2.073675632E0
8.874137500E0;9.693998337E0;-4.971703589E-1;-2.862689495E0
8.886042188E0;1.006300163E1;-1.398807526E0;-3.422166586E0
8.897953125E0;1.006816387E1;-1.871288896E0;-3.436972380E0
8.909865625E0;9.855195045E0;-2.098086834E0;-3.235754013E0
8.921778125E0;9.588490486E0;-2.106265306E0;-3.084287405E0
8.933689063E0;9.310303688E0;-1.518967748E0;-2.881412029E0
8.945600000E0;9.176965714E0;-8.991089463E-1;-2.808714628E0
8.957515625E0;9.174887657E0;-7.230776548E-1;-2.814546824E0
8.969423438E0;9.666215897E0;-1.039303780E0;-3.075696707E0
8.981335938E0;1.067566872E1;-1.806683660E0;-2.780577898E0
8.993246875E0;1.219685841E1;-2.498425961E0;-2.307933807E0
9.005157813E0;1.346627331E1;-2.884390593E0;-2.573738098E0
9.017070313E0;1.267505646E1;-2.997540474E0;-2.851245165E0
9.028981250E0;1.058294582E1;-3.108765602E0;-2.566967249E0
9.040893750E0;9.700750351E0;-2.670980930E0;-1.983423710E0
9.052804688E0;9.243275642E0;-2.058094025E0;-1.276990652E0
9.064715625E0;8.649647713E0;-1.529933214E0;-1.047089696E0
9.076626563E0;8.348839760E0;-1.011119246E0;-1.729561806E0
9.088539063E0;8.697837830E0;-5.734974742E-1;-3.058755398E0
9.100450000E0;9.243735313E0;-8.722555637E-2;-4.172681808E0
9.112362500E0;9.709091187E0;1.368717253E-1;-4.554193020E0
9.124282813E0;1.095216084E1;-2.930502966E-2;-4.518260956E0
9.136189063E0;1.257594585E1;7.740933448E-2;-3.715331793E0
9.148096875E0;1.318359470E1;4.438849911E-2;-2.369225264E0
9.160007813E0;1.300088882E1;-7.777228951E-1;-1.992655754E0
9.171918750E0;1.249530983E1;-2.032725096E0;-1.937129378E0
9.183845313E0;1.235942459E1;-2.894762278E0;-1.901091933E0
9.195742188E0;1.274233437E1;-3.165536880E0;-1.373266220E0
9.207660938E0;1.294326496E1;-2.826412678E0;-5.938194394E-1
9.219565625E0;1.274658585E1;-2.048162937E0;-5.460695177E-2
9.231482813E0;1.182750034E1;-9.377992749E-1;1.641464606E-2
9.243415625E0;1.034063339E1;2.160431892E-1;6.223392487E-1
9.255300000E0;9.091118813E0;7.445583940E-1;1.029133201E0
9.267212500E0;8.373922348E0;9.900311232E-1;1.122440100E0
9.279125000E0;8.007972717E0;1.046802521E0;1.182410002E0
9.291035938E0;7.929098129E0;9.816130996E-1;1.332009315E0
9.302946875E0;8.066410065E0;1.124824762E0;1.481598973E0
9.314859375E0;8.341896057E0;1.453270912E0;1.543647170E0
9.326770313E0;8.668992043E0;1.650016665E0;1.524043441E0
9.338681250E0;8.990343094E0;1.671325207E0;1.536703944E0
9.350606250E0;9.249969482E0;1.680336952E0;1.614036798E0
9.362504688E0;9.663314819E0;1.871777296E0;1.641933918E0
9.374417188E0;1.023690701E1;1.948372602E0;1.718845367E0
9.386329688E0;1.070706177E1;1.675519824E0;1.771709204E0
9.398240625E0;1.091496468E1;1.176204205E0;1.611604214E0
9.410154688E0;1.059966660E1;7.327023149E-1;1.246584177E0
9.422087500E0;1.013849640E1;5.118132830E-1;9.506512880E-1
9.433975000E0;1.015962219E1;4.704031646E-1;8.782506585E-1
9.445887500E0;1.032529163E1;5.014990568E-1;8.349730968E-1
9.457798438E0;1.021658516E1;5.077431202E-1;8.859887123E-1
9.469714063E0;1.010281277E1;6.102532744E-1;9.459107518E-1
9.481637500E0;9.940179825E0;7.531679869E-1;1.006570220E0
9.493532813E0;9.766772270E0;9.089443088E-1;1.141536236E0
9.505443750E0;9.588557243E0;9.282224178E-1;1.129728079E0
9.517356250E0;8.991539001E0;7.900865674E-1;9.583031535E-1
9.529267188E0;8.448850632E0;5.995368361E-1;5.803736448E-1
9.541179688E0;8.065701485E0;3.963936269E-1;3.889620006E-1
9.553090625E0;7.912041664E0;1.400799602E-1;2.230246663E-1
9.565003125E0;8.005511284E0;-1.120486413E-3;1.491108816E-2
9.576914063E0;8.395440102E0;3.188981116E-1;-2.504622340E-1
9.588825000E0;8.760335922E0;7.843787670E-1;-2.919872701E-1
9.600735938E0;9.176534653E0;1.337602139E0;-3.939515352E-1
9.612648438E0;9.458121300E0;1.570682526E0;-5.657211542E-1
9.624560938E0;9.685560226E0;1.341365814E0;-8.205791116E-1
9.636471875E0;9.965012550E0;7.805097699E-1;-9.737793207E-1
9.648384375E0;1.040475941E1;4.011150002E-1;-1.020111918E0
9.660295313E0;1.080870056E1;3.345274329E-1;-7.992324233E-1
9.672206250E0;1.110615635E1;6.325672865E-1;-3.525893092E-1
9.684118750E0;1.100606823E1;8.776090145E-1;2.874574363E-1
9.696029688E0;1.043238831E1;9.361616373E-1;9.027289152E-1
9.707979688E0;9.759398460E0;8.819090128E-1;1.292744398E0
9.719876563E0;9.313023567E0;1.084429741E0;1.874066114E0
9.731764063E0;9.341437340E0;1.650160432E0;2.644472361E0
9.743676563E0;9.627650261E0;2.257167339E0;3.261180401E0
9.755585938E0;9.883436203E0;2.615119457E0;3.718243122E0
9.767500000E0;1.022782803E1;2.721757412E0;3.464160919E0
9.779418750E0;1.028297138E1;2.360893488E0;2.405502558E0
9.791321875E0;9.991329193E0;1.231414557E0;1.012565374E0
9.803234375E0;9.957963943E0;3.628747761E-1;2.851973101E-2
9.815145313E0;9.776827812E0;-2.385582626E-1;-3.750086129E-1
9.827059375E0;9.596859932E0;-4.946803749E-1;-3.245579898E-1
9.838978125E0;9.606916428E0;-4.104523659E-1;-1.508730203E-1
9.850879688E0;9.595893860E0;-9.640971571E-2;-7.346368581E-2
9.862792188E0;9.855836868E0;3.462781608E-1;2.242696732E-1
9.874703125E0;1.010704613E1;9.106106758E-1;6.219082475E-1
9.886620313E0;1.001846027E1;1.468804479E0;9.402221441E-1
9.898545313E0;9.666713715E0;1.772734046E0;1.169261098E0
9.910439063E0;9.004459381E0;1.727186680E0;1.355175614E0
9.922350000E0;8.177022934E0;1.700869679E0;1.444575071E0
9.934260938E0;7.456099510E0;1.831401467E0;1.435955882E0
9.946179688E0;7.238965034E0;2.008754492E0;1.323016763E0
9.958103125E0;7.055578232E0;2.283790827E0;1.260173678E0
9.969995313E0;6.542443275E0;2.447554111E0;1.179307103E0
9.981907813E0;6.021062851E0;2.272097349E0;1.196229339E0
9.993818750E0;6.190160751E0;2.079450369E0;1.274462223E0
1.000573125E1;7.021484852E0;2.250568867E0;6.904973984E-1
1.001764219E1;7.895339966E0;2.769277334E0;-1.389690340E-1
1.002955469E1;8.393334389E0;3.166034937E0;-8.450957537E-1
1.004146562E1;8.921810150E0;3.684887171E0;-1.017995477E0
1.005337656E1;9.145926476E0;3.420260668E0;-7.366192341E-1
1.006528906E1;9.407249451E0;2.387641668E0;-8.204259276E-1
1.007720312E1;1.008750916E1;1.609851718E0;-8.839009404E-1
1.008911094E1;1.062885761E1;1.615770102E0;-5.209496021E-1
1.010102344E1;1.112413216E1;2.387746811E0;4.003967345E-1
1.011293594E1;1.121102142E1;2.923779964E0;1.065074921E0
1.012485469E1;1.145593929E1;3.139028311E0;1.191354752E0
1.013677188E1;1.196622944E1;3.060306787E0;1.643514156E0
1.014867031E1;1.283880043E1;2.818032980E0;1.667187929E0
1.016058125E1;1.425799847E1;2.976557970E0;1.010927677E0
1.017249375E1;1.549383736E1;4.023388863E0;1.835682392E-1
1.018440781E1;1.598505974E1;5.223630905E0;-3.489596844E-1
1.019631719E1;1.582736778E1;5.998049736E0;-7.756543159E-1
1.020822812E1;1.516656876E1;6.102982998E0;-1.091593146E0
1.022013906E1;1.432486343E1;5.295552731E0;-1.081202388E0
1.023205000E1;1.509357452E1;2.342448711E0;-5.109992623E-1
1.024396719E1;1.796733475E1;6.421248913E-1;-2.420729548E-1
1.025587656E1;1.672952271E1;9.165961295E-2;3.313575089E-1
1.026778594E1;1.191809654E1;1.055459902E-1;1.464207530E0
1.027969688E1;1.022737885E1;-5.283045769E-1;2.369531631E0
1.029160938E1;1.023373699E1;-1.776871204E0;2.669391394E0
1.030352813E1;1.045632172E1;-2.886641026E0;2.805401087E0
1.031543281E1;1.051694202E1;-3.977391720E0;2.378399849E0
1.032734375E1;1.009151268E1;-5.074223042E0;1.764344692E0
1.033925469E1;9.576452255E0;-5.991528034E0;1.625299096E0
1.035116719E1;9.490462303E0;-7.243293285E0;1.526648283E0
1.036308438E1;9.629689217E0;-8.679086685E0;1.377432108E0
1.037499844E1;9.430625916E0;-9.465524673E0;1.445628524E0
1.038690156E1;8.668790817E0;-9.172215462E0;1.852202296E0
1.039881406E1;7.868323803E0;-6.720045567E0;2.124193192E0
1.041072500E1;6.771175861E0;-4.033042431E0;1.569111943E0
1.042264219E1;6.351242542E0;-1.977936149E0;-9.031886607E-2
1.043454844E1;6.987305164E0;1.462091058E-1;-1.700764298E0
1.044646094E1;7.674316883E0;1.780893445E0;-2.971759796E0
1.045837969E1;8.486429214E0;2.605082989E0;-3.586590767E0
1.047028281E1;9.244586945E0;2.846590757E0;-3.518633842E0
1.048219375E1;9.516223907E0;2.115238905E0;-2.964759111E0
1.049413281E1;9.538853645E0;8.083974123E-1;-2.381799698E0
1.050601719E1;9.333421707E0;-5.549663901E-1;-1.924842358E0
1.051792813E1;9.313224792E0;-1.576955318E0;-1.555005193E0
1.052984062E1;9.610123634E0;-2.147186995E0;-9.248609543E-1
1.054175313E1;9.660622597E0;-2.353040457E0;-8.369170874E-2
1.055367188E1;9.169408798E0;-2.025389194E0;4.983578920E-1
1.056557500E1;8.768170357E0;-1.586618304E0;2.723069191E-1
1.057748750E1;8.661570549E0;-1.153708339E0;1.925704330E-1
1.058939844E1;8.709329605E0;-7.815153003E-1;4.423526824E-1
1.060131719E1;8.876157761E0;-3.916339278E-1;4.974768162E-1
1.061322188E1;8.961592674E0;-2.235705554E-1;5.568721294E-1
1.062513281E1;9.220069885E0;-3.131232560E-1;6.182403564E-1
1.063704375E1;9.791002274E0;-6.881414652E-1;8.400775194E-1
1.064895625E1;1.048077106E1;-1.482959032E0;1.115334153E0
1.066087344E1;1.078271866E1;-2.029670238E0;1.458499789E0
1.067279688E1;1.053324223E1;-2.289297342E0;1.600926042E0
1.068469062E1;9.914437294E0;-2.085933924E0;1.572933078E0
1.069660313E1;9.274640083E0;-1.671928525E0;1.296201706E0
1.070851406E1;8.884921074E0;-1.330295086E0;1.202732086E0
1.072043906E1;8.775649071E0;-9.987364411E-1;1.324194670E0
1.073235469E1;8.950465202E0;-8.297153711E-1;1.420518160E0
1.074424844E1;9.702177048E0;-6.603974700E-1;1.198901296E0
1.075615938E1;1.042702675E1;-1.047702655E-1;4.743584096E-1
1.076807188E1;1.072461605E1;8.919454813E-1;-7.574679852E-1
1.077998281E1;1.057492065E1;1.472223401E0;-1.161886930E0
1.079189531E1;1.036221981E1;1.452112079E0;-1.123043418E0
1.080382344E1;1.056999779E1;1.139122844E0;-8.201481104E-1
1.081571875E1;1.085399818E1;4.943260550E-1;-3.022344410E-1
1.082762969E1;1.101896858E1;-3.261094391E-1;4.147236347E-1
1.083954219E1;1.091505051E1;-1.040701985E0;1.032657504E0
1.085145312E1;1.053883457E1;-1.570203662E0;1.533830881E0
1.086336562E1;9.898118019E0;-1.837607265E0;1.773212790E0
1.087528438E1;9.486660004E0;-1.670942187E0;1.695037365E0
1.088718906E1;9.166077614E0;-1.222488999E0;1.483380318E0
1.089910000E1;9.102621078E0;-5.979566574E-1;1.184421182E0
1.091102969E1;9.283219337E0;6.203855574E-2;1.027878642E0
1.092292344E1;9.636325836E0;5.033186674E-1;8.893118501E-1
1.093483438E1;1.005187416E1;7.530530691E-1;7.556579709E-1
1.094674688E1;1.025798607E1;7.454490066E-1;5.060576200E-1
1.095865781E1;1.026714134E1;5.000051260E-1;3.625396192E-1
1.097056875E1;1.014621449E1;2.826498747E-1;2.667044997E-1
1.098248125E1;1.003354359E1;3.107769489E-1;1.844493002E-1
1.099439219E1;1.002491474E1;3.732943535E-1;2.023387700E-1
1.100630312E1;1.014092827E1;5.008478165E-1;2.635058165E-1
1.101821562E1;1.024162865E1;6.004849076E-1;4.012969434E-1
1.103012813E1;1.027129745E1;5.025333762E-1;6.114025116E-1
1.104203906E1;1.029928112E1;3.660638630E-1;8.323298097E-1
1.105395000E1;1.020246887E1;1.787798256E-1;9.657252431E-1
1.106586250E1;9.978572845E0;-9.682151489E-3;1.094178915E0
1.107777344E1;9.789019585E0;-1.407024413E-1;1.259867191E0
1.108970156E1;9.777938843E0;-2.310308814E-1;1.418861270E0
1.110159688E1;9.902312279E0;-1.314703971E-1;1.490103245E0
1.111350781E1;9.922635078E0;1.265000403E-1;1.500704885E0
1.112542031E1;9.889460564E0;3.992474973E-1;1.586943984E0
1.113735312E1;9.911257744E0;5.664489865E-1;1.557198405E0
1.114924219E1;9.952964783E0;7.100914717E-1;1.473535419E0
1.116115469E1;9.821790695E0;7.904505134E-1;1.289248943E0
1.117306563E1;9.671378136E0;7.753095627E-1;1.191268563E0
1.118497812E1;9.632131577E0;7.175135016E-1;1.200950742E0
1.119689219E1;9.835494995E0;6.298282743E-1;1.313056827E0
1.120882344E1;1.023037624E1;4.254783690E-1;1.566018581E0
1.122071250E1;1.047041893E1;2.208220065E-1;1.800161958E0
1.123262344E1;1.050172520E1;-3.919786960E-2;1.983366251E0
1.124453594E1;1.032876873E1;-4.054054022E-1;2.182832003E0
1.125647969E1;1.009181881E1;-8.300314546E-1;2.410549402E0
1.126835781E1;9.933361053E0;-1.153966904E0;2.644912958E0
1.128027031E1;9.848328590E0;-1.274117589E0;2.894005537E0
1.129218125E1;9.592990875E0;-1.067105174E0;3.112749577E0
1.130409375E1;8.973889351E0;-6.015767455E-1;3.027975559E0
1.131601406E1;8.335652351E0;-1.295454651E-1;2.818885326E0
1.132791563E1;8.241253853E0;8.778101206E-2;2.561652184E0
1.133982969E1;8.527064323E0;1.253220886E-1;2.310883522E0
1.135174063E1;9.141684532E0;2.083721608E-1;2.065880060E0
1.136365156E1;1.001920700E1;3.526754677E-1;1.889149666E0
1.137556562E1;1.093500900E1;5.057799220E-1;1.594155312E0
1.138749375E1;1.160506916E1;7.863994837E-1;9.083122611E-1
1.139938594E1;1.179777336E1;1.134037614E0;4.330057502E-1
1.141129844E1;1.083923149E1;1.221914291E0;2.833489776E-1
1.142320938E1;9.824530602E0;1.440572023E0;-9.494446218E-2
1.143512031E1;9.514874458E0;1.627492070E0;-7.533403039E-1
1.144704844E1;9.049574852E0;1.417281270E0;-1.023530841E0
1.145894375E1;8.523645401E0;8.334790468E-1;-6.793116331E-1
1.147085625E1;8.188926697E0;4.476295114E-1;-4.411268532E-1
1.148276719E1;8.095111847E0;1.265383512E-1;-3.709863424E-1
1.149467812E1;8.384341240E0;-1.616852283E-1;-2.265297920E-1
1.150659219E1;8.977807045E0;-5.170900822E-1;2.992177308E-1
1.151850312E1;9.566788673E0;-8.022682667E-1;7.941758633E-1
1.153041406E1;9.986712456E0;-1.058572412E0;1.085100055E0
1.154232500E1;1.002232075E1;-1.312989712E0;1.177755713E0
1.155426719E1;9.787784576E0;-1.431742191E0;1.354648948E0
1.156614844E1;9.340728760E0;-1.365097165E0;1.708511949E0
1.157805938E1;8.968660355E0;-1.177478075E0;2.009654522E0
1.158997188E1;8.899276733E0;-9.244874716E-1;2.445667505E0
1.160188281E1;9.091836929E0;-6.977948546E-1;2.559890032E0
1.161379531E1;9.110405922E0;-7.646601796E-1;2.472214460E0
1.162573125E1;8.845330238E0;-7.807396054E-1;2.282583952E0
1.163761875E1;8.287481308E0;-9.727258086E-1;2.433016539E0
1.164952969E1;7.988043308E0;-9.841892719E-1;2.560713530E0
1.166144063E1;8.429313660E0;-6.947782040E-1;3.041143894E0
1.167335312E1;9.088762283E0;-3.898909688E-1;3.507409573E0
1.168528281E1;9.385290146E0;-2.748064697E-1;3.290696144E0
1.169717500E1;9.452069283E0;-1.814517528E-1;2.882954121E0
1.170908750E1;9.480655670E0;-1.742595881E-1;2.534875393E0
1.172099844E1;9.528999329E0;-2.651243210E-1;2.526189327E0
1.173290938E1;9.797284126E0;-3.864911795E-1;2.514438391E0
1.174482188E1;1.012182331E1;-4.390104115E-1;2.392104387E0
1.175673438E1;1.006305027E1;-2.987101674E-1;2.120496511E0
1.176864531E1;9.612805367E0;-1.024239510E-1;1.930933237E0
1.178055781E1;9.285528183E0;4.118026793E-2;2.006848574E0
1.179247500E1;9.412573814E0;6.001785025E-2;2.343253136E0
1.180438281E1;1.005752468E1;5.652231351E-2;2.530805111E0
1.181631250E1;1.088229752E1;9.692686796E-2;2.904635906E0
1.182820469E1;1.111816502E1;2.430497706E-1;2.874909401E0
1.184011406E1;1.059781933E1;2.387019098E-1;2.827915907E0
1.185203125E1;1.004803276E1;2.343061566E-1;2.626956224E0
1.186394688E1;1.025950909E1;3.525509834E-1;2.506662130E0
1.187585000E1;1.080798149E1;4.677025080E-1;2.300463915E0
1.188777031E1;1.135287285E1;3.233129978E-1;2.049704790E0
1.189967344E1;1.191960049E1;1.007001251E-1;2.178225517E0
1.191159062E1;1.219592953E1;-4.508090317E-1;2.334605217E0
1.192349531E1;1.217385483E1;-8.718437552E-1;2.543322325E0
1.193540781E1;1.174880791E1;-1.082179189E0;2.930771112E0
1.194731875E1;1.093698120E1;-1.139496326E0;3.352725029E0
1.195923125E1;1.024786282E1;-1.172660947E0;3.523623228E0
1.197114219E1;9.856727600E0;-1.130656958E0;3.563070059E0
1.198305469E1;9.798883438E0;-1.077946186E0;3.496788979E0
1.199496719E1;9.731941223E0;-1.035588026E0;3.392191172E0
1.200687812E1;9.579507828E0;-9.960070848E-1;3.293875694E0
1.201878906E1;9.468043327E0;-7.658092976E-1;3.299832582E0
1.203070000E1;9.429907799E0;-5.709308982E-1;3.195004702E0
1.204263750E1;9.587647438E0;-2.685911357E-1;3.136499882E0
1.205452344E1;9.859035492E0;-5.500917882E-2;2.978080511E0
1.206643438E1;1.025536251E1;-2.532107756E-2;2.907011032E0
1.207834688E1;1.088088131E1;-1.180820316E-1;2.753475666E0
1.209025781E1;1.179423046E1;1.989102736E-2;2.632874966E0
1.210216875E1;1.216299534E1;1.941314489E-1;2.725262403E0
1.211408125E1;1.236303520E1;5.741965771E-1;2.726536036E0
1.212599219E1;1.239726257E1;7.720534205E-1;2.473564625E0
1.213790469E1;1.231647301E1;9.418597817E-1;2.426504135E0
1.214981562E1;1.194737339E1;1.406382799E0;2.116981983E0
1.216175312E1;1.110912514E1;2.208191395E0;5.717353225E-1
1.217363906E1;9.632658958E0;2.778298616E0;-2.011962652E0
1.218555000E1;8.406358719E0;3.396625280E0;-4.908094406E0
1.219746250E1;9.003433228E0;4.221916199E0;-7.434848785E0
1.220937344E1;1.131414413E1;5.195072651E0;-7.729134083E0
1.222129375E1;1.224972248E1;5.164178371E0;-3.953344345E0
1.223319688E1;1.163037109E1;4.224166393E0;-9.392548800E-1
1.224510781E1;1.098742294E1;2.824564219E0;1.176510692E0
1.225702031E1;1.021771622E1;1.159214973E0;2.131979227E0
1.226893125E1;9.706936836E0;-3.100203872E-1;2.253882408E0
1.228084375E1;9.605020523E0;-1.122622013E0;1.792912364E0
1.229275469E1;9.795244217E0;-1.182247162E0;8.088283539E-1
1.230466719E1;9.928668022E0;-3.208517432E-1;-4.355052710E-1
1.231657813E1;9.959734917E0;5.702796578E-1;-1.227813721E0
1.232849062E1;9.980871201E0;1.401431680E0;-1.627214313E0
1.234040156E1;9.787409782E0;1.884840131E0;-1.929707408E0
1.235231250E1;9.662164688E0;1.777302146E0;-1.713013053E0
1.236422500E1;9.518628120E0;1.318707108E0;-1.052577257E0
1.237613750E1;9.458791733E0;9.246598482E-1;-4.406576157E-1
1.238805312E1;9.581422806E0;9.569432139E-1;-1.344009042E-1
1.239995938E1;9.765555382E0;1.258325338E0;-1.854835898E-1
1.241187188E1;9.888187408E0;1.525987506E0;-4.879861772E-1
1.242378281E1;9.806219101E0;1.658367753E0;-8.578329086E-1
1.243569375E1;9.696430206E0;1.629455328E0;-1.109511375E0
1.244760625E1;9.599274635E0;1.527701735E0;-1.105096459E0
1.245951719E1;9.704456329E0;1.257904053E0;-6.707404256E-1
1.247142969E1;9.679068565E0;9.833465219E-1;-2.314905673E-1
1.248334062E1;9.415082932E0;6.712670922E-1;1.361151636E-1
1.249525313E1;9.249385834E0;5.054830313E-1;3.832063675E-1
1.250716406E1;9.507355690E0;6.227318645E-1;6.197726727E-1
1.251907500E1;1.004771805E1;1.444785714E0;6.035590768E-1
1.253098750E1;1.019126511E1;2.165651083E0;4.146565795E-1
1.254289844E1;9.908509254E0;2.484836578E0;2.828126848E-1
1.255481094E1;9.626816750E0;2.484750509E0;3.672418296E-1
1.256672656E1;9.820211411E0;2.372998476E0;7.786997557E-1
1.257864531E1;9.883418083E0;1.859873295E0;1.111752272E0
1.259054531E1;9.560813904E0;9.046921730E-1;1.511584044E0
1.260245625E1;9.257593155E0;-5.471229553E-2;1.746148825E0
1.261436875E1;8.900340080E0;-1.174001575E0;2.058850527E0
1.262627969E1;8.833387375E0;-1.699758649E0;2.262587547E0
1.263819062E1;8.604043007E0;-2.011052847E0;2.557170153E0
1.265010156E1;8.373049736E0;-2.271235704E0;3.036173344E0
1.266201406E1;8.482532501E0;-2.291662931E0;3.502678633E0
1.267392500E1;8.854763985E0;-2.056887388E0;3.775119781E0
1.268584688E1;9.479928017E0;-1.709929347E0;3.688880682E0
1.269774844E1;1.028058720E1;-1.125609994E0;3.367406607E0
1.270965938E1;1.088281536E1;-5.373450518E-1;2.738315344E0
1.272157188E1;1.117657375E1;-6.895300467E-4;1.843765140E0
1.273348281E1;1.150165939E1;3.668108582E-1;9.268816710E-1
1.274540156E1;1.173642445E1;6.669862866E-1;-4.396712035E-2
1.275732188E1;1.154097176E1;4.041412473E-1;-6.659806967E-1
1.276921719E1;1.096209145E1;-1.172201186E-1;-8.053807616E-1
1.278113750E1;1.030923176E1;-5.601091385E-1;-7.522294521E-1
1.279304219E1;9.908365250E0;-5.137190819E-1;-5.431677103E-1
1.280495469E1;9.658170700E0;1.327345427E-2;-3.618308902E-1
1.281686719E1;9.126496315E0;5.579351783E-1;-1.700745076E-1
1.282877656E1;8.668571472E0;9.553343654E-1;2.972257733E-1
1.284068750E1;8.467706680E0;1.132476568E0;8.971840143E-1
1.285260000E1;8.799304008E0;1.319578648E0;1.100231409E0
1.286451094E1;9.215263367E0;1.305558205E0;9.088102579E-1
1.287643281E1;9.272705078E0;9.223039746E-1;8.499799371E-1
1.288833438E1;9.429170609E0;5.737081766E-1;8.984193802E-1
1.290024688E1;9.527352333E0;2.937493920E-1;8.202056289E-1
1.291215781E1;9.542828560E0;9.327810258E-3;6.714012027E-1
1.292407344E1;9.307660103E0;-8.827900887E-2;1.494556367E-1
1.293599375E1;9.072980881E0;-9.803777188E-2;-4.578001201E-1
1.294789375E1;9.198312759E0;1.335677207E-1;-1.119251013E0
1.295980469E1;9.251272202E0;4.387709796E-1;-1.761557817E0
1.297171563E1;9.201539993E0;6.973734498E-1;-2.269300938E0
1.298362813E1;9.436516762E0;1.284450889E0;-2.550619602E0
1.299553906E1;9.868343353E0;1.382210970E0;-2.795814753E0
1.300745000E1;1.052129936E1;6.146873236E-1;-2.264397621E0
1.301936094E1;1.109415627E1;-7.560218573E-1;-1.763386965E0
1.303127344E1;1.173323536E1;-2.333886862E0;-1.606298685E0
1.304319219E1;1.291150856E1;-3.894331694E0;-2.025169134E0
1.305512344E1;1.422113705E1;-4.832552433E0;-1.706309199E0
1.306700938E1;1.446338177E1;-3.729515076E0;-3.360118270E-1
1.307892031E1;1.235666656E1;-1.512800336E0;1.623268723E-1
1.309083125E1;8.930037498E0;1.048277318E-1;6.679152250E-1
1.310274219E1;7.457966805E0;1.520078659E0;1.483725071E0
1.311467656E1;8.250294685E0;2.074115992E0;2.204810858E0
1.312656719E1;1.003712559E1;2.003764868E0;2.668328047E0
1.313847812E1;1.180683327E1;1.907441258E0;2.713138103E0
1.315038906E1;1.294366741E1;1.461334467E0;2.864691257E0
1.316230625E1;1.273716354E1;7.694963813E-1;3.461469650E0
1.317421250E1;1.142623138E1;4.803822041E-1;4.534646988E0
1.318613125E1;9.692169189E0;2.744904459E-1;5.950922489E0
1.319803594E1;8.160090446E0;-3.951390460E-2;6.821377277E0
1.320994688E1;7.579180717E0;-2.766547799E-1;6.546455860E0
1.322186250E1;7.474602222E0;-5.253835917E-1;5.597222328E0
1.323377031E1;7.873619556E0;-6.994900107E-1;4.752423286E0
1.324568125E1;8.664319038E0;-7.312370539E-1;4.104686737E0
1.325759375E1;9.592321396E0;-6.435518265E-1;3.519380569E0
1.326950469E1;1.022580719E1;-5.017576218E-1;2.912249565E0
1.328144844E1;1.040129280E1;-2.120783776E-1;2.327728987E0
1.329334844E1;1.013543129E1;7.774451375E-2;1.911932826E0
1.330524063E1;9.640587807E0;3.956179023E-1;1.722723842E0
1.331715156E1;8.943942070E0;7.611646056E-1;1.781056285E0
1.332906406E1;8.655690193E0;1.315958619E0;1.953189731E0
1.334097656E1;8.672641754E0;1.803839445E0;2.189995289E0
1.335288594E1;8.984835625E0;2.108142614E0;2.112796783E0
1.336480313E1;9.178545952E0;2.235944986E0;2.019920826E0
1.337670938E1;9.256835938E0;2.264685154E0;2.015668869E0
1.338862188E1;9.185872078E0;2.104570389E0;2.091258526E0
1.340053281E1;9.159584045E0;1.885730743E0;2.409514904E0
1.341244531E1;8.959887505E0;1.567761540E0;2.699232578E0
1.342435625E1;8.800500870E0;1.259570360E0;2.971989393E0
1.343626719E1;8.794745445E0;1.083893418E0;3.186328173E0
1.344817969E1;8.851363182E0;9.426450729E-1;3.340964794E0
1.346009063E1;8.958230972E0;7.799638510E-1;3.336655378E0
1.347201875E1;9.052906990E0;7.074579000E-1;3.205223083E0
1.348391406E1;8.969819069E0;6.488573551E-1;3.085196972E0
1.349582656E1;8.921350479E0;5.733251572E-1;2.947549582E0
1.350773750E1;9.089806557E0;5.046402812E-1;2.925762415E0
1.351964844E1;9.672115326E0;4.960690141E-1;3.124663115E0
1.353155938E1;1.013732815E1;4.498800635E-1;3.158881187E0
1.354347188E1;1.012846851E1;4.947378635E-1;2.962585211E0
1.355538281E1;9.823266029E0;5.852290392E-1;2.861013651E0
1.356729531E1;9.582447052E0;7.699657083E-1;2.858092546E0
1.357921250E1;9.543996811E0;1.023971319E0;2.800641298E0
1.359111719E1;9.552375793E0;1.190195918E0;2.675137281E0
1.360302969E1;9.707951546E0;1.322911382E0;2.530786037E0
1.361494063E1;9.876608849E0;1.372873545E0;2.443464756E0
1.362685312E1;9.947610855E0;1.392237902E0;2.401566267E0
1.363877031E1;9.825469017E0;1.414187908E0;2.495361567E0
1.365067656E1;9.595998764E0;1.369320512E0;2.705141306E0
1.366258750E1;9.406569481E0;1.305519938E0;2.905488253E0
1.367449844E1;9.427657127E0;1.158324361E0;2.915783405E0
1.368640938E1;9.542713165E0;8.413416147E-1;2.793305635E0
1.369833125E1;9.731500626E0;5.035772324E-1;2.403251648E0
1.371023281E1;9.679269791E0;1.804366112E-1;2.015180349E0
1.372214531E1;9.535942078E0;-1.144811511E-1;1.820196629E0
1.373405781E1;9.567880630E0;-2.256104052E-1;1.718270659E0
1.374596875E1;9.771416664E0;-2.153153569E-1;1.515357256E0
1.375788125E1;1.008926201E1;-1.874564141E-1;1.293338180E0
1.376979062E1;1.048471642E1;2.911349293E-3;1.163371325E0
1.378170313E1;1.087512493E1;4.287632108E-1;1.130695343E0
1.379361406E1;1.120384884E1;1.053688169E0;1.103094935E0
1.380552656E1;1.117390251E1;1.554478526E0;1.232046604E0
1.381743750E1;1.079242039E1;1.835567355E0;1.537872314E0
1.382935781E1;9.945543289E0;1.913532257E0;1.919115424E0
1.384126094E1;9.093302727E0;1.824621081E0;2.233895540E0
1.385317344E1;8.643939018E0;1.792289853E0;2.308326483E0
1.386508594E1;8.712480545E0;1.734857678E0;2.333848715E0
1.387699688E1;9.307382584E0;1.884485722E0;2.193146229E0
1.388892031E1;9.876082420E0;2.108420134E0;2.671316147E0
1.390082344E1;1.020958519E1;2.226818323E0;2.888728857E0
1.391273125E1;1.029521084E1;1.878816247E0;2.297705889E0
1.392464219E1;1.034246254E1;1.017229199E0;1.300750613E0
1.393655313E1;1.027389240E1;1.287218630E-1;7.336313128E-1
1.394849063E1;1.023978043E1;-5.422675014E-1;5.281800628E-1
1.396037812E1;1.032630634E1;-8.464173675E-1;4.646570683E-1
1.397228906E1;1.034952164E1;-8.507077694E-1;5.381973982E-1
1.398420000E1;1.010507298E1;-7.334206104E-1;8.407191038E-1
1.399611250E1;9.779135704E0;-4.480509162E-1;1.258018970E0
1.400803125E1;9.547951698E0;-2.469858527E-2;1.942865968E0
1.401993438E1;9.380741119E0;3.799502254E-1;2.435793638E0
1.403184688E1;9.223345757E0;6.992026567E-1;2.877150297E0
1.404375938E1;9.103713036E0;9.491668940E-1;3.282297373E0
1.405567188E1;9.079684258E0;9.852905869E-1;3.664651394E0
1.406758438E1;9.100954056E0;9.793434739E-1;4.175938129E0
1.407949531E1;9.030516624E0;9.691920280E-1;4.276350498E0
1.409140469E1;8.759445190E0;1.106331944E0;4.492403507E0
1.410331719E1;8.684046745E0;1.204704881E0;4.685720921E0
1.411522656E1;8.768265724E0;1.245147705E0;4.685625076E0
1.412713906E1;8.932201385E0;1.375842452E0;4.487663269E0
1.413905000E1;9.058395386E0;1.428390265E0;3.911033869E0
1.415096250E1;9.085707664E0;1.362884998E0;3.394393682E0
1.416287500E1;9.030324936E0;1.241747975E0;2.898334503E0
1.417478594E1;9.088083267E0;1.217183471E0;2.634081602E0
1.418669688E1;9.114362717E0;1.105287910E0;2.629580498E0
1.419860781E1;9.330348015E0;9.721033573E-1;2.528430223E0
1.421052031E1;9.650155067E0;9.276574254E-1;2.588706493E0
1.422243125E1;9.679556847E0;8.243907094E-1;2.617599964E0
1.423434375E1;9.405995369E0;6.680205464E-1;2.730903149E0
1.424626563E1;9.035851479E0;5.985408425E-1;2.901006460E0
1.425816562E1;8.672554970E0;6.167463660E-1;3.144544363E0
1.427007969E1;8.478874207E0;7.360446453E-1;3.317281485E0
1.428199062E1;8.581958771E0;8.509088755E-1;3.509133577E0
1.429390781E1;9.028793335E0;9.577860236E-1;3.689148664E0
1.430581250E1;9.661083221E0;1.137197852E0;3.686668396E0
1.431772500E1;9.915720940E0;1.214367747E0;3.555715084E0
1.432963594E1;9.831559181E0;1.077323675E0;3.492163420E0
1.434154844E1;9.591823578E0;8.597673774E-1;3.425748348E0
1.435345938E1;9.459663391E0;5.334759951E-1;3.267146826E0
1.436537813E1;9.567814827E0;1.626237482E-1;3.036546946E0
1.437728281E1;9.830669403E0;-2.940079663E-3;2.840615034E0
1.438919531E1;1.037771511E1;1.991975820E-3;2.679581165E0
1.440110625E1;1.099570560E1;4.661989585E-2;2.535200834E0
1.441301719E1;1.134004974E1;-1.171051934E-1;2.145108938E0
1.442494219E1;1.133550072E1;-4.269053042E-1;1.678632379E0
1.443684062E1;1.141725922E1;-7.915039062E-1;1.114385962E0
1.444875156E1;1.189891434E1;-1.006598949E0;6.422494054E-1
1.446066406E1;1.244207191E1;-1.190444946E0;6.975746155E-2
1.447257656E1;1.288925171E1;-1.303269267E0;-6.106363535E-1
1.448448750E1;1.289694214E1;-1.574427009E0;-1.403519273E0
1.449639844E1;1.271988583E1;-1.809556723E0;-2.068082809E0
1.450830938E1;1.256863976E1;-1.823165417E0;-2.565578699E0
1.452022188E1;1.267296982E1;-1.393387079E0;-2.550408840E0
1.453213906E1;1.310006618E1;-7.262858748E-1;-2.160767078E0
1.454404531E1;1.346434879E1;-6.021417379E-1;-1.739636421E0
1.455595625E1;1.316880894E1;-9.744017720E-1;-1.949569702E0
1.456786875E1;1.244863319E1;-1.106935143E0;-1.957566381E0
1.457977969E1;1.129789257E1;-9.203119278E-1;-1.727244139E0
1.459169219E1;1.008795929E1;-4.677025080E-1;-1.349027395E0
1.460361250E1;9.022520065E0;-6.380068511E-2;-1.016185403E0
1.461551406E1;8.243303299E0;1.459505260E-1;-8.554961681E-1
1.462742656E1;7.805212498E0;1.554890275E-1;-8.300697207E-1
1.463933750E1;7.717556000E0;-5.334281363E-3;-9.381152391E-1
1.465125000E1;7.732888222E0;-2.660245299E-1;-1.262232661E0
1.466316094E1;7.780887127E0;-4.129135907E-1;-1.426791072E0
1.467507188E1;7.768743992E0;-5.262647271E-1;-1.458135843E0
1.468698438E1;7.749102116E0;-6.371353865E-1;-1.407034039E0
1.469889531E1;7.760498524E0;-7.048051357E-1;-1.179594517E0
1.471081406E1;7.911467075E0;-3.977248073E-1;-9.010722041E-1
1.472271875E1;7.718389034E0;-1.645199656E-1;-5.616605878E-1
1.473463125E1;8.022030830E0;-4.807556979E-3;-6.560974717E-1
1.474654219E1;8.703306198E0;-6.914454512E-3;-7.456119061E-1
1.475845312E1;9.463781357E0;-3.187735975E-1;-6.957550049E-1
1.477036562E1;1.021440220E1;-4.876126945E-1;-6.148788929E-1
1.478227656E1;1.051340961E1;-6.716310382E-1;-3.898239136E-1
1.479418906E1;1.056017303E1;-8.118067384E-1;-3.055001423E-2
1.480610000E1;1.041701889E1;-8.801468611E-1;1.170668900E-1
1.481801250E1;1.002661037E1;-9.676405787E-1;2.054703832E-1
1.482992344E1;9.809178352E0;-9.388430715E-1;2.284738719E-1
1.484184375E1;9.800042152E0;-8.486869931E-1;1.876000613E-1
1.485374688E1;9.812904358E0;-8.696985245E-1;1.717408746E-1
1.486565781E1;1.010378075E1;-8.572295308E-1;2.237716615E-1
1.487757031E1;1.029211712E1;-5.431103110E-1;1.097885147E-1
1.488948594E1;1.008115005E1;-2.546089888E-1;1.111292616E-1
1.490139219E1;9.925344467E0;-1.457590051E-2;4.250091016E-1
1.491330469E1;9.990314484E0;-4.641878232E-2;1.014653087E0
1.492522188E1;1.022997379E1;-5.095531344E-1;1.671487927E0
1.493712813E1;1.059712029E1;-1.243002415E0;2.075380087E0
1.494906094E1;1.088863754E1;-1.753848553E0;2.092541695E0
1.496095000E1;1.048434353E1;-1.878864169E0;1.708368301E0
1.497286094E1;1.003178120E1;-1.526772857E0;1.360059857E0
1.498477344E1;9.751516342E0;-1.078597426E0;8.588288426E-1
1.499668594E1;9.714569092E0;-5.696954727E-1;-7.086837292E-2
1.500860312E1;9.526279449E0;-1.051341891E-1;-8.527954817E-1
1.502050938E1;9.125499725E0;-3.721547127E-1;-1.346336126E0
1.503241875E1;9.151222229E0;-4.376983643E-1;-1.538418174E0
1.504433125E1;8.978858948E0;-7.619211674E-1;-1.322691083E0
1.505624375E1;8.725342751E0;-1.087934852E0;-1.104368687E0
1.506816094E1;8.618866920E0;-1.141421318E0;-1.019929886E0
1.508006563E1;8.435941696E0;-1.264827967E0;-3.733135164E-1
1.509197812E1;8.010644913E0;-1.410883904E0;3.505398631E-1
1.510388906E1;7.588441372E0;-1.477117062E0;1.107730150E0
1.511580156E1;7.153960705E0;-1.595955729E0;1.770818591E0
1.512771250E1;6.713025570E0;-1.809652567E0;2.116244316E0
1.513962344E1;6.390785217E0;-1.936391950E0;2.308709383E0
1.515153594E1;6.396080971E0;-1.837185860E0;2.288387537E0
1.516344688E1;6.883320332E0;-1.857833505E0;1.916884065E0
1.517535938E1;8.237873077E0;-1.724342465E0;1.530019403E0
1.518727344E1;9.818937302E0;-1.818664312E0;1.150720358E0
1.519918125E1;1.065796089E1;-2.140263081E0;6.454863548E-1
1.521109375E1;1.105632782E1;-2.585191965E0;3.278332651E-1
1.522300469E1;1.123225403E1;-3.017307043E0;3.867593408E-1
1.523491719E1;1.106058025E1;-3.180390358E0;5.759013295E-1
1.524682812E1;1.041322517E1;-3.223524332E0;9.974722862E-1
1.525873906E1;1.017446709E1;-2.622618198E0;1.442937493E0
1.527065156E1;9.956163406E0;-1.657841086E0;1.779849529E0
1.528256250E1;9.870699883E0;-8.201577067E-1;2.016827583E0
1.529447656E1;9.692830086E0;-5.199822783E-1;2.141335726E0
1.530638750E1;9.448208809E0;-4.791276455E-1;2.216944695E0
1.531829844E1;8.955137253E0;-6.803076267E-1;2.028607130E0
1.533021094E1;8.694169998E0;-9.480368495E-1;1.652114153E0
1.534212188E1;8.792887688E0;-1.484318852E0;1.200040936E0
1.535403438E1;9.264641762E0;-2.040788889E0;8.969253898E-1
1.536595469E1;9.677536011E0;-2.559612274E0;8.895416856E-1
1.537785625E1;9.908709526E0;-2.882637978E0;1.039677262E0
1.538976719E1;1.006994534E1;-2.867161751E0;1.263764977E0
1.540167969E1;1.015007401E1;-2.807220697E0;1.168801427E0
1.541359219E1;1.035400295E1;-3.014501095E0;1.152626157E0
1.542550312E1;1.061520958E1;-3.304266691E0;1.005449772E0
1.543741719E1;1.079739952E1;-3.487777233E0;9.548363686E-1
1.544932656E1;1.070732975E1;-3.549633741E0;8.219773769E-1
1.546123750E1;1.051740265E1;-3.494749308E0;6.516346335E-1
1.547314844E1;1.025796700E1;-3.456681490E0;2.696254253E-1
1.548506094E1;1.048146057E1;-3.482912302E0;4.531074464E-1
1.549697344E1;1.079302311E1;-3.839782476E0;7.355561852E-1
1.550888281E1;1.091687012E1;-4.265912056E0;6.187766194E-1
1.552079531E1;1.098906898E1;-4.537979603E0;7.097371221E-1
1.553270625E1;1.093788147E1;-4.663589001E0;7.281342149E-1
1.554461719E1;1.081272221E1;-4.416286945E0;1.105441332E0
1.555652969E1;1.050475216E1;-4.298875332E0;1.335648537E0
1.556844219E1;1.028732872E1;-4.589043140E0;1.875129104E0
1.558035312E1;1.095885468E1;-3.961599350E0;2.980225563E0
1.559226406E1;1.282185078E1;-2.469341278E0;3.690422535E0
1.560417656E1;1.463483620E1;-1.365327001E0;3.128340483E0
1.561609063E1;1.389302540E1;-1.337123275E0;1.441778660E0
1.562800000E1;1.289368534E1;-1.000766754E0;-2.702957988E-1
1.563991094E1;1.228775215E1;2.888747752E-1;-1.979966521E0
1.565182188E1;1.095992756E1;1.164194942E0;-1.816231847E0
1.566374219E1;1.026374149E1;1.701482534E0;-1.534577966E0
1.567565156E1;1.076602650E1;2.424100637E0;-6.522188783E-1
1.568755781E1;1.261463642E1;3.074068785E0;-4.080772996E-1
1.569946875E1;1.383355331E1;3.339892387E0;-6.157695055E-1
1.571138125E1;1.255593109E1;3.344230413E0;-2.022123575E0
1.572329219E1;1.051438618E1;3.323937178E0;-2.038538218E0
1.573520469E1;9.542665482E0;2.468278408E0;-1.427317739E0
1.574711563E1;1.003993130E1;1.640018582E0;-8.873198628E-1
1.575902656E1;1.136356163E1;1.472165942E0;-4.775187373E-1
1.577093906E1;1.265295410E1;2.042024136E0;-1.632558256E-1
1.578285000E1;1.313217640E1;2.693026781E0;3.967096508E-1
1.579477031E1;1.293951035E1;2.969537735E0;8.445976973E-1
1.580667344E1;1.280986977E1;3.348760366E0;1.487383366E0
1.581860156E1;1.215860844E1;3.616317034E0;2.261007547E0
1.583049688E1;1.111868286E1;3.704126835E0;3.198452473E0
1.584242813E1;1.000167179E1;3.788948774E0;3.079087257E0
1.585431875E1;8.979970932E0;3.942981958E0;2.145855904E0
1.586623125E1;8.543344498E0;3.876346588E0;9.945992231E-1
1.587814375E1;8.225710869E0;3.278974056E0;-1.332133822E-2
1.589005469E1;7.328421593E0;2.278303146E0;-9.509481788E-1
1.590196562E1;6.877430439E0;1.504612088E0;-1.434567332E0
1.591387656E1;6.764194489E0;8.660976291E-1;-1.427777290E0
1.592578906E1;6.853823662E0;4.385986030E-1;-1.411266923E0
1.593770156E1;7.072969913E0;1.487756968E-1;-1.221157789E0
1.594961250E1;7.363673687E0;1.427518725E-1;-9.776099920E-1
1.596153281E1;7.489312172E0;2.580662370E-1;-8.793998361E-1
1.597343750E1;7.550823689E0;4.675779939E-1;-8.096711636E-1
1.598534688E1;7.805834770E0;8.535616398E-1;-8.243045211E-1
1.599725938E1;8.001824379E0;9.919273853E-1;-7.344357371E-1
1.600917031E1;8.444579124E0;1.072200179E0;-5.100032687E-1
1.602108125E1;8.891797066E0;7.704828382E-1;-4.049073756E-1
1.603299375E1;9.178900719E0;2.918531895E-1;-2.366907746E-1
1.604490469E1;9.282129288E0;-4.510675743E-2;-1.185129881E-1
1.605681719E1;9.109554291E0;-2.597421706E-1;6.100426242E-2
1.606872812E1;8.914225578E0;-3.515837491E-1;3.740892410E-1
1.608064844E1;8.996807098E0;-2.413546890E-1;9.222177863E-1
1.609257188E1;9.282665253E0;8.245630190E-3;1.387162089E0
1.610446250E1;9.507930756E0;1.036018953E-1;1.767734885E0
1.611637500E1;9.485463142E0;6.675992012E-1;1.578181148E0
1.612828594E1;9.771972656E0;1.634674668E0;1.325190663E0
1.614019688E1;1.082060432E1;2.238186121E0;1.266389012E0
1.615210938E1;1.222187328E1;2.545534372E0;1.154819250E0
1.616402031E1;1.314496231E1;2.557400227E0;9.417161345E-1
1.617593281E1;1.341714478E1;2.295120001E0;8.617402315E-1
1.618784375E1;1.205291939E1;1.435477138E0;3.093117177E-1
1.619975625E1;1.012615108E1;3.707469106E-1;5.393657833E-2
1.621166719E1;8.709693909E0;-3.126156926E-1;2.547047436E-1
1.622357812E1;8.265070915E0;-5.042571425E-1;9.884414077E-1
1.623549062E1;8.191607475E0;-1.391797364E-1;1.598321199E0
1.624740156E1;8.072567940E0;5.589599013E-1;1.851991534E0
1.625931250E1;8.146635056E0;1.452140689E0;1.978012800E0
1.627123750E1;8.517947197E0;2.153747320E0;1.870972872E0
1.628313594E1;9.156250954E0;2.640564919E0;1.672100782E0
1.629504844E1;9.905616760E0;3.099208117E0;1.333148956E0
1.630695938E1;1.049797058E1;3.269761324E0;9.128516316E-1
1.631889219E1;1.077858067E1;3.163496971E0;4.829392135E-1
1.633078281E1;1.066558361E1;2.752939224E0;-1.607083827E-1
1.634269375E1;1.042702675E1;2.235207558E0;-7.460141182E-1
1.635460625E1;1.021378899E1;1.507188201E0;-1.206706405E0
1.636651875E1;1.012744427E1;9.265943766E-1;-1.119375467E0
1.637843125E1;1.014518070E1;5.365023017E-1;-7.791115046E-1
1.639034688E1;1.008780575E1;2.864518762E-1;-3.498886526E-1
1.640225312E1;1.000386524E1;9.004113823E-2;1.812793761E-1
1.641416406E1;1.001895809E1;-1.303403359E-2;6.909092069E-1
1.642607500E1;9.938522339E0;2.081997879E-2;1.175361395E0
1.643799062E1;9.749753952E0;2.231587470E-1;1.535123825E0
1.644989844E1;9.654905319E0;5.949112773E-1;1.738994837E0
1.646180938E1;9.956498146E0;1.057786942E0;1.635776162E0
1.647372188E1;1.007406330E1;1.371197581E0;1.251401424E0
1.648563438E1;1.002199459E1;1.572511673E0;7.958996296E-1
1.649754531E1;9.861563683E0;1.660053253E0;3.788393140E-1
1.650945781E1;9.725381851E0;1.726200342E0;1.773433089E-1
1.652136875E1;9.712960243E0;1.790431857E0;-2.213199995E-2
1.653327969E1;9.645740509E0;1.790901065E0;-1.463814825E-1
1.654519219E1;9.261538506E0;1.665349245E0;-1.088787168E-1
1.655710312E1;8.319544792E0;1.315460563E0;3.446692601E-2
1.656901563E1;7.320175648E0;9.196128249E-1;6.279512495E-2
1.658092656E1;6.618904591E0;3.249793649E-1;2.064184844E-1
1.659283750E1;6.900577545E0;-1.362683922E-1;2.626917958E-1
1.660475000E1;8.299797058E0;-8.005252481E-2;5.273181200E-1
1.661666562E1;9.751708031E0;9.591171890E-2;1.775061190E-1
1.662857188E1;1.083684635E1;-3.940951824E-1;-6.056755781E-1
1.664048281E1;1.222599125E1;-5.170518160E-2;1.758876294E-1
1.665239531E1;1.227037048E1;2.488533109E-1;8.156853914E-1
1.666430625E1;1.246871471E1;1.050096869E0;-6.391560435E-1
1.667621875E1;1.255341244E1;6.762374640E-1;-3.140378714E0
1.668813281E1;1.201215076E1;-3.656233251E-1;-3.746331692E0
1.670004219E1;1.109446335E1;-1.478716373E0;-3.019059658E0
1.671195312E1;1.005506229E1;-2.175831318E0;-2.997023344E0
1.672386563E1;9.331899643E0;-1.894895792E0;-2.436109781E0
1.673577656E1;8.327905655E0;-7.685099840E-1;-1.232094526E0
1.674770312E1;6.944908619E0;3.793852031E-1;-1.831947267E-1
1.675960000E1;5.843480110E0;8.548832536E-1;1.129584387E-1
1.677151094E1;5.071445942E0;9.193639159E-1;1.727464497E-1
1.678342344E1;4.874077797E0;3.724516034E-1;1.518402696E-1
1.679533438E1;5.715868950E0;-1.792203635E-1;2.539577782E-1
1.680724688E1;6.886106968E0;-3.683239818E-1;-8.679459989E-2
1.681915781E1;7.806313992E0;-7.334780097E-1;-6.810737848E-1
1.683107031E1;8.933781624E0;-1.170620918E0;-1.416266084E0
1.684298906E1;1.011890221E1;-1.576428533E0;-1.945279241E0
1.685489688E1;1.052407742E1;-2.006388903E0;-1.838181853E0
1.686680781E1;1.044483852E1;-2.114032269E0;-1.459122300E0
1.687871562E1;1.064635468E1;-2.073503256E0;-1.236949921E0
1.689062813E1;1.115925884E1;-1.800315142E0;-1.614352822E0
1.690253906E1;1.143822193E1;-1.598484039E0;-2.109464169E0
1.691445781E1;1.161533546E1;-1.401153922E0;-2.644453049E0
1.692636250E1;1.150784588E1;-1.196995497E0;-2.326608658E0
1.693827500E1;1.142886543E1;-6.196289659E-1;-1.699854493E0
1.695018594E1;1.109378242E1;6.998730451E-2;-1.368066072E0
1.696209688E1;1.075720596E1;-1.185608655E-2;-1.411946893E0
1.697400781E1;1.039637947E1;-8.929893970E-1;-1.498214841E0
1.698592031E1;1.048499393E1;-1.503692746E0;-1.498042464E0
1.699783125E1;1.068667316E1;-1.545811534E0;-1.817601323E0
1.700974375E1;1.087113190E1;-1.407560825E0;-2.403931618E0
1.702165469E1;1.147862720E1;-1.465002418E0;-2.805056334E0
1.703357031E1;1.250620842E1;-2.662141562E0;-2.691111326E0
1.704547813E1;1.371881485E1;-3.920438290E0;-3.465060949E0
1.705738906E1;1.414360237E1;-4.724344254E0;-4.382662773E0
1.706930156E1;1.416490173E1;-4.777955055E0;-4.484895229E0
1.708121250E1;1.437479687E1;-4.010096073E0;-3.715590239E0
1.709312656E1;1.374613667E1;-3.024796247E0;-2.458749294E0
1.710503594E1;1.176400566E1;-1.712869406E0;-1.947884202E0
1.711694844E1;9.871638298E0;-1.453950852E-1;-2.869058132E0
1.712885938E1;8.749256134E0;1.121271729E0;-4.575060844E0
1.714077031E1;9.083974838E0;1.832071900E0;-6.911006927E0
1.715268281E1;1.006009102E1;1.509850621E0;-8.090151787E0
1.716459375E1;1.099429893E1;5.491053462E-1;-6.039497852E0
1.717650469E1;1.185490894E1;7.705498487E-2;-3.691466331E0
1.718841719E1;1.196834564E1;-9.355295300E-1;-2.029382706E0
1.720032813E1;1.161551762E1;-2.379597187E0;-1.279605031E0
1.721227344E1;1.165884304E1;-3.533554554E0;-8.822154403E-1
1.722416094E1;1.197499180E1;-3.139957190E0;-2.325823307E-1
1.723606250E1;1.151499939E1;-1.703081965E0;7.450947165E-1
1.724797500E1;1.029865837E1;-2.107950896E-1;1.200251579E0
1.725988594E1;9.241245270E0;9.373491406E-1;1.302800059E0
1.727179844E1;8.909811020E0;2.000106573E0;1.564811945E0
1.728370938E1;9.204038620E0;2.687414885E0;1.921911836E0
1.729562188E1;9.973229408E0;3.094611168E0;2.247207165E0
1.730753281E1;1.065140152E1;3.496693373E0;2.828327894E0
1.731944531E1;1.080879593E1;3.482194185E0;3.350110531E0
1.733135781E1;1.108737564E1;3.553742409E0;3.410157204E0
1.734326875E1;1.157355213E1;3.186835766E0;3.364705801E0
1.735517969E1;1.085917950E1;2.243232965E0;3.093662739E0
1.736709219E1;1.021768665E1;1.504047155E0;2.686169863E0
1.737900469E1;9.692638397E0;8.002379537E-1;2.375249386E0
1.739091406E1;9.313884735E0;2.549633384E-1;2.115842342E0
1.740282813E1;9.003290176E0;-7.052360475E-2;1.953400373E0
1.741473750E1;8.810097694E0;-2.850057743E-2;1.889867902E0
1.742664844E1;8.580589294E0;1.078348458E-1;1.763502002E0
1.743856094E1;8.351406097E0;3.195205629E-1;1.569121480E0
1.745047344E1;7.975239277E0;4.779592454E-1;1.485630870E0
1.746238281E1;7.854839325E0;7.559356689E-1;1.374357939E0
1.747429531E1;7.743911266E0;1.013867855E0;1.255691767E0
1.748620625E1;7.624680042E0;1.092062354E0;1.231108069E0
1.749811875E1;7.711962700E0;1.065170765E0;1.056417584E0
1.751003594E1;7.691823006E0;1.267777681E0;8.573157191E-1
1.752194219E1;7.511769295E0;1.339134574E0;5.926511288E-1
1.753385312E1;7.427053452E0;1.413469553E0;3.102023602E-1
1.754576406E1;7.310551167E0;1.511880875E0;2.094256133E-1
1.755767500E1;7.454509735E0;1.815398693E0;2.992847860E-1
1.756958750E1;7.777995110E0;2.136604786E0;5.936471224E-1
1.758150312E1;8.010634422E0;2.483553171E0;8.492041826E-1
1.759341094E1;8.031043053E0;2.849291563E0;1.211820483E0
1.760533125E1;8.122501373E0;2.625749826E0;1.604076743E0
1.761723438E1;8.797493935E0;1.707582951E0;9.631011486E-1
1.762915156E1;9.761811256E0;1.119375467E0;2.388838679E-1
1.764105625E1;1.062733459E1;1.263276577E0;5.501875654E-2
1.765296875E1;1.093703938E1;1.967947602E0;9.843999743E-1
1.766488125E1;1.059999275E1;2.406536579E0;2.004751205E0
1.767679219E1;9.850156784E0;2.430105209E0;2.429903984E0
1.768870312E1;8.437061310E0;2.038892508E0;2.500341654E0
1.770062969E1;6.790616512E0;1.813895106E0;2.378897905E0
1.771252656E1;5.747693062E0;1.675117612E0;2.642097473E0
1.772443750E1;5.044027328E0;1.580833912E0;2.979335070E0
1.773634844E1;4.759835720E0;1.349582791E0;3.144333839E0
1.774826250E1;4.936518192E0;9.249088764E-1;3.008802652E0
1.776017188E1;5.643248558E0;4.499279559E-1;2.348261833E0
1.777208438E1;6.833722115E0;7.920019329E-3;1.239506960E0
1.778399688E1;8.232433319E0;-7.389463484E-2;2.525116503E-1
1.779590781E1;9.035515785E0;1.547516137E-1;-3.936163187E-1
1.780782031E1;9.309833527E0;5.066226721E-1;-1.203067303E0
1.781974062E1;9.402068138E0;1.555053115E0;-1.717954636E0
1.783164219E1;9.631711006E0;2.954119444E0;-2.009482145E0
1.784355469E1;9.664022446E0;4.129816055E0;-2.094428539E0
1.785546719E1;9.088208199E0;4.838691235E0;-2.695708275E0
1.786737969E1;8.776175499E0;5.388524532E0;-2.622905493E0
1.787928906E1;9.712950706E0;5.854503155E0;-2.617120981E0
1.789120156E1;1.153649902E1;5.794897079E0;-2.342094183E0
1.790311250E1;1.320630169E1;5.608197212E0;-1.219232917E0
1.791502500E1;1.417662430E1;5.488659859E0;9.704657197E-1
1.792693594E1;1.464226723E1;5.243311405E0;3.065564632E0
1.793884688E1;1.376984882E1;4.748180866E0;4.358567238E0
1.795075938E1;1.246615791E1;3.929287195E0;4.143414974E0
1.796267031E1;1.206909370E1;3.418000698E0;4.019021988E0
1.797458281E1;1.278136921E1;3.405253887E0;3.618653774E0
1.798649375E1;1.354277325E1;3.840040922E0;3.078177214E0
1.799840781E1;1.402435207E1;4.286645889E0;2.366179943E0
1.801031719E1;1.382091236E1;4.198730469E0;1.645400763E0
1.802222812E1;1.367011642E1;4.093251705E0;9.637715220E-1
1.803414063E1;1.358654881E1;3.465808153E0;1.700074822E-1
1.804605781E1;1.393859196E1;3.368153334E0;-3.624916971E-1
1.805796250E1;1.446060467E1;3.560206652E0;-5.154620409E-1
1.806987344E1;1.450711918E1;3.368651390E0;-2.369972318E-1
1.808178594E1;1.464410686E1;3.239220619E0;-7.082048804E-2
1.809369688E1;1.496462250E1;3.474580288E0;-3.184192479E-1
1.810560938E1;1.547857094E1;4.596196651E0;-3.672418296E-1
1.811752031E1;1.537657833E1;6.025248051E0;2.798151672E-1
1.812943125E1;1.399640751E1;7.174675465E0;1.011167169E0
1.814134375E1;1.191600895E1;7.294251442E0;1.603339434E0
1.815325469E1;1.019888783E1;6.250484943E0;1.501700759E0
1.816516719E1;1.017881489E1;3.784744501E0;1.071797848E0
1.817708750E1;1.078534317E1;6.716597676E-1;1.447074652E0
1.818898906E1;1.159576035E1;-1.634042621E0;1.829361677E0
1.820090156E1;1.218355560E1;-3.327930689E0;2.211552620E0
1.821281250E1;1.150800800E1;-4.690174103E0;2.883308411E0
1.822473125E1;9.785657883E0;-5.462601185E0;3.402677774E0
1.823663750E1;8.199642181E0;-5.676326752E0;3.585872650E0
1.824854844E1;7.094402790E0;-5.289088249E0;3.084268093E0
1.826046094E1;6.373604298E0;-5.636908531E0;1.806540132E0
1.827237188E1;5.793776512E0;-8.004506111E0;1.465510011E0
1.828428281E1;8.383986473E0;-7.054792881E0;1.522156835E0
1.829619688E1;1.030600357E1;-6.256087303E0;6.578500271E-1
1.830810625E1;1.107620907E1;-5.847569466E0;-2.407034636E-1
1.832001719E1;1.174225712E1;-4.697730064E0;-1.690517068E0
1.833192969E1;1.104298687E1;-3.033424854E0;-2.616182566E0
1.834384844E1;9.765202522E0;-1.566123843E0;-2.616354942E0
1.835575312E1;8.636374474E0;-2.670205235E-1;-1.895633221E0
1.836766406E1;7.942907810E0;6.555707455E-1;-9.894278049E-1
1.837957500E1;7.428853512E0;7.116429210E-1;1.359236091E-1
1.839148750E1;7.359929085E0;-1.384518892E-1;1.249495625E0
1.840340469E1;8.073027611E0;-8.468961716E-1;1.533811808E0
1.841531094E1;8.478806496E0;-1.599997044E0;1.559669137E0
1.842722188E1;8.256002426E0;-1.586608768E0;1.389997005E0
1.843913438E1;7.873552799E0;-1.002050042E0;8.993292451E-1
1.845104531E1;7.702510834E0;-3.017077446E-1;4.836957753E-1
1.846296563E1;7.321640968E0;3.707565069E-1;6.738145947E-1
1.847486875E1;7.219188690E0;7.403637767E-1;6.463482380E-1
1.848677969E1;7.145475388E0;8.180412650E-1;6.362064481E-1
1.849869219E1;7.157197952E0;7.185573578E-1;5.968457460E-1
1.851060312E1;7.183964729E0;4.535767138E-1;8.032451272E-1
1.852251562E1;6.811082363E0;-1.948880218E-2;1.131289005E0
1.853442656E1;6.355370045E0;-5.300858021E-1;1.289641500E0
1.854633750E1;5.895941734E0;-8.122281432E-1;1.241125464E0
1.855825000E1;5.441254616E0;-9.344090819E-1;9.733100533E-1
1.857016094E1;5.448063374E0;-9.637236595E-1;9.013019800E-1
1.858207344E1;6.008402348E0;-7.103787661E-1;8.789114356E-1
1.859398438E1;6.869060516E0;-4.161792994E-1;8.254824281E-1
1.860589531E1;8.200150490E0;-5.790041685E-1;7.774738669E-1
1.861780781E1;9.926244736E0;-6.235650778E-1;4.257848263E-1
1.862971875E1;1.143112564E1;-1.464389563E-1;-3.945261240E-1
1.864163594E1;1.213836288E1;4.237832725E-1;-1.092301846E0
1.865355313E1;1.255835438E1;6.559346318E-1;-1.182936788E0
1.866545313E1;1.303305721E1;8.033217192E-1;-1.054626703E0
1.867736406E1;1.340082645E1;1.284901023E0;-9.991578460E-1
1.868927656E1;1.246073723E1;1.589309454E0;-9.191914797E-1
1.870118750E1;1.032804966E1;1.412578940E0;-5.822123885E-1
1.871310000E1;8.398294449E0;9.185690284E-1;1.729475558E-1
1.872501094E1;7.728521347E0;5.340123177E-1;8.542128205E-1
1.873692344E1;8.752952576E0;2.145300508E-1;1.395838737E0
1.874883438E1;1.071457863E1;-5.536352098E-2;1.619217753E0
1.876074688E1;1.282202244E1;-2.765685916E-1;1.643332124E0
1.877265781E1;1.543171215E1;-1.491396129E-1;1.513834596E0
1.878457031E1;1.817233658E1;3.701435924E-1;1.155269384E0
1.879648125E1;1.839536858E1;9.222273827E-1;3.098959029E-1
1.880839375E1;1.420895481E1;8.316786289E-1;-3.525605798E-1
1.882030625E1;9.823649406E0;2.664937973E-1;4.321534038E-1
1.883221562E1;7.557288170E0;-1.924555004E-1;1.106734157E0
1.884412812E1;6.873513699E0;-2.024632692E-1;1.331913590E0
1.885603906E1;7.177902699E0;-1.780328304E-1;1.486435294E0
1.886795156E1;8.091463089E0;-2.815006673E-1;1.730222583E0
1.887986250E1;9.256826401E0;-2.154685855E-1;1.868157268E0
1.889177500E1;1.027083778E1;-2.325918972E-1;1.792174935E0
1.890368594E1;1.079946804E1;3.094553649E-1;1.669697165E0
1.891559688E1;1.032787800E1;9.047496915E-1;2.079527140E0
1.892750938E1;8.834738731E0;1.145395637E0;2.670492649E0
1.893942031E1;6.718024254E0;6.914167404E-1;2.663932323E0
1.895133125E1;5.551674843E0;1.967363507E-1;1.804289579E0
1.896324375E1;5.548753738E0;-2.462580055E-1;5.088253021E-1
1.897515469E1;6.883990765E0;-2.706692815E-1;-3.908390403E-1
1.898706719E1;8.388564110E0;-2.865859270E-1;-3.465846181E-1
1.899897812E1;1.094312000E1;4.000519514E-1;6.064034104E-1
1.901089375E1;1.260589314E1;8.747551441E-1;7.388027310E-1
1.902280156E1;1.260394955E1;1.073923945E0;3.956753612E-1
1.903471250E1;1.128756905E1;9.818238020E-1;3.921032250E-1
1.904662500E1;9.501351357E0;6.628682613E-1;6.955155730E-1
1.905853594E1;7.819874287E0;2.748064697E-1;1.054454327E0
1.907044688E1;7.016820908E0;2.331856638E-1;1.414331555E0
1.908235938E1;7.075995922E0;6.756724119E-1;1.797250628E0
1.909427031E1;7.788529873E0;1.413421750E0;2.031700373E0
1.910618281E1;8.597271919E0;1.911769986E0;2.285294294E0
1.911809375E1;9.211317062E0;2.146698713E0;2.034190416E0
1.913000625E1;9.683405876E0;2.366984367E0;1.044877529E0
1.914191719E1;9.303312302E0;2.264119864E0;1.107078884E-2
1.915382812E1;8.308541298E0;1.932992339E0;-2.227278054E-1
1.916574062E1;7.348063469E0;1.271943569E0;1.456536502E-1
1.917765156E1;7.256854057E0;8.339291811E-1;6.345592141E-1
1.918956250E1;7.936826706E0;6.355360746E-1;6.764577627E-1
1.920147500E1;8.889172554E0;5.916264057E-1;5.928714275E-1
1.921338594E1;1.028419685E1;1.039026141E0;1.388483763E0
1.922529688E1;1.114608097E1;1.256975055E0;2.318592787E0
1.923721562E1;1.114214516E1;1.297839284E0;3.193817139E0
1.924912188E1;1.069635487E1;1.139333487E0;3.989650011E0
1.926103281E1;1.012490654E1;7.369257212E-1;4.234777927E0
1.927294375E1;9.836280823E0;1.964202970E-1;4.253864288E0
1.928485625E1;9.692025185E0;-5.107406974E-1;3.881431818E0
1.929676719E1;9.765776634E0;-1.021701694E0;3.263833284E0
1.930867969E1;9.978084564E0;-1.029516339E0;2.767515182E0
1.932059062E1;1.012886238E1;-7.516548634E-1;2.825646400E0
1.933250313E1;1.015084076E1;-4.558464289E-1;2.818090439E0
1.934441406E1;9.861142159E0;-2.309638560E-1;2.206994295E0
1.935632656E1;9.789374352E0;-5.243206024E-1;1.770445108E0
1.936824688E1;1.077575588E1;-1.024220347E0;1.221243978E0
1.938015000E1;1.199173260E1;-1.341251016E0;6.801831126E-1
1.939206094E1;1.316373253E1;-1.028118014E0;-9.847255945E-1
1.940397188E1;1.269158649E1;-3.209379613E-1;-7.675523162E-1
1.941588281E1;1.185274410E1;-7.849916816E-1;6.645154357E-1
1.942779531E1;1.191118240E1;-1.782282114E0;2.046850920E0
1.943970781E1;1.251929951E1;-2.758924723E0;2.850431204E0
1.945161875E1;1.330091095E1;-2.567063093E0;4.130697250E0
1.946352969E1;1.439046383E1;-1.462263465E0;4.483928204E0
1.947544062E1;1.509057713E1;-1.160230160E0;4.916023731E0
1.948735313E1;1.539624882E1;-2.255893469E0;5.339836121E0
1.949926562E1;1.563911724E1;-3.673394918E0;5.721930981E0
1.951117656E1;1.538904762E1;-3.958678484E0;6.946479321E0
1.952308750E1;1.518658352E1;-3.731248617E0;7.177663803E0
1.953500625E1;1.451566219E1;-3.080533266E0;6.360273361E0
1.954691094E1;1.349045467E1;-1.792567492E0;5.053987503E0
1.955882188E1;1.288570786E1;-4.937226772E-1;4.096076488E0
1.957073438E1;1.172380257E1;-2.596655190E-1;2.586886883E0
1.958264531E1;1.062894344E1;-7.947791815E-1;8.806352615E-1
1.959455938E1;9.947084427E0;-1.669055462E0;-1.198537350E0
1.960647813E1;9.699485779E0;-2.897740841E0;-2.637098074E0
1.961837969E1;9.727870941E0;-4.117280006E0;-3.260069609E0
1.963029219E1;1.037667084E1;-5.328889847E0;-3.478938103E0
1.964220312E1;1.145703125E1;-5.986366272E0;-3.112395287E0
1.965411563E1;1.188092899E1;-6.437069893E0;-3.924843550E0
1.966602812E1;1.120251751E1;-6.319648266E0;-5.690567493E0
1.967793750E1;9.591075897E0;-5.335918903E0;-7.364200592E0
1.968985000E1;8.321784973E0;-3.192935944E0;-8.631432533E0
1.970176094E1;7.431745529E0;-7.414268255E-1;-8.587991714E0
1.971367812E1;6.616519928E0;1.033184171E0;-8.275481224E0
1.972558438E1;7.078026295E0;2.348127604E0;-6.948796749E0
1.973749531E1;7.442203522E0;2.671258688E0;-4.333600998E0
1.974940781E1;7.219427586E0;2.187898159E0;-2.407781601E0
1.976132031E1;7.254919529E0;1.619313478E0;-1.859088063E0
1.977323281E1;7.291081429E0;6.706733108E-1;-1.597985983E0
1.978514219E1;7.367877960E0;-5.588161945E-1;-1.374271750E0
1.979705469E1;7.900798321E0;-1.360873818E0;-9.161365032E-1
1.980896563E1;8.495661736E0;-1.833115697E0;-4.152311981E-1
1.982087812E1;8.672334671E0;-2.143040180E0;-2.245282233E-1
1.983279688E1;8.457009315E0;-2.185705185E0;-1.306468099E-1
1.984470156E1;7.833272457E0;-2.188252449E0;-2.732454538E-1
1.985661250E1;7.007033825E0;-2.045529366E0;-5.151172876E-1
1.986852500E1;6.322703838E0;-1.798102856E0;-5.181531310E-1
1.988043594E1;5.898355484E0;-1.530048132E0;-3.533746004E-1
1.989235469E1;5.836555958E0;-1.262922287E0;7.427770644E-2
1.990426094E1;6.021206379E0;-9.996653795E-1;5.042476058E-1
1.991617031E1;6.137488365E0;-8.872815371E-1;7.121983767E-1
1.992808281E1;6.247391701E0;-8.941481113E-1;7.044315934E-1
1.993999375E1;6.535442829E0;-9.638864994E-1;5.652805567E-1
1.995190625E1;6.914339542E0;-1.057873249E0;5.373833776E-1
1.996381719E1;7.357142448E0;-8.377694488E-1;5.424208045E-1
1.997572812E1;8.246243477E0;-4.865113497E-1;7.118248940E-1
1.998764844E1;9.449885368E0;-4.041412473E-1;1.182783604E0
1.999955156E1;1.058104038E1;-5.244546533E-1;1.532471061E0
2.001146719E1;1.090430546E1;-1.069959164E0;1.827379227E0
2.002337812E1;1.068619347E1;-1.865016103E0;2.166781187E0
2.003528594E1;1.016850948E1;-2.736093760E0;2.608453989E0
2.004719844E1;9.575342178E0;-3.386636734E0;2.990128279E0
2.005910938E1;9.100896835E0;-3.704643965E0;3.314312458E0
2.007102344E1;9.003357887E0;-3.989046335E0;3.528047800E0
2.008294688E1;9.728110313E0;-4.025897980E0;3.629370451E0
2.009484375E1;1.064303112E1;-3.861512184E0;3.498809814E0
2.010675625E1;1.104450989E1;-3.845365763E0;3.167873621E0
2.011866719E1;8.925124168E0;-3.874163151E0;2.777752876E0
2.013057969E1;6.472005844E0;-3.241145849E0;2.341433525E0
2.014249062E1;5.571508408E0;-1.238386512E0;2.094974279E0
2.015440156E1;5.054744244E0;9.191340208E-1;1.780768871E0
2.016631406E1;5.058996201E0;1.862219572E0;-1.366447568E0
2.017822500E1;6.108747959E0;2.779754400E0;-4.552239418E0
2.019014219E1;8.401924133E0;2.397984505E0;-5.643640995E0
2.020204844E1;1.154127789E1;9.480272532E-1;-5.614862919E0
2.021395938E1;1.350987720E1;-3.459334075E-1;-4.983837605E0
2.022587188E1;1.313005066E1;-7.494904995E-1;-3.840155840E0
2.023778281E1;1.123918724E1;-1.668279804E-2;-2.689224958E0
2.024969375E1;9.636240005E0;1.348510087E-1;-1.341978788E0
2.026160938E1;9.354328156E0;-3.982898295E-1;1.324280798E-1
2.027352813E1;1.022191048E1;-1.292150617E0;1.098478913E0
2.028542969E1;1.124807453E1;-2.736448050E0;1.985473156E0
2.029734062E1;1.252445221E1;-4.005815506E0;1.655149937E0
2.030925156E1;1.366007900E1;-5.031596661E0;1.957882285E0
2.032116406E1;1.364878845E1;-5.649798870E0;2.084583521E0
2.033307500E1;1.332491970E1;-5.360100746E0;2.028607130E0
2.034498750E1;1.245193672E1;-5.117050648E0;2.484194994E0
2.035690000E1;1.224627399E1;-4.838768005E0;3.176080942E0
2.036881094E1;1.311838627E1;-4.484952450E0;3.224482059E0
2.038072188E1;1.417456436E1;-4.356364727E0;2.651568890E0
2.039263438E1;1.476315498E1;-4.474130630E0;1.858360171E0
2.040455000E1;1.536709785E1;-4.639139175E0;1.670836806E0
2.041645781E1;1.698545265E1;-3.733958721E0;2.890567541E0
2.042837500E1;1.862740707E1;-2.999609232E0;4.312675476E0
2.044027969E1;1.918834877E1;-3.236204147E0;4.946784496E0
2.045219219E1;1.810402298E1;-4.605955601E0;3.849454880E0
2.046410312E1;1.712871361E1;-4.279951572E0;2.468632460E0
2.047601563E1;1.511100388E1;-2.804175377E0;6.917998195E-1
2.048792656E1;1.317821312E1;-9.586191773E-1;-1.762256980E0
2.049983750E1;1.157992077E1;1.238156557E0;-3.263038397E0
2.051175000E1;1.041258430E1;3.355033159E0;-3.125324011E0
2.052366094E1;1.005581951E1;4.876682758E0;-1.033548117E0
2.053557344E1;1.022117329E1;5.244518280E0;1.100432634E0
2.054748438E1;8.988330841E0;4.671939850E0;2.669170856E0
2.055939531E1;7.076934338E0;3.961120605E0;4.558904648E0
2.057130781E1;5.397593975E0;3.988356829E0;5.245073318E0
2.058321875E1;4.943307877E0;4.092705727E0;4.550640106E0
2.059513125E1;5.185658455E0;4.296423912E0;3.302379847E0
2.060704688E1;4.925754070E0;4.377337933E0;2.608779430E0
2.061895469E1;5.533977032E0;4.715897560E0;3.386043072E0
2.063086563E1;6.636209965E0;4.678634167E0;5.093616009E0
2.064278281E1;8.122290611E0;4.542557240E0;5.606875420E0
2.065468906E1;9.016850471E0;3.875025034E0;4.197361469E0
2.066660000E1;8.843233109E0;3.175381899E0;2.163793325E0
2.067851094E1;8.480875015E0;2.646464348E0;3.902644515E-1
2.069042344E1;8.190133095E0;2.193902731E0;-9.947908521E-1
2.070233438E1;7.810767174E0;1.821048975E0;-1.807986259E0
2.071424688E1;7.365071774E0;1.368209720E0;-2.547133684E0
2.072616719E1;7.022883415E0;8.692771792E-1;-2.891008139E0
2.073806875E1;6.696371555E0;2.080848515E-1;-2.818348885E0
2.074998125E1;6.578126431E0;1.964011490E-1;-2.247188330E0
2.076189375E1;7.118172169E0;6.713150144E-1;-1.405846596E0
2.077380469E1;8.565860748E0;1.321675897E0;-1.007719517E0
2.078571562E1;1.015118599E1;1.938728809E0;-1.047626138E0
2.079762813E1;1.119309330E1;2.577482700E0;-1.177899241E0
2.080953906E1;1.119401360E1;2.907748222E0;-1.000852942E0
2.082145000E1;1.075091362E1;3.118265867E0;-4.554729164E-1
2.083336250E1;1.010038948E1;3.126482725E0;1.420432031E-1
2.084527500E1;9.287615776E0;2.845527887E0;9.717872739E-1
2.085718594E1;8.958872795E0;2.565004110E0;1.420872569E0
2.086909688E1;8.723532677E0;1.920101881E0;2.106657982E0
2.088100938E1;8.849131584E0;1.422404766E0;2.843631506E0
2.089292031E1;9.047821999E0;6.036548615E-1;2.941429853E0
2.090483438E1;9.911612511E0;4.281120002E-1;2.928128004E0
2.091674375E1;1.122130775E1;6.909474730E-1;2.963926077E0
2.092865469E1;1.175290585E1;7.584735155E-1;3.104245424E0
2.094056719E1;1.111600113E1;1.058438182E0;3.328151226E0
2.095247813E1;1.004997730E1;1.346317053E0;3.838115931E0
2.096439062E1;8.853326797E0;1.543618441E0;3.984650612E0
2.097630312E1;8.072836876E0;1.770684600E0;3.678231239E0
2.098821250E1;7.758822441E0;1.828767776E0;3.045616150E0
2.100012344E1;7.990993023E0;2.012135029E0;2.079670668E0
2.101203594E1;9.008337021E0;2.443177462E0;1.136259437E0
2.102395313E1;1.044750118E1;3.041268349E0;3.125391006E-1
2.103585938E1;1.150516415E1;3.580442429E0;-6.485796571E-1
2.104777031E1;1.125630093E1;3.960641623E0;-1.580134749E0
2.105968125E1;1.017622852E1;4.296519756E0;-2.703207016E0
2.107159375E1;9.187758446E0;4.438658237E0;-3.670157909E0
2.108350469E1;8.750414848E0;4.374522686E0;-4.239872456E0
2.109541719E1;9.501714706E0;3.979613304E0;-4.045588017E0
2.110732813E1;9.972098351E0;3.521430254E0;-3.100156069E0
2.111924688E1;1.026791668E1;3.075936317E0;-1.820502996E0
2.113115156E1;1.029684830E1;2.775846958E0;-6.899706125E-1
2.114306563E1;1.009862804E1;2.548589468E0;1.426178068E-1
2.115497500E1;1.000562763E1;2.429090023E0;7.056765556E-1
2.116688594E1;9.678186417E0;2.328581333E0;9.449243546E-1
2.117879844E1;9.569241524E0;2.402495146E0;1.011866331E0
2.119070938E1;9.580225945E0;2.467770815E0;1.099149346E0
2.120262188E1;9.657673836E0;2.515625954E0;1.169720650E0
2.121453281E1;9.783416748E0;2.646081209E0;1.381119132E0
2.122644375E1;9.925852776E0;2.782579660E0;1.498185992E0
2.123835625E1;9.812711716E0;2.766576767E0;1.502390265E0
2.125026719E1;9.505306244E0;2.679207563E0;1.403289557E0
2.126217969E1;9.009506226E0;2.527951479E0;1.182065248E0
2.127409219E1;8.540798187E0;2.326550961E0;8.243619204E-1
2.128600312E1;8.165262222E0;2.057059765E0;4.293378294E-1
2.129791406E1;7.839488029E0;1.878892779E0;-9.288544953E-2
2.130982656E1;8.025680542E0;1.874142766E0;-6.139882207E-1
2.132173750E1;9.037958145E0;2.119606018E0;-8.083399534E-1
2.133365312E1;1.016418076E1;2.330927849E0;-7.674852610E-1
2.134556094E1;1.075972462E1;2.381062269E0;-5.029451847E-1
2.135747188E1;1.096426582E1;2.243347883E0;-1.529990733E-1
2.136938438E1;1.066760540E1;2.063687086E0;2.434137017E-1
2.138129531E1;1.038088512E1;1.950718880E0;5.367416739E-1
2.139320625E1;1.008560371E1;1.963350654E0;7.707509995E-1
2.140511875E1;9.922979355E0;2.114635468E0;8.129655719E-1
2.141703906E1;9.360974312E0;2.068590403E0;6.852684617E-1
2.142894219E1;8.774710655E0;1.841792345E0;5.521891117E-1
2.144085625E1;8.183046341E0;1.550561666E0;5.083848238E-1
2.145276719E1;8.347078323E0;1.405616641E0;5.197524428E-1
2.146467656E1;9.239828110E0;1.568077683E0;5.757863522E-1
2.147658750E1;1.040197372E1;1.906205893E0;5.754607320E-1
2.148850000E1;1.164944839E1;2.393761158E0;4.627896249E-1
2.150041250E1;1.282172585E1;3.221005917E0;2.100385278E-1
2.151233750E1;1.315003777E1;4.010038853E0;-5.249335170E-1
2.152423438E1;1.237660503E1;4.417263508E0;-1.478074789E0
2.153614531E1;1.134862137E1;4.307034492E0;-2.407053709E0
2.154805781E1;1.089250660E1;3.799186230E0;-2.877246380E0
2.155996875E1;1.080657387E1;3.189354420E0;-2.838948488E0
2.157187969E1;1.028405380E1;2.395398617E0;-2.283311844E0
2.158379219E1;9.687102318E0;1.649806023E0;-1.686552286E0
2.159570312E1;8.763008118E0;1.146228909E0;-7.033302784E-1
2.160761406E1;7.065567017E0;1.248911396E-1;6.313797235E-1
2.161953281E1;5.355867863E0;-1.094169259E0;1.505608201E0
2.163143906E1;3.447276831E0;-2.038241386E0;1.682932258E0
2.164335000E1;1.971864462E0;-2.521391392E0;1.871327162E0
2.165526094E1;5.060480237E-1;-3.426389933E0;1.816452146E0
2.166717344E1;-2.967948318E-1;-3.493082762E0;1.455578804E0
2.167908438E1;1.643475771E0;-1.609401464E0;1.087934852E0
2.169099688E1;5.706502914E0;7.172358036E-1;4.426783025E-1
2.170290781E1;1.231407833E1;3.354142666E0;-3.973225653E-1
2.171481875E1;2.541668129E1;4.101822853E0;4.803420067E0
2.172673125E1;3.567518234E1;2.401767254E0;4.690040112E0
2.173864219E1;2.043746185E1;1.828997731E0;-2.757287025E0
2.175056406E1;1.036929703E1;3.395906925E0;-6.595584869E0
2.176246562E1;7.177223206E0;4.561892509E0;-6.912692547E0
2.177437656E1;6.311939240E0;4.868408203E0;-6.384311199E0
2.178628906E1;5.207809925E0;3.394144773E0;-4.376236916E0
2.179820781E1;3.463174582E0;9.780888557E-1;-4.115537167E0
2.181011094E1;1.740335703E0;-2.186672390E-1;-5.295514584E0
2.182202344E1;1.015869379E0;-1.200165376E-1;-9.557988167E0
2.183394219E1;7.086865902E0;1.005085930E-1;-9.113145828E0
2.184584688E1;1.056571770E1;-2.758599222E-1;-7.043300629E0
2.185776406E1;1.322002506E1;5.990388393E-1;-5.923561573E0
2.186967188E1;1.402718735E1;1.616258502E0;-5.245973587E0
2.188158281E1;1.134588242E1;8.981128931E-1;-4.361450195E0
2.189349375E1;1.004977608E1;7.225700468E-2;-4.032304764E0
2.190540469E1;9.619002342E0;-3.124624491E-1;-3.826652527E0
2.191731719E1;1.051601410E1;-1.269118488E-1;-3.163535357E0
2.192922812E1;1.149046421E1;-1.447821707E-1;-2.641187429E0
2.194113906E1;1.239066410E1;-4.759768546E-1;-3.222298622E0
2.195305156E1;1.261395741E1;-9.304633737E-1;-2.290915728E0
2.196496250E1;1.193101597E1;-2.720071793E0;-1.146190524E0
2.197688125E1;1.221374226E1;-2.208047628E0;-1.699720502E0
2.198878750E1;1.202823925E1;-8.909973502E-1;-2.911579132E0
2.200069688E1;1.289329338E1;2.182908773E0;-5.491915941E-1
2.201260938E1;1.304639721E1;6.444769382E0;2.192590714E0
2.202452188E1;1.190792561E1;8.991559029E0;3.175889492E0
2.203643281E1;1.087919521E1;8.952025414E0;2.240580082E0
2.204834531E1;9.488891602E0;7.028121471E0;-2.557945967E0
2.206025625E1;8.969598770E0;3.386694193E0;-4.532166481E0
2.207216875E1;1.044482040E1;1.301861525E0;-1.848534465E0
2.208407969E1;1.190383720E1;9.724001884E-1;1.989581585E-1
2.209599063E1;1.204255676E1;3.628939390E-1;1.875627160E0
2.210790312E1;1.188712502E1;7.864569426E-1;3.315490484E0
2.211981250E1;1.162212467E1;1.928146362E0;4.565014839E0
2.213172500E1;1.128842163E1;2.748112440E0;5.785301208E0
2.214363750E1;1.118325901E1;3.367559671E0;6.000894070E0
2.215554844E1;1.125634861E1;4.058267593E0;5.330029488E0
2.216745938E1;1.147272778E1;4.255817890E0;4.208958626E0
2.217937188E1;1.151105404E1;4.125190258E0;3.126224041E0
2.219128281E1;1.101490784E1;3.803447962E0;2.209206581E0
2.220319375E1;1.025156975E1;3.365060091E0;1.451939702E0
2.221510781E1;9.813584328E0;3.133655787E0;1.079823256E0
2.222701719E1;9.650969505E0;3.074710369E0;8.553429246E-1
2.223892969E1;9.542128563E0;3.053095818E0;7.598525882E-1
2.225084063E1;9.250430107E0;2.902921677E0;7.443572879E-1
2.226275312E1;9.056997299E0;2.719496965E0;6.520177722E-1
2.227466406E1;8.824893951E0;2.512820005E0;6.512132287E-1
2.228657813E1;8.654081345E0;2.212606192E0;8.236724138E-1
2.229848750E1;8.528768539E0;2.003065825E0;1.107691765E0
2.231039844E1;8.292183876E0;1.767543316E0;1.199926019E0
2.232231094E1;8.072376251E0;1.613481164E0;1.368152261E0
2.233422188E1;7.849150658E0;1.545150757E0;1.750506282E0
2.234613438E1;7.713323116E0;1.619754076E0;1.984994292E0
2.235804531E1;7.735991001E0;1.700362086E0;2.192389727E0
2.236995781E1;7.671797752E0;1.802527428E0;2.236931324E0
2.238186875E1;7.678367615E0;1.997195244E0;1.994130611E0
2.239378750E1;7.705824375E0;2.443186998E0;1.577108502E0
2.240569531E1;7.495623112E0;2.848371983E0;1.170237899E0
2.241760313E1;7.342815399E0;3.257761478E0;1.292514563E0
2.242951562E1;7.071437359E0;3.419360638E0;1.859825492E0
2.244142656E1;7.621960640E0;4.117452145E0;2.836745739E0
2.245334375E1;8.286542892E0;4.666433334E0;3.346538544E0
2.246525000E1;8.911256790E0;4.731996059E0;2.991267920E0
2.247716094E1;8.978668213E0;3.420165062E0;1.134276986E0
2.248907344E1;9.336916924E0;2.122948170E0;-5.513367653E-1
2.250098438E1;9.522200584E0;9.488221407E-1;-1.560416102E0
2.251289688E1;9.040362358E0;1.989102811E-1;-1.486186266E0
2.252480938E1;8.342366219E0;1.751981080E-1;-9.242193103E-1
2.253671875E1;8.186934471E0;1.187227130E0;3.925054371E-1
2.254863125E1;7.781902313E0;2.342151880E0;1.676917911E0
2.256054219E1;7.484015942E0;3.034142971E0;2.243644714E0
2.257245938E1;7.185478210E0;3.217251778E0;2.032600641E0
2.258436719E1;7.089576244E0;3.045664072E0;1.036804199E0
2.259627656E1;7.196481705E0;2.777628422E0;-2.010267526E-1
2.260820156E1;7.405103207E0;2.673892260E0;-1.076404333E0
2.262010000E1;7.781949997E0;3.095674038E0;-1.528582931E0
2.263201719E1;8.280299187E0;3.953325033E0;-2.073436022E0
2.264392500E1;8.801401138E0;4.862795830E0;-2.706874847E0
2.265583438E1;8.908823967E0;5.304162025E0;-2.822495699E0
2.266774531E1;8.808143616E0;5.299594402E0;-2.276780605E0
2.267965781E1;8.623014450E0;4.774306297E0;-1.267471194E0
2.269156875E1;8.734268188E0;4.236511230E0;-1.014375389E-1
2.270348125E1;8.781242371E0;4.096345425E0;3.991900384E-1
2.271539219E1;8.745301247E0;4.190820217E0;9.789794683E-1
2.272730469E1;8.591296196E0;4.069453239E0;1.017449498E0
2.273921562E1;8.689688683E0;3.960804462E0;1.007700324E0
2.275112812E1;8.952466011E0;4.081711769E0;1.403145909E0
2.276303906E1;8.711724281E0;3.998403072E0;1.955315828E0
2.277495156E1;8.453293800E0;3.833815813E0;2.250578403E0
2.278686250E1;8.498343468E0;3.992551565E0;2.404286146E0
2.279877344E1;8.771158218E0;4.659298420E0;2.383533239E0
2.281068750E1;9.083764076E0;5.316870689E0;2.403826475E0
2.282260000E1;9.057686806E0;5.737829208E0;2.678431749E0
2.283450938E1;9.318463326E0;6.179262161E0;3.102990627E0
2.284642031E1;9.773361206E0;6.613666058E0;3.119347811E0
2.285833281E1;9.997323990E0;6.353464127E0;2.587930918E0
2.287024375E1;1.001180458E1;4.951515675E0;1.456967473E0
2.288215469E1;1.015814781E1;3.282172918E0;2.378974557E-1
2.289406719E1;1.105349350E1;2.132726192E0;-6.246280670E-1
2.290597812E1;1.244074154E1;2.161274672E0;-5.666213632E-1
2.291789063E1;1.330600548E1;2.720502615E0;-4.494491220E-1
2.292980781E1;1.299508476E1;3.311688423E0;-9.510630965E-1
2.294171406E1;1.219705009E1;4.188062191E0;-1.275017738E0
2.295362500E1;1.142047691E1;4.835453987E0;-1.336136937E0
2.296553594E1;1.100551224E1;5.155118465E0;-1.300310016E0
2.297744844E1;1.140528679E1;5.439970970E0;-1.137427688E0
2.298936250E1;1.196294498E1;5.877468109E0;-6.540096998E-1
2.300127031E1;1.205348396E1;5.852568150E0;-3.519572020E-1
2.301318281E1;1.198818970E1;5.388275623E0;-5.652422905E-1
2.302509375E1;1.227954483E1;5.463396072E0;-5.742349029E-1
2.303700469E1;1.237829113E1;5.822784901E0;-4.689762294E-1
2.304891719E1;1.244327927E1;6.561923027E0;1.511220075E-2
2.306083594E1;1.231490231E1;7.273603916E0;4.624927342E-1
2.307275313E1;1.192721367E1;7.748958588E0;4.532606900E-1
2.308465156E1;1.184072590E1;7.752731323E0;1.384040117E-1
2.309656406E1;1.232588673E1;7.240831852E0;-1.815762557E-2
2.310847656E1;1.236479664E1;5.108948708E0;6.728377342E-1
2.312039063E1;1.283958721E1;2.340571642E0;2.668701649E0
2.313229844E1;1.356952190E1;3.871519864E-1;4.241548538E0
2.314420938E1;1.432530403E1;-1.104857087E0;5.230095387E0
2.315612188E1;1.341278744E1;-2.538686991E0;6.153586864E0
2.316803906E1;1.028752041E1;-4.193836689E0;6.078418255E0
2.317994531E1;8.631633759E0;-5.076540947E0;5.057770252E0
2.319185625E1;8.140879631E0;-6.340037823E0;3.372147083E0
2.320376719E1;1.004813862E1;-6.612880707E0;2.838421822E0
2.321567969E1;1.232617378E1;-7.911016941E0;1.665435433E0
2.322759844E1;1.373301697E1;-9.995676994E0;2.021826744E0
2.323950156E1;1.352296829E1;-8.572774887E0;1.798581839E0
2.325141406E1;1.281397820E1;-6.083609104E0;2.357905507E-1
2.326332812E1;1.065014648E1;-4.405197144E0;-1.422922015E0
2.327523750E1;9.039183617E0;-2.623757839E0;-2.387689352E0
2.328715469E1;7.408473969E0;-1.539327979E0;-3.270517826E0
2.329906094E1;5.854311466E0;-1.066176295E0;-4.206918716E0
2.331097188E1;5.080706596E0;-9.765182734E-1;-4.537855148E0
2.332288438E1;5.130879402E0;-8.624872565E-1;-3.824526548E0
2.333479531E1;5.991087437E0;-6.051105261E-1;-1.899425507E0
2.334671406E1;7.101020336E0;-3.878702521E-1;-1.444086730E-1
2.335861875E1;8.085200310E0;-8.377791196E-2;6.028025746E-1
2.337052969E1;8.381755829E0;-1.024430990E-1;8.988407850E-1
2.338244219E1;8.373165131E0;-1.655925661E-1;7.773972750E-1
2.339435313E1;8.000598907E0;-9.168834984E-2;3.905709088E-1
2.340626563E1;7.682868481E0;-1.946677566E-1;-6.346549839E-2
2.341817656E1;7.827966690E0;-3.705841005E-1;-2.632281184E-1
2.343008750E1;8.288093567E0;-2.687347829E-1;-3.222595453E-1
2.344200000E1;8.675457001E0;-1.256572753E-1;-1.171243414E-1
2.345391094E1;9.191024780E0;1.598847955E-1;-1.168370433E-2
2.346583906E1;9.927940369E0;6.446436048E-1;-1.819401681E-1
2.347773594E1;1.065625668E1;9.209631681E-1;-9.460927546E-2
2.348964531E1;1.083104324E1;6.787753105E-1;3.542173505E-1
2.350155781E1;1.063004494E1;4.625693262E-1;8.909878135E-1
2.351346875E1;9.873180389E0;9.696517140E-2;1.704154372E0
2.352538750E1;9.014849663E0;-3.612658679E-1;1.941678524E0
2.353729531E1;8.481440544E0;-7.124953270E-1;1.659976721E0
2.354920313E1;8.889633179E0;-9.474143386E-1;1.590822458E0
2.356111563E1;9.726856232E0;-1.446002126E0;1.894292355E0
2.357302656E1;1.060151577E1;-1.837990403E0;2.105278969E0
2.358494531E1;1.090583801E1;-2.088826180E0;2.078914165E0
2.359685469E1;1.018599701E1;-2.094888210E0;1.962565422E0
2.360876094E1;9.046318054E0;-1.621592760E0;1.617551446E0
2.362067344E1;7.996126175E0;-8.290258646E-1;1.263966084E0
2.363258438E1;7.219245911E0;-3.026270773E-3;9.362573624E-1
2.364449688E1;6.804675579E0;5.443552732E-1;8.004869819E-1
2.365640781E1;7.107771873E0;1.011770487E0;8.286236525E-1
2.366832031E1;8.454682350E0;1.365518570E0;8.910931349E-1
2.368023125E1;1.046121502E1;1.505579352E0;8.012914658E-1
2.369214219E1;1.222152805E1;1.410481691E0;4.725196660E-1
2.370405469E1;1.374534225E1;1.275190234E0;5.278735608E-2
2.371596563E1;1.403733921E1;1.006235123E0;-3.412790895E-1
2.372787656E1;1.274778366E1;4.763216376E-1;-7.609155774E-1
2.373978906E1;1.082388020E1;-2.971587479E-1;-7.962827682E-1
2.375170156E1;9.579287529E0;-1.013791203E0;-3.512198329E-1
2.376361406E1;9.400938034E0;-1.643504500E0;4.828530252E-1
2.377552969E1;9.899564743E0;-2.120170832E0;1.466486812E0
2.378743594E1;1.025147343E1;-2.557534218E0;2.330745935E0
2.379934688E1;1.019831276E1;-2.798342943E0;2.731937170E0
2.381125938E1;9.807387352E0;-2.915496111E0;2.800392389E0
2.382320781E1;9.520131111E0;-2.663223982E0;2.742605925E0
2.383508438E1;9.346916199E0;-1.898534894E0;2.399143219E0
2.384699375E1;9.170835495E0;-9.350602627E-1;1.973406315E0
2.385890469E1;9.224006653E0;1.242207661E-1;1.445360303E0
2.387081719E1;9.361701965E0;1.076710820E0;8.331534266E-1
2.388273750E1;9.510411263E0;1.822179079E0;3.364811242E-1
2.389464062E1;9.766551971E0;2.484290838E0;2.919010818E-2
2.390655156E1;1.000485134E1;2.723097801E0;-2.001265287E-1
2.391846406E1;1.018723202E1;2.481341124E0;-2.003276497E-1
2.393037500E1;1.015620327E1;1.905104637E0;-1.354351938E-1
2.394229531E1;1.000152874E1;1.135033607E0;-9.744400531E-2
2.395419844E1;1.008656120E1;2.374377698E-1;-1.433647983E-2
2.396610938E1;1.040820789E1;-5.618233681E-1;7.476612926E-2
2.397802344E1;1.091546249E1;-1.090281129E0;1.426848471E-1
2.398993281E1;1.155866051E1;-1.098794937E0;2.392669320E-1
2.400185938E1;1.172335243E1;-7.586458921E-1;5.179903507E-1
2.401375625E1;1.144731998E1;-1.386625767E-1;1.032063723E0
2.402566563E1;1.098554611E1;3.834744990E-1;9.525188208E-1
2.403757969E1;1.037965965E1;5.643037558E-1;7.405456901E-1
2.404949062E1;9.922088623E0;6.822133660E-1;7.320128083E-1
2.406140938E1;9.472888947E0;7.416566610E-1;8.889766932E-1
2.407331406E1;8.894813538E0;8.196023107E-1;1.101830840E0
2.408524062E1;8.447509766E0;7.560122609E-1;1.338282108E0
2.409713594E1;8.023534775E0;6.139307618E-1;1.500953794E0
2.410904844E1;7.838798523E0;4.702882469E-1;1.414618850E0
2.412096562E1;8.046346664E0;3.204495311E-1;1.397466779E0
2.413287188E1;9.288209915E0;4.061045051E-1;1.408077836E0
2.414478281E1;1.069919968E1;5.016139746E-1;1.679206967E0
2.415669375E1;1.198730850E1;4.716194272E-1;2.043815136E0
2.416860469E1;1.251617813E1;2.412780821E-1;2.453807831E0
2.418051719E1;1.201002407E1;-3.204878569E-1;2.841505527E0
2.419242813E1;1.070733929E1;-7.854896784E-1;3.433773756E0
2.420434062E1;9.087106705E0;-1.321752548E0;4.147437572E0
2.421625156E1;7.921034336E0;-1.759144545E0;4.783528805E0
2.422816406E1;7.533451080E0;-1.997051477E0;5.204496384E0
2.424008125E1;7.710172176E0;-2.027055740E0;5.421305656E0
2.425198750E1;8.291944504E0;-1.800171494E0;5.164857864E0
2.426389844E1;8.645491600E0;-1.357234597E0;4.363020897E0
2.427581094E1;8.568723679E0;-1.252416492E0;3.632856131E0
2.428772188E1;8.088207245E0;-1.299926996E0;3.078780413E0
2.429964063E1;7.621654034E0;-1.552400351E0;2.994677067E0
2.431155156E1;7.453992844E0;-1.803102016E0;3.034344196E0
2.432345625E1;7.555372715E0;-2.041095257E0;3.401317835E0
2.433536875E1;7.684381962E0;-1.988920808E0;3.980264664E0
2.434728125E1;7.698210716E0;-1.509984732E0;4.481466770E0
2.435919219E1;7.517429352E0;-7.092295289E-1;4.994400501E0
2.437110312E1;7.607939720E0;7.017884403E-2;5.294403553E0
2.438301563E1;8.254900932E0;5.845970511E-1;5.608790874E0
2.439492656E1;8.948769569E0;1.240924358E0;5.896037579E0
2.440683750E1;9.206796646E0;1.444172859E0;6.095733166E0
2.441875625E1;9.510621071E0;1.373821616E0;5.690653324E0
2.443066250E1;1.007669735E1;1.228579879E0;4.731421471E0
2.444257344E1;1.060466576E1;1.124431968E0;2.762688398E0
2.445448438E1;1.095162392E1;1.311840534E0;7.024300694E-1
2.446639688E1;1.118713760E1;1.176175594E0;-1.522951603E0
2.447833281E1;1.124006844E1;3.549547791E-1;-3.032438517E0
2.449022188E1;1.188609123E1;-2.789819539E-1;-2.833480120E0
2.450213750E1;1.193961620E1;-1.600571752E0;-2.264665842E0
2.451404219E1;1.229130459E1;-2.126730919E0;-1.797470808E0
2.452595469E1;1.240236759E1;-1.463747978E0;-1.538197994E0
2.453787031E1;1.153296566E1;-9.262687713E-2;-2.257406473E0
2.454977969E1;1.014180946E1;4.739561677E-1;-3.708522797E0
2.456168750E1;8.810719490E0;1.410472095E-1;-4.546205997E0
2.457360000E1;8.413702965E0;2.894685566E-1;-4.299305916E0
2.458551250E1;9.633309364E0;1.338061929E0;-3.703054190E0
2.459742969E1;1.140464592E1;2.160489321E0;-3.094094038E0
2.460933438E1;1.187393761E1;2.108104229E0;-2.136317492E0
2.462124688E1;1.100937271E1;1.211609721E0;-7.832966447E-1
2.463315781E1;1.057670212E1;4.632780254E-1;-4.707383811E-1
2.464507031E1;1.061434841E1;-2.090521157E-1;-1.086009853E-2
2.465698125E1;1.078035259E1;-5.883415341E-1;7.242364287E-1
2.466889219E1;1.158569527E1;4.002434909E-1;1.140473127E0
2.468080469E1;1.177602482E1;2.148882389E0;2.181606293E0
2.469271719E1;1.137801266E1;3.848267317E0;3.506921291E0
2.470462813E1;1.066195488E1;4.118553638E0;5.184864044E0
2.471653906E1;1.057929707E1;4.066120625E0;6.440278053E0
2.472845000E1;1.063983250E1;3.966119528E0;7.109084129E0
2.474036250E1;1.047535992E1;3.738249063E0;8.059849739E0
2.475227344E1;1.035359097E1;3.201880932E0;8.298121452E0
2.476418594E1;1.019353390E1;2.503520966E0;7.143272877E0
2.477609688E1;1.007051945E1;2.136010885E0;7.302046776E0
2.478800938E1;1.061048889E1;1.606164575E0;7.255235672E0
2.479992031E1;1.121624088E1;1.441299796E0;6.517074585E0
2.481183125E1;1.251272106E1;1.181825757E0;4.965756416E0
