"Time (s)";"Linear Acceleration x (m/s^2)";"Linear Acceleration y (m/s^2)";"Linear Acceleration z (m/s^2)"
2.382343700E-2;2.138999999E-1;4.290999770E-1;-1.428000033E-1
4.367500000E-2;6.791999936E-1;3.281999826E-1;-4.652999938E-1
6.352812500E-2;5.478000045E-1;4.129999876E-2;-6.843000054E-1
8.338125000E-2;3.357999921E-1;1.014999971E-1;-2.770999968E-1
1.032343750E-1;6.989999861E-2;5.150000006E-2;-8.299999684E-2
1.230859370E-1;2.469999939E-1;2.793000042E-1;4.690000042E-2
1.429390620E-1;1.614999920E-1;2.245999873E-1;1.160999984E-1
1.627906250E-1;2.215999961E-1;8.020000160E-2;5.899999756E-3
1.826437500E-1;-1.049999986E-2;7.239999622E-2;2.294999957E-1
2.024968750E-1;1.349999942E-2;1.762999892E-1;-1.158999950E-1
2.223500000E-1;1.163999960E-1;2.340999991E-1;-3.849999979E-2
2.422015620E-1;2.128999978E-1;8.249999583E-2;-6.469999999E-2
2.620546870E-1;3.091999888E-1;1.653999984E-1;2.611999810E-1
2.819078120E-1;3.304999769E-1;3.049999848E-2;2.292999923E-1
3.017593750E-1;1.876000017E-1;-2.188999951E-1;5.779999867E-2
3.216125000E-1;2.949999869E-1;-1.423999965E-1;-1.655000001E-1
3.414656250E-1;4.062999785E-1;6.850000024E-1;6.379999965E-2
3.613187500E-1;7.378999591E-1;-5.048999786E-1;7.658999562E-1
3.811703120E-1;1.321099997E0;-1.116599917E0;8.411999941E-1
4.010234370E-1;-1.180000007E-1;-7.050999999E-1;-2.840999961E-1
4.208765620E-1;-5.658000112E-1;3.032000065E-1;-8.266999722E-1
4.407281250E-1;-7.392999530E-1;1.084900022E0;-9.856999516E-1
4.605812500E-1;-1.040799975E0;1.515499949E0;-5.983999968E-1
4.804343750E-1;-6.729999930E-2;8.537999988E-1;-6.039999798E-2
5.002859370E-1;1.081900001E0;6.819999963E-2;-1.058999971E-1
5.201421870E-1;3.379999995E-1;-1.805000007E-1;4.875999987E-1
5.399921870E-1;-1.168599963E0;-5.659999698E-2;1.092800021E0
5.598453120E-1;-1.111299992E0;5.083999634E-1;-5.259999633E-1
5.796968750E-1;-2.744999826E-1;4.002999961E-1;-3.379999846E-2
5.995500000E-1;2.612999976E-1;-5.110999942E-1;-3.839999810E-2
6.194031250E-1;2.118999958E-1;-6.938999891E-1;4.272999763E-1
6.392546870E-1;5.469999835E-2;2.055999935E-1;5.780000091E-1
6.591078120E-1;-1.510699987E0;5.160999894E-1;3.243999779E-1
6.789609370E-1;-3.527999818E-1;-3.307999969E-1;1.395999938E-1
6.988140620E-1;3.470000029E-1;-3.158999979E-1;-7.328999639E-1
7.186656250E-1;4.409999847E-1;3.001999855E-1;-6.633999944E-1
7.385187500E-1;1.399699926E0;1.122300029E0;2.276999950E-1
7.583703120E-1;4.240999818E-1;7.554000020E-1;5.383999944E-1
7.782234370E-1;-4.967999756E-1;5.374000072E-1;8.780999780E-1
7.980765620E-1;2.980999947E-1;4.504999816E-1;1.209999993E-1
8.179296870E-1;3.330999911E-1;4.960999787E-1;1.480000000E-2
8.377812500E-1;-7.209999859E-2;5.260999799E-1;7.119999826E-2
8.576343750E-1;8.419999480E-2;6.520999670E-1;-7.706999779E-1
8.774875000E-1;2.506999969E-1;5.892999768E-1;-4.025000036E-1
8.973390620E-1;4.600000009E-2;3.668999970E-1;-6.509999931E-2
9.171921870E-1;2.935699940E0;1.186299920E0;-1.967799902E0
9.370453120E-1;2.441699982E0;1.280200005E0;-4.041999876E-1
9.568984370E-1;2.145099878E0;7.234999537E-1;-1.071999967E-1
9.767500000E-1;1.878899932E0;8.199999928E-1;1.530999988E-1
9.966031250E-1;2.447299957E0;1.415300012E0;3.227999806E-1
1.016456250E0;2.027799845E0;1.303200006E0;3.299999982E-2
1.036307812E0;9.960999489E-1;9.396999478E-1;-4.614000022E-1
1.056160937E0;1.052999943E-1;9.128999710E-1;-6.608999968E-1
1.076014062E0;-5.307999849E-1;7.748000026E-1;-8.428999782E-1
1.095865625E0;-9.544999599E-1;7.331999540E-1;-3.909999877E-2
1.115718750E0;-7.676999569E-1;6.894999743E-1;6.606999636E-1
1.135571875E0;-1.128899932E0;4.282999933E-1;8.240000010E-1
1.155425000E0;-9.005999565E-1;3.883999884E-1;6.352999806E-1
1.175276562E0;-1.389299989E0;-2.999999851E-4;8.295999765E-1
1.195129687E0;-2.005800009E0;-5.227999687E-1;7.299999893E-2
1.214982812E0;-2.618999958E0;-1.010200024E0;-2.725999951E-1
1.234834375E0;-2.402499914E0;-1.379999995E0;-4.800000042E-2
1.254687500E0;-2.050199986E0;-3.480999768E-1;-9.439999610E-2
1.274542187E0;-1.821299911E0;5.167999864E-1;-8.180999756E-1
1.294393750E0;-2.321399927E0;8.427000046E-1;-1.002200007E0
1.314246875E0;-2.201799870E0;5.622999668E-1;-9.544999599E-1
1.334096875E0;-1.249699950E0;1.005200028E0;3.867000043E-1
1.353950000E0;1.312399983E0;9.639999866E-1;2.174700022E0
1.373803125E0;2.494999886E0;8.533999920E-1;2.889999866E0
1.393654687E0;1.612999916E0;6.074000001E-1;1.562600017E0
1.413507812E0;-6.548999548E-1;-1.677999943E-1;-5.554999709E-1
1.433360937E0;-2.201200008E0;-1.030699968E0;-1.261799932E0
1.453214062E0;-7.184000015E-1;-1.138599992E0;2.939999998E-1
1.473065625E0;1.120299935E0;-3.490999937E-1;1.691999912E0
1.492918750E0;1.080099940E0;-2.924999893E-1;1.781299949E0
1.512771875E0;6.405000091E-1;-1.099999994E-1;3.957999945E-1
1.532623437E0;-5.547999740E-1;-8.413999677E-1;-5.799999833E-2
1.552476562E0;-6.642000079E-1;-8.555999994E-1;3.929999769E-1
1.572329687E0;6.572999954E-1;-9.129999578E-2;8.982999921E-1
1.592181250E0;1.021099925E0;-4.168999791E-1;1.573099971E0
1.612034375E0;5.351999998E-1;-3.506000042E-1;1.410300016E0
1.631887500E0;-4.774999917E-1;-7.807999849E-1;-4.402999878E-1
1.651739062E0;-1.120299935E0;6.849999726E-2;-1.541799903E0
1.671592187E0;-1.563999951E-1;4.227999747E-1;-1.936899900E0
1.691445312E0;9.241999984E-1;7.429999858E-2;-5.194999576E-1
1.711298437E0;6.333999634E-1;-6.890000105E-1;1.285699964E0
1.731150000E0;5.550000072E-1;-1.313799977E0;2.052399874E0
1.751003125E0;-3.669999838E-1;-1.295199990E0;9.725999832E-1
1.770856250E0;-3.689999878E-1;-5.138999820E-1;-1.779999882E-1
1.790707812E0;-9.849999845E-2;1.428000033E-1;-1.501999944E-1
1.810560937E0;-2.560999990E-1;-1.948999912E-1;2.067999989E-1
1.830414062E0;-8.098999858E-1;-1.053499937E0;3.580999970E-1
1.850267187E0;-5.698999763E-1;-7.660999894E-1;1.970999986E-1
1.870118750E0;3.312999904E-1;-3.999999911E-2;-3.014999926E-1
1.889971875E0;1.662999988E-1;5.370000005E-2;-1.067600012E0
1.909825000E0;6.250000000E-2;-1.559000015E-1;-1.240199924E0
1.929676562E0;-1.794999987E-1;-6.552999616E-1;-3.102000058E-1
1.949529687E0;3.831000030E-1;3.419999778E-2;1.205500007E0
1.969382812E0;1.003899932E0;6.645999551E-1;1.630999923E0
1.989234375E0;8.824999928E-1;8.104999661E-1;1.081300020E0
2.009087500E0;6.376999617E-1;1.075299978E0;4.126999974E-1
2.028940625E0;7.954999804E-1;1.228500009E0;-3.339999914E-2
2.048793750E0;5.127999783E-1;8.150999546E-1;6.427999735E-1
2.068645312E0;-5.557000041E-1;1.735000014E-1;1.792099953E0
2.088498437E0;-7.468999624E-1;1.298999935E-1;1.545399904E0
2.108351562E0;-1.058099985E0;2.786000073E-1;9.106000066E-1
2.128203125E0;-1.166399956E0;6.958999634E-1;1.209299922E0
2.148056250E0;-9.399999976E-1;6.322000027E-1;1.303699970E0
2.167909375E0;-7.008999586E-1;7.276999950E-1;1.095099926E0
2.187760937E0;-9.918999672E-1;1.350999922E-1;8.476999998E-1
2.207614062E0;-8.027999997E-1;1.413999945E-1;1.254999936E-1
2.227467187E0;-1.651999950E-1;-3.826999962E-1;1.269000024E-1
2.247318750E0;2.979999781E-1;-8.040999770E-1;3.233000040E-1
2.267171875E0;8.779999614E-2;-1.480499983E0;7.159999758E-2
2.287025000E0;3.524000049E-1;-1.276600003E0;1.026999950E-1
2.306878125E0;6.414999962E-1;-8.100999594E-1;-8.035999537E-1
2.326729687E0;5.533999801E-1;-8.605999947E-1;-1.965399981E0
2.346582812E0;3.909999877E-2;-1.728699923E0;-2.042399883E0
2.366435937E0;1.325999945E-1;-1.987599969E0;-1.161199927E0
2.386287500E0;1.329999976E-2;-2.139199972E0;-9.779999852E-1
2.406140625E0;-2.052000016E-1;-1.462799907E0;-4.138000011E-1
2.425993750E0;-1.146899939E0;-1.040199995E0;-1.103199959E0
2.445845312E0;-1.795300007E0;-1.510299921E0;-1.747099996E0
2.465698437E0;-1.142300010E0;-1.643199921E0;-9.508999586E-1
2.485551562E0;2.179999948E-1;-1.426299930E0;1.163100004E0
2.505403125E0;5.503999591E-1;-8.894000053E-1;1.322999954E0
2.525256250E0;9.617999792E-1;1.072999984E-1;4.825999737E-1
2.545109375E0;2.345999926E-1;1.147799969E0;-7.202000022E-1
2.564962500E0;5.286999941E-1;9.922999740E-1;-1.050400019E0
2.584814062E0;9.465000033E-1;1.160899997E0;2.284999937E-1
2.604667187E0;1.756299973E0;7.608999610E-1;1.168299913E0
2.624520312E0;2.057800055E0;5.774999857E-1;2.042899847E0
2.644373437E0;1.698199987E0;7.904999852E-1;1.747599959E0
2.664225000E0;9.763999581E-1;5.511999726E-1;5.112999678E-1
2.684076562E0;4.336999953E-1;-1.825999916E-1;1.877999902E-1
2.703929687E0;1.077999994E-1;-1.105499983E0;1.253000021E0
2.723782812E0;-6.527000070E-1;-1.851099968E0;2.087899923E0
2.743635937E0;-1.753999889E-1;-1.792599916E0;1.375100017E0
2.763487500E0;4.718999863E-1;-6.969999671E-1;7.685999870E-1
2.783340625E0;3.349999785E-1;3.129000068E-1;-5.056999922E-1
2.803192187E0;4.649999738E-1;1.031499982E0;-1.362599969E0
2.823045312E0;-3.499999875E-3;5.963000059E-1;-6.090999842E-1
2.842898437E0;-4.729999900E-1;1.964000016E-1;-3.865999877E-1
2.862751562E0;5.022000074E-1;6.071999669E-1;4.609999806E-2
2.882603125E0;1.082000017E0;1.298200011E0;-5.789999962E-1
2.902456250E0;2.067100048E0;1.510699987E0;2.510000020E-2
2.922309375E0;2.115599871E0;1.525699973E0;1.256799936E0
2.942160937E0;1.402400017E0;-7.669999450E-2;1.314399958E0
2.962014062E0;6.967999935E-1;-5.532999635E-1;1.878999949E0
2.981867187E0;6.402999759E-1;-3.851999938E-1;1.995000005E0
3.001720312E0;1.266699910E0;-2.172999978E-1;7.864999771E-1
3.021571875E0;1.433099985E0;-6.999999750E-3;-7.519999743E-1
3.041425000E0;-1.713999957E-1;1.127300024E0;-9.886999726E-1
3.061278125E0;-1.319299936E0;6.965999603E-1;-8.637999892E-1
3.081129687E0;-7.752000093E-1;6.079999804E-1;-8.363999724E-1
3.100982812E0;3.201999962E-1;9.083999991E-1;-2.326999903E-1
3.120835937E0;1.340699911E0;1.491099954E0;-2.610999942E-1
3.140687500E0;1.046499968E0;2.092900038E0;-6.365999579E-1
3.160540625E0;9.899999946E-3;1.416399956E0;1.467999965E-1
3.180393750E0;-1.836999953E-1;4.139999747E-1;4.758999944E-1
3.200246875E0;9.513999820E-1;1.245999932E-1;1.787799954E0
3.220098437E0;1.610299945E0;1.412999928E-1;1.316100001E0
3.239951562E0;1.433499932E0;-4.716999829E-1;-1.020099998E0
3.259804687E0;-6.559999585E-1;-6.344000101E-1;-9.440000057E-1
3.279656250E0;-2.312000036E0;-1.480199933E0;-1.069000006E0
3.299509375E0;-2.526999950E0;-3.044499874E0;-2.003999949E-1
3.319362500E0;2.142999917E-1;-2.004099846E0;7.379999757E-2
3.339215625E0;1.672899961E0;-2.090699911E0;3.935999870E-1
3.359067187E0;-3.303999901E-1;-3.094399929E0;-7.815999985E-1
3.378920312E0;-2.633999825E0;-1.467000008E0;6.499999668E-3
3.398771875E0;-2.082200050E0;1.162899971E0;-2.761999965E-1
3.418625000E0;-1.447699904E0;-1.507000029E-1;-1.209299922E0
3.438478125E0;-2.229999900E-1;-4.589999914E-1;-1.264899969E0
3.458331250E0;2.048999965E-1;-6.685999632E-1;-1.013299942E0
3.478182812E0;9.162999988E-1;-1.103899956E0;1.231499910E0
3.498035937E0;1.988399982E0;-3.542999923E-1;3.835399866E0
3.517890625E0;6.897000074E-1;-2.703000009E-1;4.516999722E0
3.537740625E0;-6.721999645E-1;-1.465999931E-1;3.965399981E0
3.557593750E0;-1.839499950E0;1.609999985E-1;3.273299932E0
3.577446875E0;-9.286999702E-1;5.871999860E-1;3.230599880E0
3.597300000E0;1.286899924E0;1.934699893E0;2.068899870E0
3.617151562E0;1.376399994E0;4.068599701E0;7.067999840E-1
3.637004687E0;-7.466999888E-1;4.032700062E0;-1.988099933E0
3.656857812E0;-3.765199900E0;4.738899708E0;-5.173699856E0
3.676709375E0;-2.329799891E0;7.443599701E0;-4.036900043E0
3.696562500E0;5.779500008E0;6.817199707E0;-7.556799889E0
3.716415625E0;1.206120014E1;4.189599991E0;-1.002409935E1
3.736267187E0;5.748300076E0;5.805199623E0;-1.287599921E0
3.756120312E0;-9.214999676E-1;4.598700047E0;-1.546299934E0
3.775973437E0;-4.834599972E0;-2.349499941E0;-5.632099628E0
3.795825000E0;-4.494400024E0;-8.739099503E0;2.522699833E0
3.815678125E0;-2.068599939E0;-6.018399715E0;3.553900003E0
3.835531250E0;-5.327999592E-1;-6.353999972E-1;-1.094200015E0
3.855384375E0;3.859799862E0;2.480399847E0;-2.793499947E0
3.875235937E0;1.919499993E0;-2.330399990E0;1.004799962E0
3.895096875E0;-4.691800117E0;-7.299999714E0;-5.399999619E-1
3.914942187E0;-3.217299938E0;-8.095799446E0;1.032199979E0
3.934793750E0;1.654599905E0;-5.189199924E0;1.283999920E0
3.954646875E0;2.250999957E-1;9.667999744E-1;-1.770299911E0
3.974500000E0;-8.200999498E-1;1.922499895E0;-3.031299829E0
3.994351562E0;-1.675799966E0;7.811999917E-1;-3.137300014E0
4.014204687E0;-2.081899881E0;1.482899904E0;-1.731899977E0
4.034059375E0;-1.842399955E0;2.315700054E0;3.155400038E0
4.053909375E0;-1.172399998E0;1.600799918E0;2.128900051E0
4.073762500E0;1.062999964E-1;3.006700039E0;-1.528100014E0
4.093614062E0;-2.094199896E0;1.699000001E0;-1.396600008E0
4.113467187E0;-7.554000020E-1;4.366199970E0;-1.616599917E0
4.133320312E0;-4.097999930E-1;5.237299919E0;-1.561800003E0
4.153171875E0;1.470399976E0;5.840899944E0;6.732000113E-1
4.173026562E0;4.199899673E0;-7.261899948E0;3.378599882E0
4.192878125E0;-1.781899929E0;-2.506779861E1;4.953599930E0
4.212731250E0;-4.028999805E0;-1.151669979E1;1.361599922E0
4.232582812E0;5.092999935E-1;2.172600031E0;1.708199978E0
4.252435937E0;2.100999832E0;4.667099953E0;1.579599977E0
4.272289062E0;6.104300022E0;4.101900101E0;-6.399999838E-3
4.292140625E0;4.100000020E-3;-1.626199961E0;-6.428999901E-1
4.311993750E0;8.446999788E-1;-3.387599945E0;-4.226799965E0
4.331846875E0;1.353899956E0;-2.097699881E0;-4.677999914E-1
4.351700000E0;1.388000011E0;-2.105999887E-1;-3.979999945E-2
4.371551562E0;7.943999767E-1;-2.572999895E-1;-4.769999906E-2
4.391407812E0;6.629999876E-1;-9.664999843E-1;-3.750000000E-1
4.411257812E0;-1.913999915E-1;7.609999925E-2;7.800000161E-2
4.431109375E0;2.531999946E-1;1.011199951E0;-3.140999973E-1
4.450962500E0;-1.331000030E-1;-1.306999922E-1;-4.348999858E-1
4.470815625E0;6.315999627E-1;-7.919999957E-2;4.449999705E-2
4.490667187E0;5.293999910E-1;7.192999721E-1;3.720000014E-2
4.510520312E0;3.199999919E-3;7.329999804E-1;-4.609999806E-2
4.530373437E0;7.662999630E-1;5.116999745E-1;5.645999908E-1
4.550225000E0;9.432999492E-1;3.452999890E-1;2.292999923E-1
4.570078125E0;5.059999824E-1;3.359999880E-2;-1.539999992E-2
4.589931250E0;5.123000145E-1;4.486999810E-1;3.831999898E-1
4.609784375E0;3.832999766E-1;8.439999819E-1;7.393999696E-1
4.629635937E0;1.310000010E-2;5.260999799E-1;1.336999983E-1
4.649489062E0;7.229999453E-2;2.768999934E-1;3.061999977E-1
4.669342187E0;2.927999794E-1;3.158999979E-1;2.129999921E-2
4.689193750E0;4.133999944E-1;5.120999813E-1;1.589999944E-1
4.709046875E0;3.590999842E-1;5.609999895E-1;3.260000050E-1
4.728900000E0;2.449999936E-2;3.488000035E-1;-9.309999645E-2
4.748753125E0;7.880000025E-2;7.490000129E-2;5.989999697E-2
4.768606250E0;2.199999988E-1;-7.519999892E-2;8.379999548E-2
4.788457812E0;2.788999975E-1;7.349999994E-2;1.753999889E-1
4.808310937E0;1.840000004E-1;4.687999785E-1;1.905999929E-1
4.828162500E0;-2.050999999E-1;2.988999784E-1;1.979999989E-2
4.848015625E0;2.233999968E-1;2.599000037E-1;9.749999642E-2
4.867868750E0;1.867000014E-1;-3.619999811E-2;2.908999920E-1
4.887720312E0;3.792999983E-1;-1.588999927E-1;-1.529999971E-1
4.907573437E0;4.519999921E-1;-4.529999793E-1;-3.208000064E-1
4.927426562E0;9.113000035E-1;-7.792999744E-1;-1.913699985E0
4.947278125E0;3.029999882E-2;-1.601300001E0;-1.156000018E0
4.967131250E0;2.730999887E-1;-1.563099980E0;-9.302999973E-1
4.986984375E0;-3.485899925E0;2.285199881E0;6.784999967E-1
5.006837500E0;1.340199947E0;4.201499939E0;1.956299901E0
5.026689062E0;-1.973899961E0;2.581699848E0;3.049899817E0
5.046542187E0;3.685999811E-1;8.405999541E-1;-5.657499790E0
5.066393750E0;2.195999920E-1;-5.194000006E-1;2.139499903E0
5.086246875E0;-2.619999945E-1;1.481000036E-1;-3.157999814E-1
5.106100000E0;2.164999992E-1;-2.922999859E-1;4.869000018E-1
5.125953125E0;2.234999985E-1;-4.030000046E-2;-3.735999763E-1
5.145804687E0;1.884000003E-1;-1.642999947E-1;-9.499999695E-3
5.165657812E0;2.383999974E-1;1.040000003E-2;-1.572999954E-1
5.185509375E0;3.440999985E-1;3.362999856E-1;5.599999800E-2
5.205362500E0;2.202999890E-1;3.871999979E-1;4.459999874E-2
5.225215625E0;3.779999912E-2;4.842000008E-1;1.429999992E-2
5.245068750E0;1.279999968E-2;3.325999975E-1;-2.549999952E-2
5.264920312E0;1.272999942E-1;1.257999986E-1;-1.042999998E-1
5.284773437E0;1.896999925E-1;9.600000083E-2;-7.519999892E-2
5.304626562E0;1.815000027E-1;1.144999936E-1;2.699999837E-3
5.324478125E0;1.423999965E-1;3.739999980E-2;-7.400000002E-3
5.344331250E0;1.534999907E-1;7.079999894E-2;-2.730000019E-2
5.364184375E0;4.710000008E-2;9.640000015E-2;-9.600000083E-2
5.384035937E0;5.609999970E-2;6.729999930E-2;-1.940999925E-1
5.403889062E0;4.389999807E-2;1.175999939E-1;-1.842999905E-1
5.423742187E0;9.549999982E-2;8.940000087E-2;-1.059999987E-1
5.443593750E0;2.006999999E-1;6.250000000E-2;6.049999967E-2
5.463446875E0;2.268999964E-1;1.920000017E-1;1.288999915E-1
5.483307812E0;1.642999947E-1;1.538999975E-1;4.069999978E-2
5.503153125E0;1.940999925E-1;2.448999882E-1;-2.779999934E-2
5.523004687E0;1.968999952E-1;2.415999919E-1;-1.156999990E-1
5.542859375E0;1.187999994E-1;1.444000006E-1;-8.579999954E-2
5.562710937E0;1.090999991E-1;1.283999979E-1;-2.714999914E-1
5.582562500E0;1.454000026E-1;1.407999992E-1;1.215000004E-1
5.602415625E0;1.806999892E-1;1.239999942E-2;5.460000038E-2
5.622268750E0;1.507999897E-1;6.300000008E-3;-1.391000003E-1
5.642121875E0;1.211999953E-1;2.102999985E-1;-8.899999782E-3
5.661973437E0;1.180999950E-1;1.765999943E-1;1.399999950E-2
5.681826562E0;1.232999936E-1;1.834999919E-1;3.810000047E-2
5.701679687E0;1.213999987E-1;1.021999940E-1;3.329999745E-2
5.721531250E0;1.350999922E-1;1.077999994E-1;3.940000013E-2
5.741384375E0;1.613999903E-1;4.679999873E-2;-2.289999872E-1
5.761237500E0;1.266999990E-1;1.085999981E-1;-3.328000009E-1
5.781089062E0;8.689999580E-2;1.535999924E-1;-3.700000048E-2
5.800942187E0;8.489999920E-2;1.291999966E-1;6.149999797E-2
5.820795312E0;2.125999928E-1;1.021999940E-1;-2.029999942E-1
5.840648437E0;6.140000001E-2;2.511999905E-1;5.109999701E-2
5.860500000E0;7.379999757E-2;2.016000003E-1;-6.849999726E-2
5.880353125E0;1.028999984E-1;4.369999841E-2;-1.203999966E-1
5.900204687E0;2.062999904E-1;9.539999813E-2;-6.579999626E-2
5.920057812E0;1.577999890E-1;1.759999990E-1;-1.587999910E-1
5.939910937E0;1.797000021E-1;1.519999951E-1;2.249999903E-2
5.959764062E0;2.348999977E-1;1.370000001E-2;1.071999967E-1
5.979615625E0;1.999000013E-1;2.300000051E-3;-1.300999969E-1
5.999468750E0;1.324999928E-1;1.507000029E-1;-1.415999979E-1
6.019321875E0;1.204999983E-1;1.180000007E-1;-1.620000042E-2
6.039173437E0;1.567000002E-1;1.044999957E-1;1.399999950E-3
6.059026562E0;1.557999998E-1;8.669999987E-2;-5.879999697E-2
6.078898437E0;1.913999915E-1;7.169999927E-2;4.769999906E-2
6.098732812E0;1.896999925E-1;7.620000094E-2;-9.070000052E-2
6.118584375E0;1.685999930E-1;1.017000005E-1;-3.289999813E-2
6.138437500E0;1.177999973E-1;1.437000036E-1;-8.259999752E-2
6.158290625E0;1.053999960E-1;2.088999897E-1;-1.124999970E-1
6.178142187E0;1.152999997E-1;1.009999961E-1;-8.349999785E-2
6.197995312E0;1.601999998E-1;9.730000049E-2;-8.379999548E-2
6.217848437E0;1.935999990E-1;5.350000039E-2;1.118999943E-1
6.237700000E0;1.941999942E-1;7.299999893E-2;-1.140000001E-1
6.257553125E0;1.735000014E-1;1.087999940E-1;5.199999735E-2
6.277406250E0;1.481000036E-1;1.256999969E-1;-7.589999586E-2
6.297259375E0;1.021999940E-1;5.900000036E-2;-5.649999902E-2
6.317110937E0;2.188999951E-1;8.029999584E-2;-5.689999834E-2
6.336964062E0;1.196999997E-1;1.309999973E-1;1.500000013E-3
6.356817187E0;1.688999981E-1;7.669999450E-2;-7.710000128E-2
6.376668750E0;1.557999998E-1;7.209999859E-2;-2.829999849E-2
6.396520312E0;1.433999985E-1;6.729999930E-2;-5.799999833E-2
6.416373437E0;2.185999900E-1;1.089999974E-1;-1.909999922E-2
6.436226562E0;1.559000015E-1;1.277000010E-1;-8.819999546E-2
6.456079687E0;1.865999997E-1;1.162999943E-1;-6.899999827E-2
6.475931250E0;1.595999897E-1;1.449999958E-1;-6.999999750E-4
6.495784375E0;1.631999910E-1;1.344999969E-1;-4.999999702E-2
6.515637500E0;1.483999938E-1;8.689999580E-2;-1.099999994E-3
6.535490625E0;1.823000014E-1;1.087999940E-1;-5.029999837E-2
6.555342187E0;1.480000019E-1;4.120000079E-2;-1.779000014E-1
6.575195312E0;1.684999913E-1;1.422999948E-1;-1.599999960E-3
6.595046875E0;1.229999959E-1;9.300000034E-3;-8.009999990E-2
6.614900000E0;1.917999983E-1;1.015999988E-1;7.899999619E-3
6.634753125E0;1.534999907E-1;9.470000118E-2;-7.059999555E-2
6.654606250E0;1.714999974E-1;1.378999949E-1;-2.199999988E-3
6.674457812E0;1.911999881E-1;8.280000091E-2;-4.160000011E-2
6.694310937E0;1.915999949E-1;5.579999834E-2;-8.100000024E-2
6.714164062E0;1.801999956E-1;4.619999975E-2;-2.799999900E-3
6.734015625E0;2.594999969E-1;7.519999892E-2;3.610000014E-2
6.753868750E0;3.938999772E-1;-4.479999840E-2;5.529999733E-2
6.773721875E0;3.143000007E-1;-7.099999487E-2;-1.018999964E-1
6.793573437E0;3.199999779E-2;8.049999923E-2;-4.355999827E-1
6.813428125E0;-2.827000022E-1;3.208000064E-1;-1.415999979E-1
6.833279687E0;7.159999758E-2;2.745999992E-1;1.230999976E-1
6.853132812E0;2.451999933E-1;2.979999967E-2;4.459999874E-2
6.872984375E0;1.623999923E-1;9.129999578E-2;5.439999700E-2
6.892837500E0;1.248999983E-1;9.929999709E-2;-1.415999979E-1
6.912690625E0;2.011999935E-1;5.269999802E-2;-2.004999965E-1
6.932542187E0;1.317999959E-1;7.539999485E-2;-2.389999852E-2
6.952395312E0;1.668999940E-1;1.105000004E-1;3.489999846E-2
6.972248437E0;2.303999960E-1;9.359999746E-2;-3.181000054E-1
6.992101562E0;1.746999919E-1;8.529999852E-2;4.663999975E-1
7.011953125E0;1.546999961E-1;1.107999980E-1;-3.671999872E-1
7.031806250E0;1.739999950E-1;7.140000165E-2;2.499999851E-2
7.051659375E0;1.465999931E-1;6.799999624E-2;-1.420000009E-2
7.071510937E0;1.278000027E-1;3.610000014E-2;-8.289999515E-2
7.091364062E0;1.383000016E-1;9.329999983E-2;-8.289999515E-2
7.111217187E0;1.647000015E-1;7.229999453E-2;-7.319999486E-2
7.131068750E0;1.548999995E-1;4.160000011E-2;-6.340000033E-2
7.150921875E0;1.727999896E-1;5.979999900E-2;-2.419999987E-2
7.170775000E0;1.627999991E-1;5.839999765E-2;-8.309999853E-2
7.190628125E0;1.718999892E-1;6.679999828E-2;-8.320000023E-2
7.210479687E0;1.422999948E-1;1.240999997E-1;-5.379999802E-2
7.230332812E0;1.709000021E-1;9.359999746E-2;-5.379999802E-2
7.250185937E0;1.981000006E-1;1.026000008E-1;-2.449999936E-2
7.270037500E0;1.762999892E-1;8.199999481E-2;-6.379999965E-2
7.289890625E0;1.547999978E-1;9.049999714E-2;-3.439999744E-2
7.309743750E0;1.550000012E-1;5.849999934E-2;-5.409999937E-2
7.329595312E0;1.372999996E-1;1.511999965E-1;-1.718000025E-1
7.349448437E0;1.351999938E-1;4.459999874E-2;-7.379999757E-2
7.369301562E0;1.810999960E-1;4.879999906E-2;3.379999846E-2
7.389153125E0;1.403999925E-1;6.009999663E-2;-1.131999940E-1
7.409006250E0;2.028999925E-1;9.200000018E-2;8.280000091E-2
7.428859375E0;1.133999974E-1;3.469999880E-2;-2.499999851E-2
7.448712500E0;1.675999910E-1;5.559999868E-2;-5.449999869E-2
7.468564062E0;1.574999988E-1;5.299999844E-3;-5.499999970E-3
7.488417187E0;1.376999915E-1;6.109999865E-2;-2.520000003E-2
7.508270312E0;1.378999949E-1;3.889999911E-2;-9.389999509E-2
7.528121875E0;1.468999982E-1;5.639999732E-2;-2.529999986E-2
7.547975000E0;1.437000036E-1;-3.399999812E-3;-2.539999969E-2
7.567828125E0;9.079999477E-2;7.479999959E-2;-1.039000005E-1
7.587679687E0;1.087999940E-1;6.719999760E-2;3.329999745E-2
7.607532812E0;2.034999877E-1;6.719999760E-2;-1.039999947E-1
7.627385937E0;1.339000016E-1;7.609999925E-2;-4.519999772E-2
7.647239062E0;1.396999955E-1;-4.199999850E-3;-3.549999744E-2
7.667090625E0;1.509999931E-1;4.399999976E-2;-1.237000003E-1
7.686943750E0;1.871999949E-1;4.369999841E-2;-6.099999882E-3
7.706795312E0;1.545999944E-1;4.399999976E-2;-3.559999913E-2
7.726648437E0;1.315999925E-1;5.499999970E-3;-6.509999931E-2
7.746501562E0;1.449999958E-1;3.680000082E-2;-3.570000082E-2
7.766353125E0;1.594000012E-1;5.810000002E-2;-1.620000042E-2
7.786206250E0;1.264999956E-1;4.939999804E-2;-1.620000042E-2
7.806059375E0;1.440999955E-1;1.989999972E-2;-1.620000042E-2
7.825920312E0;1.513999999E-1;2.989999950E-2;-5.549999699E-2
7.845764062E0;1.295000017E-1;4.050000012E-2;-7.509999722E-2
7.865620312E0;1.568999887E-1;5.040000007E-2;-5.549999699E-2
7.885470312E0;1.557999998E-1;3.949999809E-2;-2.620000020E-2
7.905321875E0;1.247999966E-1;3.909999877E-2;-3.599999845E-2
7.925175000E0;1.332999915E-1;3.819999844E-2;-4.580000043E-2
7.945026562E0;1.506000012E-1;1.699999906E-2;-2.630000003E-2
7.964879687E0;1.492999941E-1;1.489999983E-2;-5.579999834E-2
7.984732812E0;1.481000036E-1;1.200000010E-2;-4.609999806E-2
8.004585937E0;1.184999943E-1;5.839999765E-2;-6.570000201E-2
8.024437500E0;1.080999970E-1;7.499999832E-3;-7.559999824E-2
8.044290625E0;1.455999911E-1;1.699999906E-2;-3.639999777E-2
8.064150000E0;1.425999999E-1;3.680000082E-2;-5.599999800E-2
8.083995312E0;1.393999904E-1;-1.150000002E-2;-5.609999970E-2
8.103848437E0;1.158999950E-1;-3.029999882E-2;-6.589999795E-2
8.123701562E0;1.300999969E-1;5.829999968E-2;-5.619999766E-2
8.143553125E0;1.250000000E-1;2.999999933E-2;-4.639999941E-2
8.163406250E0;8.509999514E-2;4.010000080E-2;-5.629999936E-2
8.183259375E0;1.035999954E-1;2.499999944E-3;-7.400000002E-3
8.203112500E0;1.567000002E-1;-1.640000008E-2;2.300000051E-3
8.222964062E0;9.510000050E-2;-6.499999668E-3;-7.499999832E-3
8.242817187E0;1.407999992E-1;-1.689999923E-2;-6.629999727E-2
8.262670312E0;1.197999939E-1;1.249999925E-2;-2.709999867E-2
8.282521875E0;1.099999994E-1;1.239999942E-2;-3.689999878E-2
8.302375000E0;1.127000004E-1;3.219999745E-2;-6.629999727E-2
8.322228125E0;1.166999936E-1;2.699999837E-3;-3.689999878E-2
8.342081250E0;1.096999943E-1;2.249999903E-2;-8.590000123E-2
8.361932812E0;1.004000008E-1;3.999999724E-3;-3.680000082E-2
8.381785937E0;1.006999984E-1;5.499999970E-3;-7.599999756E-2
8.401639062E0;1.024999991E-1;2.529999986E-2;-7.599999756E-2
8.421490625E0;1.050999984E-1;-6.329999864E-2;-1.709999889E-2
8.441343750E0;1.083999947E-1;1.359999925E-2;-2.689999901E-2
8.461196875E0;1.115999967E-1;4.250000045E-2;-7.589999586E-2
8.481048437E0;1.110999957E-1;7.329999655E-2;-1.052999943E-1
8.500901562E0;1.032999977E-1;1.154999956E-1;-9.559999406E-2
8.520754687E0;7.970000058E-2;6.369999796E-2;6.140000001E-2
8.540606250E0;8.909999579E-2;1.066999957E-1;-8.569999784E-2
8.560459375E0;7.949999720E-2;1.897999942E-1;-4.639999941E-2
8.580312500E0;1.180999950E-1;2.733999789E-1;2.219999954E-2
8.600165625E0;1.429999992E-2;2.259999961E-1;1.229999959E-2
8.620017187E0;-1.579999924E-2;2.902999818E-1;4.169999808E-2
8.639870312E0;-5.879999697E-2;5.864999890E-1;1.493999958E-1
8.659723437E0;-2.782000005E-1;2.815999985E-1;3.553999960E-1
8.679575000E0;-3.774999976E-1;6.560000032E-2;-3.659999743E-2
8.699428125E0;3.849999979E-2;-1.232399940E0;-3.986999989E-1
8.719281250E0;1.237299919E0;-1.254199982E0;-4.077000022E-1
8.739134375E0;6.500999928E-1;-1.831000000E-1;6.279999763E-2
8.758985937E0;2.281999886E-1;-8.639999479E-2;-1.232999936E-1
8.778839062E0;1.277000010E-1;-1.049999967E-1;-5.799999926E-3
8.798692187E0;1.791999936E-1;2.799999900E-3;2.349999920E-2
8.818543750E0;1.257999986E-1;2.669999935E-2;-7.449999452E-2
8.838396875E0;1.304000020E-1;6.889999658E-2;-2.549999952E-2
8.858251562E0;1.046999991E-1;1.289999932E-1;-7.469999790E-2
8.878101562E0;9.609999508E-2;9.369999915E-2;-6.099999882E-3
8.897954687E0;1.083000004E-1;5.799999833E-2;-1.042999998E-1
8.917807812E0;1.414999962E-1;5.069999769E-2;-5.529999733E-2
8.937659375E0;6.839999557E-2;5.179999769E-2;2.300000004E-2
8.957512500E0;1.252999902E-1;-4.729999974E-2;-1.926999986E-1
8.977365625E0;1.428000033E-1;2.840000018E-2;3.199999919E-3
8.997217187E0;1.203999966E-1;5.549999699E-2;-5.559999868E-2
9.017070312E0;1.146999970E-1;1.327999979E-1;2.259999886E-2
9.036923437E0;1.396999955E-1;-1.429999992E-2;-7.539999485E-2
9.056775000E0;1.173999980E-1;2.309999987E-2;-4.609999806E-2
9.076628125E0;1.155999973E-1;4.059999809E-2;-5.599999800E-2
9.096481250E0;1.040999964E-1;1.960000023E-2;1.249999925E-2
9.116332812E0;1.422999948E-1;-9.999999311E-4;-6.589999795E-2
9.136185937E0;1.115999967E-1;2.740000002E-2;-6.589999795E-2
9.156039062E0;1.304000020E-1;7.599999662E-3;-3.649999946E-2
9.175892187E0;1.403999925E-1;-2.199999988E-3;-4.629999772E-2
9.195743750E0;1.309999973E-1;7.299999706E-3;-1.689999923E-2
9.215596875E0;1.322999895E-1;-2.279999852E-2;-4.629999772E-2
9.235448437E0;1.330000013E-1;5.799999926E-3;-4.629999772E-2
9.255301562E0;1.334999949E-1;4.799999762E-3;-1.149000004E-1
9.275154687E0;1.228000000E-1;-5.499999970E-3;-7.569999993E-2
9.295006250E0;1.402999908E-1;-5.599999800E-3;-5.619999766E-2
9.314859375E0;1.092999950E-1;-5.499999970E-3;-9.539999813E-2
9.334712500E0;1.374000013E-1;4.199999850E-3;-3.659999743E-2
9.354565625E0;1.262999922E-1;2.309999987E-2;-4.639999941E-2
9.374417187E0;1.253999919E-1;-6.999999750E-3;-2.679999918E-2
9.394270312E0;1.155999973E-1;-7.799999788E-3;-4.649999738E-2
9.414123437E0;1.061999947E-1;1.040000003E-2;-6.610000134E-2
9.433975000E0;1.070999950E-1;2.879999951E-2;-4.649999738E-2
9.453828125E0;1.087999940E-1;-2.199999988E-3;-2.689999901E-2
9.473681250E0;1.000999957E-1;-3.499999875E-3;-4.649999738E-2
9.493534375E0;1.393999904E-1;-3.799999831E-3;-5.629999936E-2
9.513385937E0;1.286000013E-1;1.549999975E-2;-3.669999912E-2
9.533239062E0;1.070000008E-1;2.510000020E-2;-6.619999558E-2
9.553092187E0;1.248999983E-1;-2.359999903E-2;-4.659999907E-2
9.572943750E0;1.230999976E-1;1.599999890E-2;-4.659999907E-2
9.592796875E0;1.210999936E-1;-3.399999812E-3;-2.699999884E-2
9.612650000E0;1.090999991E-1;6.599999964E-3;-6.629999727E-2
9.632501562E0;1.167999953E-1;-2.899999963E-3;-2.709999867E-2
9.652354687E0;1.155999973E-1;7.400000002E-3;-6.629999727E-2
9.672207812E0;9.600000083E-2;7.400000002E-3;-4.669999704E-2
9.692060937E0;1.164999977E-1;-1.269999985E-2;-3.689999878E-2
9.711912500E0;8.810000122E-2;1.559999958E-2;-3.689999878E-2
9.731765625E0;1.175999939E-1;-4.900000058E-3;-3.689999878E-2
9.751618750E0;1.065999940E-1;-1.549999975E-2;-3.689999878E-2
9.771470312E0;8.679999411E-2;1.329999976E-2;-3.689999878E-2
9.791323437E0;1.058999971E-1;1.279999968E-2;-4.679999873E-2
9.811176562E0;1.042999998E-1;2.499999944E-3;-8.599999547E-2
9.831028125E0;1.118000001E-1;2.499999944E-3;-6.639999896E-2
9.850881250E0;8.100000024E-2;-1.719999872E-2;-5.669999868E-2
9.870734375E0;1.184000000E-1;-1.740000024E-2;-6.650000066E-2
9.890585937E0;7.800000161E-2;2.149999887E-2;-4.690000042E-2
9.910439062E0;1.067999974E-1;2.070000023E-2;-4.690000042E-2
9.930292187E0;1.271999925E-1;6.999999750E-4;-3.709999844E-2
9.950145312E0;9.869999439E-2;2.999999851E-4;-6.650000066E-2
9.969996875E0;8.909999579E-2;9.800000116E-3;-4.690000042E-2
9.989850000E0;8.869999647E-2;9.399999864E-3;-9.600000083E-2
1.000970313E1;9.690000117E-2;1.899999939E-2;-3.709999844E-2
1.002955469E1;8.559999615E-2;1.860000007E-2;-2.740000002E-2
1.004940781E1;9.399999678E-2;-1.300000004E-3;-4.699999839E-2
1.006926094E1;7.259999961E-2;-3.059999831E-2;-6.659999490E-2
1.008911406E1;9.019999951E-2;1.850000024E-2;-4.699999839E-2
1.010896563E1;1.182999983E-1;8.899999782E-3;-3.720000014E-2
1.012881875E1;1.271999925E-1;9.099999443E-3;-2.749999985E-2
1.014867188E1;9.659999609E-2;1.860000007E-2;-5.689999834E-2
1.016852344E1;9.559999406E-2;1.850000024E-2;-4.710000008E-2
1.018837656E1;8.479999751E-2;-9.999999311E-4;-6.669999659E-2
1.020822969E1;1.030999944E-1;-8.999999845E-4;-8.639999479E-2
1.022808125E1;1.218999997E-1;-9.999999311E-4;-7.899999619E-3
1.024793281E1;9.109999985E-2;-6.999999750E-4;-2.749999985E-2
1.026778594E1;9.929999709E-2;-3.999999899E-4;-5.700000003E-2
1.028763906E1;8.819999546E-2;1.970000006E-2;-3.739999980E-2
1.030749219E1;1.062999964E-1;-9.300000034E-3;-4.719999805E-2
1.032734531E1;9.479999542E-2;-8.999999613E-3;-4.719999805E-2
1.034719844E1;7.440000027E-2;1.109999977E-2;-4.719999805E-2
1.036705000E1;7.369999588E-2;2.099999925E-3;-2.759999968E-2
1.038690312E1;9.259999543E-2;2.499999944E-3;-3.739999980E-2
1.040675469E1;9.269999713E-2;2.499999944E-3;-4.719999805E-2
1.042660781E1;8.309999853E-2;-7.499999832E-3;-7.660000026E-2
1.044646094E1;7.279999554E-2;-7.400000002E-3;-6.679999828E-2
1.046631250E1;1.008999944E-1;1.249999925E-2;-6.679999828E-2
1.048616562E1;8.049999923E-2;-6.599999964E-3;-3.739999980E-2
1.050601875E1;9.879999608E-2;3.299999982E-3;-2.759999968E-2
1.052587031E1;5.790000036E-2;-2.579999901E-2;-4.719999805E-2
1.054572344E1;1.054999977E-1;-6.099999882E-3;-5.709999800E-2
1.056557656E1;6.539999694E-2;2.369999886E-2;1.699999906E-3
1.058542812E1;6.469999999E-2;-1.509999949E-2;-1.779999956E-2
1.060528125E1;8.419999480E-2;4.399999976E-3;-2.769999951E-2
1.062513438E1;8.359999955E-2;4.600000102E-3;-3.749999776E-2
1.064498594E1;8.269999921E-2;-1.429999992E-2;-4.729999974E-2
1.066483906E1;8.190000057E-2;1.489999983E-2;-3.749999776E-2
1.068469219E1;7.149999589E-2;1.509999949E-2;-4.729999974E-2
1.070454531E1;7.059999555E-2;5.899999756E-3;-6.689999998E-2
1.072439688E1;8.879999816E-2;-3.399999812E-3;-1.789999940E-2
1.074425000E1;6.859999895E-2;-1.289999951E-2;-2.769999951E-2
1.076410312E1;7.729999721E-2;-2.190000005E-2;-5.709999800E-2
1.078395469E1;6.669999659E-2;7.699999958E-3;-4.729999974E-2
1.080380781E1;6.570000201E-2;-1.300000004E-3;-8.649999648E-2
1.082366094E1;7.519999892E-2;-8.999999845E-4;-5.709999800E-2
1.084351406E1;6.489999592E-2;9.200000204E-3;-7.669999450E-2
1.086336562E1;8.359999955E-2;9.499999695E-3;-2.769999951E-2
1.088321875E1;6.319999695E-2;2.929999866E-2;-4.729999974E-2
1.090307188E1;6.250000000E-2;-2.889999934E-2;-4.729999974E-2
1.092292344E1;6.129999831E-2;-8.899999782E-3;-3.749999776E-2
1.094277656E1;7.999999821E-2;2.049999870E-2;-5.709999800E-2
1.096262969E1;6.009999663E-2;-8.700000122E-3;-4.729999974E-2
1.098248281E1;7.959999889E-2;2.039999887E-2;-3.749999776E-2
1.100233438E1;7.000000030E-2;3.959999979E-2;-7.669999450E-2
1.102218750E1;8.829999715E-2;1.999999955E-2;-5.709999800E-2
1.104203906E1;6.839999557E-2;1.059999969E-2;-5.709999800E-2
1.106189219E1;8.810000122E-2;-9.200000204E-3;-8.100000210E-3
1.108174531E1;7.899999619E-2;1.999999949E-4;-2.769999951E-2
1.110159844E1;6.960000098E-2;1.840000041E-2;-2.769999951E-2
1.112145000E1;6.009999663E-2;-1.179999951E-2;-6.700000167E-2
1.114130312E1;5.989999697E-2;-1.899999916E-3;-3.749999776E-2
1.116115625E1;5.969999731E-2;-1.150000002E-2;-5.719999969E-2
1.118100938E1;4.979999736E-2;1.740000024E-2;-4.739999771E-2
1.120086094E1;6.019999832E-2;-3.199999919E-3;-6.700000167E-2
1.122071406E1;6.109999865E-2;1.539999992E-2;-6.700000167E-2
1.124056719E1;7.069999725E-2;2.419999987E-2;-4.739999771E-2
1.126041875E1;7.059999555E-2;-5.599999800E-3;-5.719999969E-2
1.128027188E1;6.030000001E-2;3.899999894E-3;-4.739999771E-2
1.130012500E1;6.949999928E-2;-1.559999958E-2;-3.759999946E-2
1.131997656E1;4.969999939E-2;-6.399999838E-3;-3.759999946E-2
1.133982969E1;5.909999833E-2;1.239999942E-2;-5.719999969E-2
1.135968281E1;6.889999658E-2;1.219999976E-2;-3.759999946E-2
1.137953438E1;6.899999827E-2;2.099999925E-3;-7.689999789E-2
1.139938750E1;3.999999911E-2;1.399999950E-3;-5.729999766E-2
1.141924062E1;6.830000132E-2;-1.840000041E-2;-8.200000040E-3
1.143909219E1;5.810000002E-2;1.049999986E-2;-7.689999789E-2
1.145894531E1;4.910000041E-2;4.999999655E-4;-5.729999766E-2
1.147879844E1;5.909999833E-2;-9.800000116E-3;-2.789999917E-2
1.149865156E1;4.899999872E-2;-5.999999703E-4;-7.689999789E-2
1.151850312E1;6.849999726E-2;1.869999990E-2;-5.729999766E-2
1.153835625E1;6.830000132E-2;-2.999999933E-2;-2.789999917E-2
1.155820938E1;4.800000042E-2;-1.989999972E-2;-5.729999766E-2
1.157806094E1;5.519999936E-2;-5.999999703E-4;-2.789999917E-2
1.159791406E1;6.159999967E-2;-1.049999986E-2;-3.769999743E-2
1.161776562E1;3.830000013E-2;-9.999999776E-3;-1.819999889E-2
1.163761875E1;3.579999879E-2;1.999999949E-4;-2.799999900E-2
1.165747188E1;4.529999942E-2;-1.879999973E-2;-4.759999737E-2
1.167732344E1;2.559999935E-2;2.039999887E-2;-3.779999912E-2
1.169717656E1;1.599999890E-2;3.999999899E-4;-8.399999700E-3
1.171702969E1;2.549999952E-2;9.399999864E-3;-6.719999760E-2
1.173688906E1;4.519999772E-2;1.889999956E-2;-5.739999935E-2
1.175673438E1;4.490000010E-2;-3.999999899E-4;-3.779999912E-2
1.177658750E1;6.409999728E-2;-1.019999944E-2;-2.799999900E-2
1.179643906E1;3.500000015E-2;-1.019999944E-2;-5.739999935E-2
1.181629219E1;3.590000048E-2;1.899999939E-2;-3.779999912E-2
1.183614844E1;4.619999975E-2;8.599999361E-3;-3.779999912E-2
1.185599844E1;2.649999969E-2;-2.109999955E-2;-6.719999760E-2
1.187585000E1;5.629999936E-2;8.399999700E-3;-4.759999737E-2
1.189570312E1;3.720000014E-2;-1.699999906E-3;-3.779999912E-2
1.191555625E1;5.680000037E-2;-1.799999969E-3;-4.759999737E-2
1.193540781E1;4.669999704E-2;1.769999973E-2;-2.799999900E-2
1.195526094E1;5.559999868E-2;7.699999958E-3;-5.739999935E-2
1.197511406E1;5.480000004E-2;-2.099999925E-3;-5.739999935E-2
1.199496719E1;3.489999846E-2;2.719999850E-2;-5.739999935E-2
1.201481875E1;6.489999592E-2;-1.200000010E-2;-8.399999700E-3
1.203467188E1;5.529999733E-2;-2.499999944E-3;-3.779999912E-2
1.205452500E1;2.539999969E-2;-1.239999942E-2;-6.719999760E-2
1.207437656E1;7.389999926E-2;1.679999940E-2;-4.759999737E-2
1.209422969E1;6.319999695E-2;2.709999867E-2;-2.799999900E-2
1.211408281E1;5.299999937E-2;-1.599999960E-3;-6.719999760E-2
1.213393438E1;2.379999869E-2;1.850000024E-2;-2.799999900E-2
1.215378750E1;2.449999936E-2;-9.999999311E-4;-7.699999958E-2
1.217364062E1;2.499999851E-2;-1.999999949E-4;-4.759999737E-2
1.219349375E1;4.549999908E-2;-1.889999956E-2;-3.779999912E-2
1.221334531E1;5.609999970E-2;1.599999960E-3;-2.789999917E-2
1.223319844E1;3.769999743E-2;2.180000022E-2;-8.679999411E-2
1.225305156E1;2.699999884E-2;2.899999963E-3;-4.749999940E-2
1.227290313E1;2.649999969E-2;-6.099999882E-3;-2.789999917E-2
1.229275625E1;3.669999912E-2;4.199999850E-3;-7.689999789E-2
1.231260938E1;4.600000009E-2;2.419999987E-2;-5.729999766E-2
1.233246094E1;5.700000003E-2;-5.599999800E-3;-4.749999940E-2
1.235231406E1;3.900000080E-2;3.799999831E-3;-5.729999766E-2
1.237216719E1;2.919999883E-2;-2.499999851E-2;-2.789999917E-2
1.239201875E1;5.810000002E-2;4.399999976E-3;-4.749999940E-2
1.241187188E1;4.999999702E-2;2.339999937E-2;-5.729999766E-2
1.243172500E1;4.270000011E-2;1.209999993E-2;-2.789999917E-2
1.245157813E1;4.389999807E-2;1.090000011E-2;-6.709999591E-2
1.247142969E1;5.449999869E-2;-9.300000034E-3;-8.299999870E-3
1.249128281E1;5.559999868E-2;-9.699999355E-3;-7.689999789E-2
1.251113594E1;3.639999777E-2;0.000000000E0;-3.769999743E-2
1.253098750E1;4.669999704E-2;1.909999922E-2;-4.749999940E-2
1.255084063E1;4.600000009E-2;-1.059999969E-2;-3.769999743E-2
1.257069375E1;3.500000015E-2;-6.999999750E-4;-3.769999743E-2
1.259054688E1;3.350000083E-2;1.869999990E-2;-5.739999935E-2
1.261039844E1;2.159999870E-2;1.860000007E-2;-5.739999935E-2
1.263025156E1;3.779999912E-2;-2.969999984E-2;-4.759999737E-2
1.265010469E1;4.609999806E-2;-1.049999986E-2;-7.699999958E-2
1.266995625E1;4.539999738E-2;7.899999619E-3;-6.719999760E-2
1.268980938E1;3.539999947E-2;-1.899999916E-3;-4.759999737E-2
1.270966250E1;2.499999851E-2;8.100000210E-3;-5.739999935E-2
1.272951875E1;5.379999802E-2;8.799999952E-3;-2.799999900E-2
1.274936719E1;7.400000095E-2;-1.009999961E-2;-1.819999889E-2
1.276922031E1;4.659999907E-2;8.700000122E-3;-5.739999935E-2
1.278907344E1;4.809999838E-2;-1.159999985E-2;-3.779999912E-2
1.280892500E1;5.719999969E-2;-2.300000051E-3;1.300000004E-3
1.282877813E1;3.709999844E-2;-2.229999937E-2;-5.739999935E-2
1.284862969E1;4.559999704E-2;3.539999947E-2;-1.819999889E-2
1.286848906E1;3.590000048E-2;2.559999935E-2;-8.399999700E-3
1.288833438E1;4.589999840E-2;2.549999952E-2;-1.064999998E-1
1.290818750E1;5.499999970E-2;-1.269999985E-2;-7.710000128E-2
1.292804063E1;6.599999964E-2;-4.209999740E-2;-2.799999900E-2
1.294789375E1;3.810000047E-2;6.399999838E-3;-4.759999737E-2
1.296774531E1;4.789999872E-2;5.899999756E-3;-5.739999935E-2
1.298759844E1;-5.999999703E-4;1.529999916E-2;-5.739999935E-2
1.300745156E1;2.850000001E-2;1.449999958E-2;-3.779999912E-2
1.302730469E1;1.840000041E-2;2.339999937E-2;-7.710000128E-2
1.304715625E1;5.680000037E-2;-2.569999918E-2;-2.809999883E-2
1.306700938E1;4.569999874E-2;-6.099999882E-3;-4.769999906E-2
1.308686094E1;2.630000003E-2;3.260000050E-2;-1.829999872E-2
1.310671406E1;3.519999981E-2;1.279999968E-2;-7.710000128E-2
1.312656719E1;4.459999874E-2;-7.100000046E-3;-2.809999883E-2
1.314642031E1;7.329999655E-2;-2.679999918E-2;-2.809999883E-2
1.316627188E1;3.419999778E-2;2.099999925E-3;-1.829999872E-2
1.318612500E1;5.899999756E-3;3.109999932E-2;-6.729999930E-2
1.320597813E1;2.539999969E-2;2.159999870E-2;-9.669999778E-2
1.322582969E1;4.479999840E-2;2.259999886E-2;-4.769999906E-2
1.324568281E1;6.529999524E-2;-1.469999924E-2;-1.819999889E-2
1.326553594E1;4.710000008E-2;5.899999756E-3;-7.710000128E-2
1.328538750E1;4.959999770E-2;6.599999964E-3;-2.799999900E-2
1.330524063E1;5.119999871E-2;1.689999923E-2;-6.719999760E-2
1.332509375E1;1.299999934E-2;-2.300000051E-3;-3.779999912E-2
1.334494688E1;4.199999943E-2;-1.169999968E-2;-5.739999935E-2
1.336479844E1;1.119999960E-2;-1.300000004E-3;-6.719999760E-2
1.338465156E1;1.979999989E-2;-3.999999899E-4;-4.759999737E-2
1.340450469E1;4.839999974E-2;3.999999899E-4;-8.679999411E-2
1.342436250E1;4.639999941E-2;1.599999960E-3;-3.779999912E-2
1.344420938E1;4.339999706E-2;-6.799999624E-3;-5.739999935E-2
1.346406250E1;3.150000051E-2;1.289999951E-2;-2.799999900E-2
1.348391563E1;5.219999701E-2;-2.730000019E-2;-3.779999912E-2
1.350376719E1;5.409999937E-2;9.999999747E-5;-5.739999935E-2
1.352362031E1;4.529999942E-2;2.829999849E-2;-4.759999737E-2
1.354347344E1;2.459999919E-2;3.759999946E-2;-6.719999760E-2
1.356332500E1;6.279999763E-2;8.299999870E-3;-4.759999737E-2
1.358317813E1;3.319999948E-2;-1.129999943E-2;-6.719999760E-2
1.360303125E1;4.329999909E-2;7.100000046E-3;-8.689999580E-2
1.362288281E1;6.309999526E-2;6.599999964E-3;-2.799999900E-2
1.364273594E1;3.460000083E-2;3.599999845E-2;-3.779999912E-2
1.366258906E1;3.460000083E-2;-2.699999837E-3;-8.399999700E-3
1.368244063E1;4.449999705E-2;1.620000042E-2;-6.729999930E-2
1.370229375E1;2.510000020E-2;2.569999918E-2;-4.769999906E-2
1.372214688E1;4.360000044E-2;-1.249999925E-2;-3.779999912E-2
1.374200000E1;3.309999779E-2;-2.149999887E-2;-3.779999912E-2
1.376185156E1;5.150000006E-2;7.699999958E-3;-8.399999700E-3
1.378170469E1;3.170000017E-2;1.699999906E-2;-3.790000081E-2
1.380155781E1;1.229999959E-2;1.649999991E-2;-1.819999889E-2
1.382140938E1;7.140000165E-2;-1.229999959E-2;2.089999989E-2
1.384126250E1;2.119999938E-2;7.599999662E-3;-1.456999928E-1
1.386111562E1;3.009999916E-2;1.719999872E-2;-8.689999580E-2
1.388096719E1;4.899999872E-2;2.649999969E-2;-7.710000128E-2
1.390082031E1;4.789999872E-2;-1.269999985E-2;-4.769999906E-2
1.392067344E1;5.769999698E-2;-2.300000004E-2;-3.790000081E-2
1.394052656E1;3.769999743E-2;-1.379999984E-2;-1.829999872E-2
1.396037812E1;4.820000008E-2;5.200000014E-3;-3.790000081E-2
1.398023125E1;3.909999877E-2;5.279999971E-2;-9.679999948E-2
1.400008438E1;3.799999878E-2;3.319999948E-2;-6.729999930E-2
1.401993594E1;6.570000201E-2;2.459999919E-2;-6.729999930E-2
1.403978906E1;3.489999846E-2;-3.280000016E-2;1.199999941E-3
1.405964219E1;5.559999868E-2;-1.359999925E-2;-7.710000128E-2
1.407949375E1;4.769999906E-2;1.420000009E-2;-8.499999531E-3
1.409934688E1;4.839999974E-2;2.190000005E-2;-2.809999883E-2
1.411919844E1;1.599999960E-3;9.499999695E-3;-1.065999940E-1
1.413905156E1;3.079999983E-2;2.850000001E-2;-8.699999750E-2
1.415890469E1;6.819999963E-2;-3.879999742E-2;-5.759999901E-2
1.417875781E1;6.129999831E-2;-3.920000046E-2;-3.799999878E-2
1.419860938E1;7.800000161E-2;1.919999905E-2;-4.769999906E-2
1.421846250E1;1.709999889E-2;8.899999782E-3;-2.799999900E-2
1.423831562E1;1.919999905E-2;-3.999999899E-4;-9.669999778E-2
1.425816719E1;-2.999999851E-4;1.999999955E-2;-6.719999760E-2
1.427802031E1;4.549999908E-2;1.119999960E-2;-2.799999900E-2
1.429787188E1;5.999999866E-2;-7.999999449E-3;-5.749999732E-2
1.431772500E1;3.979999945E-2;-8.999999613E-3;-4.769999906E-2
1.433757812E1;3.240000084E-2;-1.799999969E-3;-6.729999930E-2
1.435743125E1;-2.489999868E-2;4.799999762E-3;-1.829999872E-2
1.437728281E1;5.040000007E-2;-2.679999918E-2;-4.779999703E-2
1.439713594E1;5.819999799E-2;2.929999866E-2;-1.840000041E-2
1.441698906E1;4.069999978E-2;4.809999838E-2;-5.759999901E-2
1.443684062E1;1.480000000E-2;8.200000040E-3;-8.699999750E-2
1.445669375E1;3.649999946E-2;-3.139999881E-2;-5.759999901E-2
1.447654688E1;8.100000210E-3;-2.600000007E-3;-7.719999552E-2
1.449640000E1;4.639999941E-2;6.099999882E-3;-3.799999878E-2
1.451625156E1;4.580000043E-2;-1.379999984E-2;-3.799999878E-2
1.453610469E1;2.669999935E-2;4.900000058E-3;-4.779999703E-2
1.455595781E1;3.680000082E-2;1.329999976E-2;-8.599999361E-3
1.457580938E1;4.639999941E-2;-1.769999973E-2;-5.769999698E-2
1.459566250E1;6.679999828E-2;-8.599999361E-3;-3.810000047E-2
1.461551562E1;4.939999804E-2;-8.799999952E-3;-4.789999872E-2
1.463536875E1;4.179999977E-2;2.039999887E-2;-5.769999698E-2
1.465522031E1;3.379999846E-2;2.019999921E-2;-3.799999878E-2
1.467507344E1;4.529999942E-2;-2.950000018E-2;-2.819999866E-2
1.469492656E1;1.719999872E-2;8.499999531E-3;-9.690000117E-2
1.471477812E1;5.329999700E-2;-2.089999989E-2;-9.690000117E-2
1.473463125E1;5.829999968E-2;2.840000018E-2;-2.829999849E-2
1.475448438E1;3.649999946E-2;-3.009999916E-2;-8.709999919E-2
1.477433594E1;5.639999732E-2;-9.699999355E-3;-1.850000024E-2
1.479418906E1;3.769999743E-2;1.019999944E-2;-4.789999872E-2
1.481404219E1;3.790000081E-2;-1.919999905E-2;-7.729999721E-2
1.483389531E1;4.439999908E-2;3.999999911E-2;-2.829999849E-2
1.485374688E1;5.959999934E-2;-7.599999662E-3;-3.810000047E-2
1.487360000E1;4.809999838E-2;-1.599999890E-2;-8.700000122E-3
1.489345312E1;2.989999950E-2;-5.099999718E-3;-1.850000024E-2
1.491330469E1;4.099999741E-2;5.299999844E-3;-3.810000047E-2
1.493315781E1;5.150000006E-2;-1.310000010E-2;-9.690000117E-2
1.495301094E1;2.300000051E-3;7.899999619E-3;-4.779999703E-2
1.497286250E1;5.109999701E-2;1.919999905E-2;-8.599999361E-3
1.499271562E1;5.119999871E-2;-1.850000024E-2;-3.799999878E-2
1.501256875E1;2.290000021E-2;-7.699999958E-3;-4.779999703E-2
1.503242031E1;2.400000021E-2;4.239999875E-2;-7.719999552E-2
1.505227344E1;3.439999744E-2;-1.459999941E-2;-4.769999906E-2
1.507212656E1;3.429999948E-2;-2.600000007E-3;-3.790000081E-2
1.509197969E1;4.429999739E-2;1.879999973E-2;-3.790000081E-2
1.511183125E1;2.539999969E-2;2.899999917E-2;-5.749999732E-2
1.513168438E1;3.500000015E-2;2.850000001E-2;-4.769999906E-2
1.515153750E1;4.270000011E-2;8.999999613E-3;-4.769999906E-2
1.517138906E1;4.209999740E-2;-2.049999870E-2;-3.790000081E-2
1.519124219E1;3.260000050E-2;1.879999973E-2;-4.769999906E-2
1.521109531E1;3.159999847E-2;6.749999523E-2;-3.790000081E-2
1.523094844E1;4.930000007E-2;1.879999973E-2;-6.729999930E-2
1.525080000E1;2.730000019E-2;-1.009999961E-2;-2.809999883E-2
1.527065312E1;7.409999520E-2;-9.599999525E-3;-5.749999732E-2
1.529050625E1;5.299999937E-2;-9.300000034E-3;-3.790000081E-2
1.531035781E1;4.199999943E-2;1.049999986E-2;-9.679999948E-2
1.533021094E1;5.079999939E-2;1.099999994E-2;-1.829999872E-2
1.535006406E1;4.120000079E-2;2.080000006E-2;-2.809999883E-2
1.536991562E1;4.160000011E-2;2.029999904E-2;-4.779999703E-2
1.538976875E1;3.219999745E-2;4.999999655E-4;-4.779999703E-2
1.540962031E1;4.169999808E-2;2.999999851E-4;-1.829999872E-2
1.542947344E1;3.119999915E-2;-1.879999973E-2;-3.799999878E-2
1.544932656E1;3.089999966E-2;-8.599999361E-3;-5.759999901E-2
1.546917813E1;4.919999838E-2;-8.299999870E-3;-3.799999878E-2
1.548903125E1;3.769999743E-2;1.999999862E-3;-8.499999531E-3
1.550888438E1;7.499999832E-3;1.260000002E-2;-5.759999901E-2
1.552873750E1;2.669999935E-2;3.499999875E-3;-4.769999906E-2
1.554858906E1;4.649999738E-2;-6.199999712E-3;-6.740000099E-2
1.556844219E1;2.769999951E-2;3.999999724E-3;-2.809999883E-2
1.558829531E1;3.790000081E-2;1.489999983E-2;-2.809999883E-2
1.560814688E1;3.839999810E-2;-1.370000001E-2;-6.729999930E-2
1.562800000E1;3.940000013E-2;5.899999756E-3;-3.790000081E-2
1.564785313E1;4.959999770E-2;5.499999970E-3;-1.829999872E-2
1.566770469E1;4.949999973E-2;-1.409999933E-2;-4.769999906E-2
1.568755781E1;3.909999877E-2;-1.370000001E-2;-3.790000081E-2
1.570741094E1;3.819999844E-2;6.000000052E-3;-3.790000081E-2
1.572727031E1;7.599999662E-3;1.609999873E-2;-2.809999883E-2
1.574711563E1;3.610000014E-2;6.599999964E-3;-3.790000081E-2
1.576696875E1;1.630000025E-2;-1.269999985E-2;-3.790000081E-2
1.578682031E1;2.549999952E-2;-3.099999856E-3;1.199999941E-3
1.580667344E1;6.469999999E-2;2.539999969E-2;-1.829999872E-2
1.582652656E1;4.609999806E-2;-2.499999851E-2;-8.499999531E-3
1.584637969E1;3.720000014E-2;-6.399999838E-3;-7.719999552E-2
1.586623125E1;5.790000036E-2;-7.400000002E-3;-2.809999883E-2
1.588608438E1;3.049999848E-2;1.030000020E-2;-5.759999901E-2
1.590593750E1;5.329999700E-2;-1.599999960E-3;-3.799999878E-2
1.592578906E1;9.300000034E-3;4.399999976E-3;-6.740000099E-2
1.594564219E1;2.479999885E-2;-9.099999443E-3;-5.759999901E-2
1.596549531E1;3.830000013E-2;1.719999872E-2;-8.699999750E-2
1.598534844E1;2.039999887E-2;1.599999890E-2;-5.759999901E-2
1.600520000E1;4.089999944E-2;-4.499999806E-3;-2.819999866E-2
1.602505312E1;4.059999809E-2;1.420000009E-2;-2.819999866E-2
1.604490625E1;2.159999870E-2;3.299999982E-3;-2.819999866E-2
1.606475781E1;3.229999915E-2;2.499999944E-3;-6.740000099E-2
1.608461094E1;4.270000011E-2;1.599999960E-3;-1.840000041E-2
1.610446406E1;4.230000079E-2;2.049999870E-2;-6.749999523E-2
1.612431562E1;3.219999745E-2;7.999999798E-4;-4.779999703E-2
1.614416875E1;2.219999954E-2;-8.799999952E-3;-3.799999878E-2
1.616402188E1;2.290000021E-2;-9.099999443E-3;-4.779999703E-2
1.618387344E1;-1.589999907E-2;9.499999695E-3;-2.819999866E-2
1.620372656E1;3.229999915E-2;8.700000122E-3;-3.810000047E-2
1.622357969E1;6.079999730E-2;-1.599999960E-3;-5.769999698E-2
1.624343281E1;3.269999847E-2;1.750000007E-2;-7.729999721E-2
1.626328438E1;3.370000049E-2;-2.699999837E-3;-5.769999698E-2
1.628313750E1;1.480000000E-2;5.549999699E-2;-4.789999872E-2
1.630299062E1;2.429999970E-2;-3.700000001E-3;-5.769999698E-2
1.632284219E1;5.269999802E-2;1.589999907E-2;-3.810000047E-2
1.634269531E1;6.279999763E-2;6.199999712E-3;-3.810000047E-2
1.636254844E1;4.699999932E-3;2.549999952E-2;-4.789999872E-2
1.638240156E1;2.400000021E-2;5.899999756E-3;-5.769999698E-2
1.640225938E1;2.349999920E-2;1.559999958E-2;-3.810000047E-2
1.642210625E1;3.329999745E-2;1.559999958E-2;-3.810000047E-2
1.644195938E1;1.389999967E-2;4.999999888E-3;-2.829999849E-2
1.646181094E1;3.469999880E-2;-5.899999756E-3;-5.769999698E-2
1.648166406E1;1.539999992E-2;3.209999949E-2;-4.789999872E-2
1.650151719E1;3.460000083E-2;1.179999951E-2;-3.810000047E-2
1.652136875E1;1.489999983E-2;2.109999955E-2;-1.850000024E-2
1.654122188E1;4.499999806E-2;-8.700000122E-3;-3.810000047E-2
1.656107500E1;1.579999924E-2;1.019999944E-2;-5.769999698E-2
1.658092812E1;3.610000014E-2;-9.200000204E-3;-6.749999523E-2
1.660077969E1;2.669999935E-2;3.999999899E-4;-5.769999698E-2
1.662063281E1;2.649999969E-2;-2.850000001E-2;9.999999311E-4
1.664048438E1;3.669999912E-2;3.999999899E-4;-7.729999721E-2
1.666033750E1;3.669999912E-2;9.599999525E-3;-5.769999698E-2
1.668019062E1;6.699999794E-3;8.899999782E-3;-2.829999849E-2
1.670004219E1;2.659999952E-2;-1.199999941E-3;-5.769999698E-2
1.671989531E1;4.690000042E-2;1.799999923E-2;-6.759999692E-2
1.673974844E1;3.779999912E-2;-1.500000013E-3;-3.810000047E-2
1.675960000E1;9.200000204E-3;2.749999985E-2;-3.810000047E-2
1.677945312E1;1.960000023E-2;3.689999878E-2;-3.810000047E-2
1.679930625E1;2.919999883E-2;7.100000046E-3;-9.699999541E-2
1.681915938E1;4.899999872E-2;-3.299999982E-3;-5.769999698E-2
1.683901094E1;-9.999999747E-5;1.559999958E-2;-5.769999698E-2
1.685886406E1;2.969999984E-2;5.299999844E-3;-2.829999849E-2
1.687871719E1;2.080000006E-2;-1.499999966E-2;-1.850000024E-2
1.689856875E1;1.249999925E-2;-6.300000008E-3;-3.810000047E-2
1.691842188E1;3.350000083E-2;1.139999926E-2;-7.739999890E-2
1.693827500E1;1.399999950E-2;1.040000003E-2;-2.829999849E-2
1.695812656E1;2.400000021E-2;-9.599999525E-3;-8.700000122E-3
1.697797969E1;3.390000015E-2;-9.200000204E-3;-4.789999872E-2
1.699783281E1;2.489999868E-2;-8.700000122E-3;-5.769999698E-2
1.701768438E1;2.529999986E-2;8.999999845E-4;-4.789999872E-2
1.703753750E1;2.489999868E-2;1.059999969E-2;-1.850000024E-2
1.705739062E1;4.600000102E-3;-8.499999531E-3;-2.829999849E-2
1.707724219E1;1.429999992E-2;-1.730000041E-2;-6.749999523E-2
1.709709531E1;1.529999916E-2;-6.999999750E-3;-3.810000047E-2
1.711694844E1;3.610000014E-2;-7.499999832E-3;-5.769999698E-2
1.713680156E1;3.769999743E-2;1.129999943E-2;-4.789999872E-2
1.715665313E1;1.939999871E-2;1.049999986E-2;-5.769999698E-2
1.717650625E1;3.940000013E-2;-9.499999695E-3;-8.700000122E-3
1.719635938E1;2.979999967E-2;1.960000023E-2;-5.769999698E-2
1.721621094E1;3.009999916E-2;2.909999900E-2;-2.829999849E-2
1.723606406E1;3.079999983E-2;1.919999905E-2;-3.810000047E-2
1.725591719E1;2.169999853E-2;8.899999782E-3;-7.729999721E-2
1.727576875E1;4.059999809E-2;1.829999872E-2;9.999999311E-4
1.729562188E1;3.039999865E-2;-1.109999977E-2;-6.749999523E-2
1.731547500E1;1.030000020E-2;-3.039999865E-2;-5.769999698E-2
1.733532812E1;1.979999989E-2;-2.029999904E-2;-2.829999849E-2
1.735517969E1;4.869999737E-2;-2.080000006E-2;-6.749999523E-2
1.737503281E1;-9.899999946E-3;7.799999788E-3;-5.769999698E-2
1.739488594E1;1.019999944E-2;-1.239999942E-2;-4.789999872E-2
1.741473750E1;9.999999776E-3;-1.249999925E-2;-4.789999872E-2
1.743459063E1;2.869999968E-2;-3.499999875E-3;-3.810000047E-2
1.745444375E1;2.809999883E-2;5.599999800E-3;-5.779999867E-2
1.747429688E1;1.840000041E-2;-4.799999762E-3;-4.800000042E-2
1.749414844E1;2.809999883E-2;-3.429999948E-2;-4.800000042E-2
1.751400156E1;1.840000041E-2;-5.200000014E-3;-4.800000042E-2
1.753385469E1;3.799999878E-2;4.389999807E-2;-5.779999867E-2
1.755370625E1;5.759999901E-2;1.389999967E-2;-4.800000042E-2
1.757355938E1;1.909999922E-2;3.499999875E-3;-4.800000042E-2
1.759343281E1;1.989999972E-2;-6.699999794E-3;-5.779999867E-2
1.761326406E1;2.080000006E-2;1.289999951E-2;-1.850000024E-2
1.763311719E1;1.090000011E-2;-1.669999957E-2;-2.829999849E-2
1.765297031E1;1.099999994E-2;-1.709999889E-2;-4.800000042E-2
1.767282188E1;3.059999831E-2;1.129999943E-2;-8.700000122E-3
1.769267500E1;1.999999862E-3;1.040000003E-2;-6.759999692E-2
1.771252813E1;2.239999920E-2;5.999999703E-4;-4.800000042E-2
1.773238125E1;5.199999735E-2;1.109999977E-2;-4.789999872E-2
1.775223281E1;3.209999949E-2;3.099999949E-2;-4.789999872E-2
1.777208594E1;1.229999959E-2;-1.829999872E-2;-4.800000042E-2
1.779193906E1;1.260000002E-2;1.960000023E-2;-6.759999692E-2
1.781179062E1;2.249999903E-2;9.300000034E-3;-4.800000042E-2
1.783164375E1;1.279999968E-2;-8.999999845E-4;-6.759999692E-2
1.785149688E1;5.159999803E-2;9.099999443E-3;-3.819999844E-2
1.787134844E1;2.389999852E-2;8.499999531E-3;-6.759999692E-2
1.789120156E1;1.569999941E-2;-2.109999955E-2;-4.789999872E-2
1.791105469E1;1.699999906E-2;-9.999999311E-4;-6.749999523E-2
1.793090781E1;1.730000041E-2;-1.040000003E-2;-3.810000047E-2
1.795075938E1;2.719999850E-2;8.599999361E-3;-2.829999849E-2
1.797061250E1;2.709999867E-2;7.699999958E-3;-4.789999872E-2
1.799046406E1;1.679999940E-2;3.629999980E-2;-8.700000122E-3
1.801031719E1;6.399999838E-3;1.630000025E-2;-4.789999872E-2
1.803017031E1;2.599999867E-2;6.699999794E-3;-4.789999872E-2
1.805002344E1;3.590000048E-2;-3.399999812E-3;-7.739999890E-2
1.806987500E1;2.579999901E-2;2.569999918E-2;-5.779999867E-2
1.808972656E1;5.399999674E-3;5.599999800E-3;-3.819999844E-2
1.810958125E1;2.449999936E-2;2.379999869E-2;-9.699999541E-2
1.812943281E1;1.319999993E-2;3.099999856E-3;-2.840000018E-2
1.814928594E1;3.240000084E-2;2.109999955E-2;-4.800000042E-2
1.816913750E1;3.229999915E-2;-2.859999985E-2;-2.840000018E-2
1.818899063E1;1.379999984E-2;9.599999525E-3;-3.819999844E-2
1.820884375E1;1.420000009E-2;-8.999999845E-4;-2.840000018E-2
1.822869688E1;2.339999937E-2;-2.989999950E-2;-1.860000007E-2
1.824854844E1;1.339999959E-2;-3.889999911E-2;-2.840000018E-2
1.826840156E1;3.240000084E-2;1.049999986E-2;-8.799999952E-3
1.828825312E1;1.209999993E-2;1.090000011E-2;-4.800000042E-2
1.830810625E1;1.260000002E-2;1.300000004E-3;-5.779999867E-2
1.832795938E1;-1.640000008E-2;1.399999950E-3;-4.800000042E-2
1.834781250E1;3.099999856E-3;1.139999926E-2;-2.840000018E-2
1.836766406E1;3.299999982E-2;-8.399999700E-3;-1.860000007E-2
1.838751719E1;2.449999936E-2;3.029999882E-2;-5.779999867E-2
1.840737031E1;5.899999756E-3;9.999999747E-5;-5.779999867E-2
1.842722188E1;3.539999947E-2;-1.019999944E-2;-6.759999692E-2
1.844707500E1;5.899999756E-3;-3.999999899E-4;-5.779999867E-2
1.846692813E1;2.469999902E-2;-9.999999776E-3;-6.759999692E-2
1.848678125E1;4.360000044E-2;-9.599999525E-3;-5.779999867E-2
1.850663281E1;1.449999958E-2;-9.999999747E-5;-6.759999692E-2
1.852648594E1;1.499999966E-2;9.699999355E-3;-4.800000042E-2
1.854633906E1;2.549999952E-2;2.919999883E-2;-5.779999867E-2
1.856619062E1;2.599999867E-2;-9.599999525E-3;-4.800000042E-2
1.858604375E1;-3.299999982E-3;1.019999944E-2;-4.800000042E-2
1.860589688E1;3.549999744E-2;1.009999961E-2;-2.840000018E-2
1.862575000E1;2.489999868E-2;-1.919999905E-2;-2.840000018E-2
1.864560156E1;3.429999948E-2;1.960000023E-2;-3.819999844E-2
1.866545469E1;-4.299999680E-3;-9.999999776E-3;-4.800000042E-2
1.868530781E1;2.539999969E-2;-1.999999955E-2;-4.800000042E-2
1.870515938E1;1.589999907E-2;-1.999999949E-4;-9.699999541E-2
1.872501250E1;1.609999873E-2;9.999999776E-3;-1.860000007E-2
1.874486563E1;1.609999873E-2;0.000000000E0;-6.759999692E-2
1.876471719E1;5.519999936E-2;-1.009999961E-2;-6.759999692E-2
1.878457031E1;6.899999920E-3;-4.999999655E-4;-4.800000042E-2
1.880442344E1;1.669999957E-2;-9.999999311E-4;-1.860000007E-2
1.882427656E1;3.549999744E-2;-1.069999952E-2;-3.819999844E-2
1.884412812E1;2.599999867E-2;-1.200000010E-2;-3.819999844E-2
1.886398125E1;2.730000019E-2;1.529999916E-2;-3.819999844E-2
1.888383594E1;3.849999979E-2;-1.549999975E-2;-3.819999844E-2
1.890368594E1;2.950000018E-2;-1.559999958E-2;-7.739999890E-2
1.892353906E1;-9.999999747E-5;4.699999932E-3;-3.819999844E-2
1.894339219E1;1.999999955E-2;1.489999983E-2;-6.759999692E-2
1.896324375E1;1.399999950E-3;1.469999924E-2;-6.759999692E-2
1.898310000E1;4.079999775E-2;1.459999941E-2;-5.779999867E-2
1.900295000E1;2.070000023E-2;-2.429999970E-2;-4.800000042E-2
1.902280156E1;1.009999961E-2;5.699999630E-3;-5.779999867E-2
1.904265469E1;3.029999882E-2;4.900000058E-3;-3.819999844E-2
1.906250781E1;3.130000085E-2;3.999999724E-3;-6.759999692E-2
1.908235938E1;3.219999745E-2;1.310000010E-2;-6.759999692E-2
1.910221250E1;4.409999773E-2;-6.799999624E-3;-2.829999849E-2
1.912206562E1;2.589999884E-2;-1.719999872E-2;-3.810000047E-2
1.914191875E1;7.699999958E-3;1.399999950E-3;-5.769999698E-2
1.916177031E1;3.889999911E-2;2.049999870E-2;-8.700000122E-3
1.918162344E1;3.959999979E-2;1.009999961E-2;-7.729999721E-2
1.920147656E1;2.979999967E-2;1.979999989E-2;-5.769999698E-2
1.922132812E1;1.989999972E-2;0.000000000E0;-2.829999849E-2
1.924118125E1;2.929999866E-2;2.909999900E-2;-4.789999872E-2
1.926103438E1;3.810000047E-2;-3.900000080E-2;-2.829999849E-2
1.928088594E1;2.799999900E-2;9.800000116E-3;-2.829999849E-2
1.930073906E1;7.699999958E-3;-9.099999443E-3;-4.789999872E-2
1.932059219E1;2.569999918E-2;1.260000002E-2;9.999999311E-4
1.934044375E1;1.349999942E-2;6.000000052E-3;-3.810000047E-2
1.936029688E1;4.179999977E-2;1.879999973E-2;-1.850000024E-2
1.938014844E1;3.240000084E-2;1.300000004E-3;-1.850000024E-2
1.940000156E1;1.269999985E-2;1.389999967E-2;-6.749999523E-2
1.941985469E1;1.999999955E-2;-3.240000084E-2;-6.749999523E-2
1.943970781E1;4.209999740E-2;-2.019999921E-2;-3.819999844E-2
1.945955938E1;2.809999883E-2;4.999999655E-4;-4.800000042E-2
1.947941562E1;1.759999990E-2;9.999999776E-3;-6.759999692E-2
1.949926562E1;1.730000041E-2;1.939999871E-2;-8.720000088E-2
1.951911719E1;-3.399999812E-3;-1.960000023E-2;-2.840000018E-2
1.953897031E1;2.339999937E-2;2.999999933E-2;-2.840000018E-2
1.955882344E1;2.190000005E-2;-1.850000024E-2;8.999999845E-4
1.957867500E1;2.300000004E-2;2.039999887E-2;-5.790000036E-2
1.959852812E1;-4.799999762E-3;2.009999938E-2;-4.800000042E-2
1.961838125E1;2.499999851E-2;-9.300000034E-3;-6.759999692E-2
1.963823750E1;1.529999916E-2;8.999999845E-4;-3.819999844E-2
1.965808594E1;4.369999841E-2;1.179999951E-2;-8.799999952E-3
1.967793906E1;1.379999984E-2;1.200000010E-2;-4.800000042E-2
1.969779219E1;1.399999950E-2;2.199999988E-2;-3.819999844E-2
1.971764375E1;1.379999984E-2;3.499999875E-3;-4.800000042E-2
1.973749688E1;-7.199999876E-3;1.469999924E-2;-5.779999867E-2
1.975735000E1;2.099999972E-2;1.599999890E-2;-9.709999710E-2
1.977720156E1;3.959999979E-2;-1.229999959E-2;-3.819999844E-2
1.979705469E1;1.929999888E-2;-1.199999941E-3;-1.860000007E-2
1.981690781E1;1.099999994E-3;-4.999999655E-4;-1.860000007E-2
1.983676094E1;-1.719999872E-2;9.099999443E-3;-3.819999844E-2
1.985661250E1;1.799999969E-3;1.879999973E-2;-3.819999844E-2
1.987646562E1;2.070000023E-2;-9.999999747E-5;-2.840000018E-2
1.989631875E1;1.169999968E-2;-9.899999946E-3;-5.779999867E-2
1.991617031E1;4.299999680E-3;8.599999361E-3;-5.779999867E-2
1.993602344E1;5.699999630E-3;2.699999884E-2;-5.779999867E-2
1.995587656E1;-4.399999976E-3;3.570000082E-2;-5.779999867E-2
1.997572969E1;-4.900000058E-3;5.799999926E-3;-4.800000042E-2
1.999558125E1;1.409999933E-2;2.549999952E-2;-1.860000007E-2
2.001543438E1;1.310000010E-2;6.300000008E-3;-2.840000018E-2
2.003528594E1;-7.699999958E-3;-2.139999904E-2;-3.819999844E-2
2.005513906E1;2.080000006E-2;1.899999939E-2;-8.799999952E-3
2.007499219E1;5.999999703E-4;5.909999833E-2;-5.779999867E-2
2.009484531E1;8.700000122E-3;4.939999804E-2;-5.779999867E-2
2.011469688E1;2.549999952E-2;1.300000004E-3;1.069999952E-2
2.013455000E1;2.269999869E-2;-2.599999867E-2;-8.799999952E-3
2.015440312E1;9.999999311E-4;-1.539999992E-2;-2.840000018E-2
2.017425469E1;2.899999917E-2;3.599999938E-3;-5.790000036E-2
2.019410781E1;2.679999918E-2;-6.199999712E-3;-5.790000036E-2
2.021396094E1;3.299999982E-3;3.390000015E-2;-5.790000036E-2
2.023381406E1;-1.189999934E-2;7.100000046E-3;-5.790000036E-2
2.025366562E1;-2.919999883E-2;2.109999955E-2;-5.790000036E-2
2.027351875E1;1.019999944E-2;2.689999901E-2;-4.809999838E-2
2.029337188E1;-1.399999950E-3;-2.309999987E-2;-3.830000013E-2
2.031322344E1;2.539999969E-2;2.389999852E-2;-4.800000042E-2
2.033307656E1;1.709999889E-2;9.599999525E-3;-8.720000088E-2
2.035292969E1;3.599999938E-3;1.189999934E-2;-3.819999844E-2
2.037278281E1;1.899999939E-2;1.279999968E-2;-2.829999849E-2
2.039263438E1;1.730000041E-2;1.310000010E-2;-8.700000122E-3
2.041248750E1;1.779999956E-2;1.279999968E-2;2.060000040E-2
2.043234063E1;-6.790000200E-2;3.179999813E-2;-1.557999998E-1
2.045219219E1;-2.099999972E-2;1.339999959E-2;-1.656000018E-1
2.047204531E1;-3.299999982E-3;-5.799999926E-3;9.999999311E-4
2.049189844E1;3.379999846E-2;1.359999925E-2;-1.850000024E-2
2.051175000E1;-6.000000052E-3;3.339999914E-2;9.999999311E-4
2.053160312E1;-6.599999964E-3;-4.999999888E-3;-6.759999692E-2
2.055145625E1;1.209999993E-2;-4.399999976E-3;1.079999935E-2
2.057130938E1;1.189999934E-2;2.479999885E-2;9.999999311E-4
2.059116094E1;3.099999856E-3;1.399999950E-2;-3.810000047E-2
2.061101250E1;-7.299999706E-3;2.279999852E-2;-8.720000088E-2
2.063086563E1;1.139999926E-2;-6.300000008E-3;-9.699999541E-2
2.065071875E1;1.030000020E-2;3.999999724E-3;-8.700000122E-3
2.067057031E1;1.139999926E-2;-2.499999851E-2;-2.829999849E-2
2.069042344E1;1.449999958E-2;2.249999903E-2;-1.850000024E-2
2.071027656E1;-4.120000079E-2;5.889999866E-2;-4.800000042E-2
2.073012812E1;1.079999935E-2;4.669999704E-2;-6.759999692E-2
2.074998125E1;1.359999925E-2;1.569999941E-2;-5.790000036E-2
2.076983438E1;6.799999624E-3;1.469999924E-2;-5.790000036E-2
2.078968750E1;2.999999851E-4;1.329999976E-2;-1.860000007E-2
2.080954062E1;5.099999718E-3;2.080000006E-2;-3.830000013E-2
2.082939219E1;-1.009999961E-2;3.769999743E-2;-4.809999838E-2
2.084924688E1;2.600000007E-3;1.669999957E-2;-3.830000013E-2
2.086909688E1;4.399999976E-3;6.099999882E-3;-5.790000036E-2
2.088895000E1;6.399999838E-3;1.529999916E-2;-4.809999838E-2
2.090880313E1;-1.279999968E-2;3.329999745E-2;-5.790000036E-2
2.092865469E1;-2.459999919E-2;3.299999982E-3;-4.809999838E-2
2.094850781E1;2.499999944E-3;-1.659999974E-2;-2.850000001E-2
2.096836094E1;2.499999944E-3;2.149999887E-2;-2.859999985E-2
2.098821406E1;-6.000000052E-3;4.879999906E-2;-5.799999833E-2
2.100806562E1;-2.510000020E-2;4.749999940E-2;-4.820000008E-2
2.102791875E1;-5.599999800E-3;1.769999973E-2;-2.859999985E-2
2.104777188E1;1.399999950E-2;1.750000007E-2;-5.799999833E-2
2.106762344E1;-1.449999958E-2;3.639999777E-2;-5.799999833E-2
2.108747656E1;6.399999838E-3;2.569999918E-2;-3.839999810E-2
2.110732969E1;1.719999872E-2;6.409999728E-2;-2.859999985E-2
2.112718281E1;-1.219999976E-2;4.439999908E-2;-6.780000031E-2
2.114703438E1;-2.400000021E-2;-1.219999976E-2;-4.820000008E-2
2.116688750E1;2.899999963E-3;1.030000020E-2;-2.859999985E-2
2.118674063E1;1.139999926E-2;6.109999865E-2;-6.780000031E-2
2.120659219E1;-7.400000002E-3;2.199999988E-2;-1.869999990E-2
2.122644531E1;1.150000002E-2;2.899999963E-3;-4.820000008E-2
2.124629844E1;-9.800000116E-3;3.249999881E-2;-3.839999810E-2
2.126615000E1;-2.199999988E-2;2.369999886E-2;-6.780000031E-2
2.128600312E1;5.200000014E-3;3.419999778E-2;-6.780000031E-2
2.130585625E1;3.700000001E-3;5.399999674E-3;-4.820000008E-2
2.132570781E1;1.799999969E-3;1.589999907E-2;-1.869999990E-2
2.134556094E1;-9.200000204E-3;1.640000008E-2;-4.809999838E-2
2.136541406E1;-3.299999982E-3;7.799999788E-3;7.999999798E-4
2.138526719E1;-1.549999975E-2;3.749999776E-2;1.059999969E-2
2.140511875E1;1.269999985E-2;8.499999531E-3;-3.830000013E-2
2.142497188E1;1.799999969E-3;3.839999810E-2;-3.830000013E-2
2.144482500E1;2.499999944E-3;2.899999917E-2;-4.809999838E-2
2.146467656E1;-3.469999880E-2;5.879999697E-2;-2.850000001E-2
2.148453750E1;5.499999970E-3;2.950000018E-2;-3.830000013E-2
2.150438281E1;6.300000008E-3;1.960000023E-2;-4.809999838E-2
2.152423438E1;-2.199999988E-2;3.909999877E-2;-2.850000001E-2
2.154408750E1;-2.119999938E-2;2.909999900E-2;-4.809999838E-2
2.156394062E1;-1.699999906E-3;2.889999934E-2;-1.070000008E-1
2.158379375E1;-3.499999875E-3;0.000000000E0;-4.809999838E-2
2.160364531E1;-1.409999933E-2;0.000000000E0;-8.899999782E-3
2.162349844E1;5.799999926E-3;9.200000204E-3;-3.830000013E-2
2.164335156E1;-4.299999680E-3;2.799999900E-2;-1.869999990E-2
2.166320313E1;4.900000058E-3;8.200000040E-3;-3.830000013E-2
2.168305625E1;-1.359999925E-2;2.759999968E-2;-2.850000001E-2
2.170290938E1;-1.269999985E-2;6.999999750E-3;-2.850000001E-2
2.172276094E1;7.100000046E-3;3.509999812E-2;-3.839999810E-2
2.174261406E1;-2.499999944E-3;3.429999948E-2;-1.879999973E-2
2.176246719E1;-1.119999960E-2;4.900000058E-3;-4.820000008E-2
2.178232031E1;-8.999999613E-3;3.379999846E-2;-1.879999973E-2
2.180217188E1;-7.199999876E-3;3.350000083E-2;-5.799999833E-2
2.182202500E1;-1.539999992E-2;5.260000005E-2;-2.859999985E-2
2.184187812E1;-1.469999924E-2;3.000000026E-3;-4.820000008E-2
2.186172969E1;4.999999888E-3;4.169999808E-2;-6.780000031E-2
2.188158281E1;1.469999924E-2;2.600000007E-3;-2.859999985E-2
2.190143438E1;-4.600000102E-3;3.219999745E-2;-4.820000008E-2
2.192128750E1;-3.419999778E-2;2.279999852E-2;-6.780000031E-2
2.194114063E1;-6.599999964E-3;1.299999934E-2;-4.820000008E-2
2.196099375E1;2.979999967E-2;3.329999745E-2;-4.820000008E-2
2.198084531E1;-1.079999935E-2;2.389999852E-2;-5.799999833E-2
2.200069844E1;-1.159999985E-2;2.419999987E-2;-2.859999985E-2
2.202055000E1;-1.699999906E-3;4.900000058E-3;7.999999798E-4
2.204040312E1;6.699999794E-3;5.439999700E-2;-3.839999810E-2
2.206025625E1;-1.489999983E-2;6.399999838E-3;-3.839999810E-2
2.208010781E1;-7.499999832E-3;1.799999923E-2;-4.809999838E-2
2.209996094E1;9.200000204E-3;3.879999742E-2;-1.869999990E-2
2.211981406E1;-1.169999968E-2;1.979999989E-2;-8.739999682E-2
2.213966719E1;-2.199999988E-3;1.970000006E-2;-3.830000013E-2
2.215952188E1;-1.420000009E-2;2.960000001E-2;-4.809999838E-2
2.217937188E1;-6.899999920E-3;3.979999945E-2;-8.739999682E-2
2.219922500E1;6.999999750E-4;1.109999977E-2;-6.769999862E-2
2.221907656E1;9.999999747E-5;1.169999968E-2;-3.830000013E-2
2.223892969E1;-9.999999776E-3;2.209999971E-2;-5.790000036E-2
2.225878281E1;-1.960000023E-2;4.149999842E-2;-2.850000001E-2
2.227863438E1;1.999999949E-4;2.139999904E-2;-2.850000001E-2
2.229848750E1;9.999999776E-3;2.149999887E-2;-6.769999862E-2
2.231834062E1;0.000000000E0;3.109999932E-2;-8.899999782E-3
2.233819375E1;9.499999695E-3;2.089999989E-2;-3.830000013E-2
2.235804531E1;-8.700000122E-3;4.749999940E-2;-2.859999985E-2
2.237789844E1;-2.730000019E-2;3.749999776E-2;-7.759999484E-2
2.239775156E1;-2.799999900E-2;2.740000002E-2;-4.820000008E-2
2.241760313E1;-3.049999848E-2;1.829999872E-2;-2.859999985E-2
2.243745625E1;7.100000046E-3;1.840000041E-2;1.059999969E-2
2.245730938E1;6.999999750E-3;2.699999884E-2;1.059999969E-2
2.247716250E1;-1.139999926E-2;2.489999868E-2;-7.759999484E-2
2.249701406E1;-1.300000004E-3;2.389999852E-2;-8.739999682E-2
2.251686719E1;-2.029999904E-2;3.350000083E-2;-3.839999810E-2
2.253672031E1;-8.499999531E-3;3.350000083E-2;-3.839999810E-2
2.255657188E1;-1.409999933E-2;1.279999968E-2;-6.780000031E-2
2.257642500E1;-9.999999747E-5;1.899999916E-3;-4.820000008E-2
2.259627812E1;-4.569999874E-2;3.979999945E-2;-2.859999985E-2
2.261612969E1;-4.289999977E-2;3.839999810E-2;-6.790000200E-2
2.263598281E1;-2.019999921E-2;3.709999844E-2;-2.859999985E-2
2.265583594E1;-1.779999956E-2;1.669999957E-2;-5.810000002E-2
2.267568750E1;-3.519999981E-2;2.579999901E-2;-2.859999985E-2
2.269554063E1;-3.350000083E-2;1.539999992E-2;-7.769999653E-2
2.271539375E1;-2.249999903E-2;3.399999812E-2;-6.790000200E-2
2.273524688E1;-1.119999960E-2;2.309999987E-2;-4.829999804E-2
2.275509844E1;-1.989999972E-2;6.159999967E-2;-2.869999968E-2
2.277495156E1;-1.929999888E-2;1.279999968E-2;6.999999750E-4
2.279480469E1;-8.200000040E-3;2.899999963E-3;-4.829999804E-2
2.281465625E1;-1.669999957E-2;5.139999837E-2;-5.810000002E-2
2.283450938E1;4.199999850E-3;3.130000085E-2;-2.869999968E-2
2.285436250E1;1.559999958E-2;4.099999741E-2;-6.790000200E-2
2.287421562E1;-1.189999934E-2;4.140000045E-2;-4.829999804E-2
2.289406719E1;-3.969999775E-2;1.239999942E-2;-1.879999973E-2
2.291392188E1;7.999999798E-4;5.219999701E-2;6.999999750E-4
2.293377344E1;1.999999862E-3;3.309999779E-2;-1.879999973E-2
2.295362500E1;-1.640000008E-2;3.339999914E-2;-1.879999973E-2
2.297347812E1;4.299999680E-3;3.370000049E-2;-5.799999833E-2
2.299333125E1;-1.439999975E-2;3.460000083E-2;-4.820000008E-2
2.301318281E1;6.000000052E-3;6.469999999E-2;-6.780000031E-2
2.303303594E1;-1.219999976E-2;2.559999935E-2;-6.780000031E-2
2.305288906E1;-1.129999943E-2;2.579999901E-2;-5.799999833E-2
2.307274062E1;-2.080000006E-2;7.299999706E-3;-5.790000036E-2
2.309259375E1;-1.079999935E-2;2.799999900E-2;-3.830000013E-2
2.311244531E1;-1.030000020E-2;3.819999844E-2;-3.830000013E-2
2.313229844E1;9.599999525E-3;8.799999952E-3;-1.869999990E-2
2.315215469E1;9.999999311E-4;2.819999866E-2;-4.809999838E-2
2.317200469E1;-2.749999985E-2;1.740000024E-2;-2.850000001E-2
2.319185625E1;-2.689999901E-2;6.899999920E-3;-1.869999990E-2
2.321170938E1;-1.809999906E-2;2.669999935E-2;-4.809999838E-2
2.323156250E1;-9.399999864E-3;1.809999906E-2;-1.869999990E-2
2.325141406E1;-2.889999934E-2;3.830000013E-2;-6.769999862E-2
2.327126719E1;-1.889999956E-2;4.749999940E-2;-3.830000013E-2
2.329112031E1;-1.909999922E-2;4.679999873E-2;-3.830000013E-2
2.331097188E1;-3.909999877E-2;8.100000210E-3;-5.790000036E-2
2.333082500E1;-1.989999972E-2;3.819999844E-2;-1.869999990E-2
2.335067812E1;-9.599999525E-3;9.099999443E-3;-4.809999838E-2
2.337052969E1;-1.909999922E-2;4.789999872E-2;-5.790000036E-2
2.339038281E1;-8.999999613E-3;4.839999974E-2;-4.809999838E-2
2.341023594E1;-2.909999900E-2;3.949999809E-2;-3.830000013E-2
2.343008750E1;-2.070000023E-2;1.139999926E-2;-1.869999990E-2
2.344994062E1;-2.139999904E-2;2.269999869E-2;-2.850000001E-2
2.346979375E1;-2.159999870E-2;5.309999734E-2;-4.809999838E-2
2.348964688E1;-1.200000010E-2;2.449999936E-2;-8.799999952E-3
2.350949844E1;-1.269999985E-2;3.500000015E-2;-2.840000018E-2
2.352935156E1;-2.329999954E-2;4.589999840E-2;-5.779999867E-2
2.354920469E1;-1.370000001E-2;5.659999698E-2;-1.860000007E-2
2.356905625E1;-1.409999933E-2;3.790000081E-2;-2.840000018E-2
2.358890938E1;-2.379999869E-2;4.849999771E-2;-8.720000088E-2
2.360876250E1;-3.370000049E-2;3.920000046E-2;-4.800000042E-2
2.362861563E1;-4.600000102E-3;1.989999972E-2;-3.819999844E-2
2.364846719E1;1.399999950E-2;2.070000023E-2;-4.800000042E-2
2.366832031E1;-2.549999952E-2;6.119999662E-2;-4.800000042E-2
2.368817344E1;-1.679999940E-2;3.329999745E-2;-5.779999867E-2
2.370802500E1;-7.699999958E-3;3.460000083E-2;-3.810000047E-2
2.372787812E1;1.300000004E-3;2.559999935E-2;-4.789999872E-2
2.374773125E1;-1.840000041E-2;2.630000003E-2;-2.829999849E-2
2.376758281E1;-8.799999952E-3;4.649999738E-2;-4.789999872E-2
2.378743594E1;4.999999655E-4;4.729999974E-2;-3.810000047E-2
2.380728906E1;-9.599999525E-3;8.599999361E-3;-2.829999849E-2
2.382714219E1;-1.979999989E-2;8.999999613E-3;-4.789999872E-2
2.384699375E1;-4.089999944E-2;6.849999726E-2;-2.829999849E-2
2.386684688E1;-2.209999971E-2;3.009999916E-2;-3.810000047E-2
2.388670000E1;-3.229999915E-2;2.129999921E-2;-4.789999872E-2
2.390655156E1;-1.310000010E-2;4.129999876E-2;-4.789999872E-2
2.392640469E1;-1.370000001E-2;2.219999954E-2;-4.789999872E-2
2.394626094E1;-2.410000004E-2;2.279999852E-2;1.099999994E-3
2.396611094E1;-1.409999933E-2;3.299999982E-2;-2.829999849E-2
2.398596250E1;-1.329999976E-2;3.299999982E-2;-2.829999849E-2
2.400581562E1;-3.099999856E-3;3.219999745E-2;-3.810000047E-2
2.402566719E1;-2.199999988E-3;3.139999881E-2;-7.729999721E-2
2.404552031E1;-1.090000011E-2;2.119999938E-2;-1.850000024E-2
2.406537344E1;-5.999999703E-4;7.029999793E-2;-3.810000047E-2
2.408522656E1;9.699999355E-3;3.099999949E-2;-1.850000024E-2
2.410507813E1;-2.869999968E-2;4.999999702E-2;-8.700000122E-3
2.412493125E1;1.049999986E-2;4.930000007E-2;-4.789999872E-2
2.414478438E1;-1.840000041E-2;4.859999940E-2;-3.810000047E-2
2.416463594E1;-7.999999449E-3;8.799999952E-3;-1.850000024E-2
2.418448906E1;-3.669999912E-2;1.789999940E-2;-2.829999849E-2
2.420434219E1;-3.599999845E-2;4.690000042E-2;-4.789999872E-2
2.422419531E1;-3.599999845E-2;4.580000043E-2;-2.829999849E-2
2.424404688E1;-1.620000042E-2;2.520000003E-2;-1.850000024E-2
2.426390000E1;-2.510000020E-2;3.439999744E-2;-4.789999872E-2
2.428375156E1;-2.429999970E-2;3.399999812E-2;-6.759999692E-2
2.430360469E1;-1.429999992E-2;1.359999925E-2;-4.800000042E-2
2.432345781E1;-3.999999724E-3;3.249999881E-2;-7.739999890E-2
2.434331094E1;-1.349999942E-2;1.200000010E-2;-6.759999692E-2
2.436316250E1;-2.329999954E-2;3.150000051E-2;-5.779999867E-2
2.438301563E1;-2.410000004E-2;2.159999870E-2;-2.840000018E-2
2.440286875E1;-3.409999982E-2;4.099999741E-2;-2.840000018E-2
2.442272031E1;-2.539999969E-2;5.089999735E-2;-3.819999844E-2
2.444257344E1;-6.000000052E-3;2.159999870E-2;-2.840000018E-2
2.446242500E1;-2.599999867E-2;5.079999939E-2;-7.739999890E-2
2.448227812E1;-6.300000008E-3;2.070000023E-2;-2.840000018E-2
2.450213125E1;-6.899999920E-3;4.930000007E-2;-4.800000042E-2
2.452198438E1;-8.299999870E-3;2.899999917E-2;-4.800000042E-2
2.454183594E1;-1.989999972E-2;2.859999985E-2;-4.800000042E-2
2.456168906E1;-1.119999960E-2;3.900000080E-2;-2.840000018E-2
2.458154219E1;-2.129999921E-2;5.999999703E-4;-3.819999844E-2
2.460139375E1;-1.150000002E-2;2.999999851E-4;-4.800000042E-2
2.462124688E1;-1.200000010E-2;4.889999703E-2;-4.800000042E-2
2.464110000E1;-3.000000026E-3;9.800000116E-3;-1.860000007E-2
2.466095313E1;-4.299999680E-3;3.019999899E-2;-2.840000018E-2
2.468080469E1;-1.379999984E-2;3.109999932E-2;-2.840000018E-2
2.470065781E1;-2.359999903E-2;4.140000045E-2;-4.800000042E-2
2.472050938E1;-2.349999920E-2;3.139999881E-2;-3.819999844E-2
2.474036250E1;-4.600000102E-3;4.140000045E-2;-2.840000018E-2
2.476021562E1;-3.480000049E-2;2.180000022E-2;-3.819999844E-2
2.478006875E1;-2.679999918E-2;4.179999977E-2;-3.819999844E-2
2.479992031E1;-2.749999985E-2;2.899999963E-3;-2.840000018E-2
2.481977344E1;1.999999862E-3;2.180000022E-2;-2.840000018E-2
2.483962656E1;-1.679999940E-2;4.089999944E-2;-8.729999512E-2
2.485947813E1;-4.600000009E-2;5.999999866E-2;-5.790000036E-2
2.487933125E1;-1.769999973E-2;2.149999887E-2;-8.799999952E-3
2.489918438E1;-9.300000034E-3;1.229999959E-2;-4.800000042E-2
2.491903594E1;8.999999613E-3;4.160000011E-2;-3.819999844E-2
2.493888906E1;-3.089999966E-2;1.219999976E-2;-5.790000036E-2
2.495874219E1;-2.199999988E-3;2.229999937E-2;-5.790000036E-2
2.497859531E1;-2.400000021E-2;2.269999869E-2;-3.819999844E-2
2.499844688E1;-2.679999918E-2;2.410000004E-2;-3.819999844E-2
2.501830000E1;-9.399999864E-3;3.519999981E-2;-1.860000007E-2
2.503815312E1;0.000000000E0;3.480000049E-2;8.999999845E-4
2.505800469E1;-8.899999782E-3;3.439999744E-2;-3.819999844E-2
2.507785781E1;-2.630000003E-2;3.409999982E-2;-8.729999512E-2
2.509771094E1;-2.339999937E-2;6.399999559E-2;-5.779999867E-2
2.511756406E1;-2.180000022E-2;3.480000049E-2;-6.759999692E-2
2.513741563E1;-2.080000006E-2;1.469999924E-2;-2.840000018E-2
2.515726875E1;-9.399999864E-3;2.389999852E-2;-3.819999844E-2
2.517712188E1;-3.559999913E-2;2.290000021E-2;-1.860000007E-2
2.519697344E1;-1.279999968E-2;1.200000010E-2;-4.800000042E-2
2.521682656E1;-1.040000003E-2;8.009999990E-2;-6.759999692E-2
2.523667969E1;-2.939999849E-2;5.040000007E-2;-3.819999844E-2
2.525653125E1;-1.019999944E-2;1.189999934E-2;-4.800000042E-2
2.527638438E1;-6.999999750E-4;1.219999976E-2;-4.800000042E-2
2.529623750E1;-1.059999969E-2;2.169999853E-2;-1.860000007E-2
2.531608906E1;-3.009999916E-2;7.000000030E-2;-5.779999867E-2
2.533594375E1;-2.039999887E-2;3.039999865E-2;-5.779999867E-2
2.535579531E1;8.999999613E-3;1.099999994E-2;-2.840000018E-2
2.537564844E1;-2.929999866E-2;1.129999943E-2;-3.819999844E-2
2.539550000E1;-4.800000042E-2;3.049999848E-2;-1.860000007E-2
2.541535313E1;-1.769999973E-2;2.070000023E-2;-5.779999867E-2
2.543520625E1;-3.689999878E-2;4.019999877E-2;-4.800000042E-2
2.545505781E1;-4.649999738E-2;2.989999950E-2;-3.819999844E-2
2.547491094E1;-1.789999940E-2;3.889999911E-2;-6.759999692E-2
2.549476406E1;4.999999655E-4;3.839999810E-2;-3.819999844E-2
2.551461562E1;-1.939999871E-2;3.810000047E-2;-5.790000036E-2
2.553446875E1;-2.859999985E-2;3.769999743E-2;-4.800000042E-2
2.555432188E1;1.599999960E-3;3.700000048E-2;-2.840000018E-2
2.557417500E1;1.899999916E-3;4.589999840E-2;-4.809999838E-2
2.559402656E1;-6.699999794E-3;2.549999952E-2;-5.790000036E-2
2.561387969E1;-3.700000001E-3;5.200000014E-3;-2.840000018E-2
2.563373906E1;-1.030000020E-2;2.369999886E-2;-1.860000007E-2
2.565358438E1;-4.829999804E-2;9.109999985E-2;-1.860000007E-2
2.567343750E1;-4.849999771E-2;4.129999876E-2;-5.790000036E-2
2.569328906E1;-9.999999311E-4;-1.659999974E-2;-5.790000036E-2
2.571314219E1;-1.399999950E-3;-6.499999668E-3;-1.860000007E-2
2.573299375E1;-1.399999950E-3;5.139999837E-2;-2.850000001E-2
2.575284844E1;-4.030000046E-2;4.989999905E-2;-5.790000036E-2
2.577270000E1;-4.879999906E-2;7.829999924E-2;-2.850000001E-2
2.579255312E1;-3.739999980E-2;4.889999703E-2;-5.790000036E-2
2.581240625E1;-1.809999906E-2;4.939999804E-2;-4.809999838E-2
2.583225781E1;-8.499999531E-3;3.079999983E-2;-4.809999838E-2
2.585211094E1;-1.829999872E-2;2.180000022E-2;-1.860000007E-2
2.587196406E1;-1.789999940E-2;3.209999949E-2;-6.769999862E-2
2.589181563E1;1.090000011E-2;1.370000001E-2;-5.790000036E-2
2.591166875E1;9.999999747E-5;2.429999970E-2;-3.819999844E-2
2.593152188E1;-2.039999887E-2;8.349999785E-2;-5.790000036E-2
2.595137344E1;-4.120000079E-2;3.429999948E-2;-4.809999838E-2
2.597122656E1;-1.289999951E-2;2.379999869E-2;-3.830000013E-2
2.599107969E1;-4.399999976E-3;5.179999769E-2;-5.790000036E-2
2.601093125E1;-1.609999873E-2;5.020000041E-2;-2.850000001E-2
2.603078438E1;1.059999969E-2;5.020000041E-2;-4.809999838E-2
2.605063750E1;-2.829999849E-2;2.119999938E-2;-1.869999990E-2
2.607048906E1;-3.619999811E-2;2.999999933E-2;-2.850000001E-2
2.609034219E1;-1.689999923E-2;4.679999873E-2;-6.780000031E-2
2.611019531E1;-3.709999844E-2;7.310000062E-2;-1.879999973E-2
2.613004844E1;-7.899999619E-3;4.230000079E-2;-5.799999833E-2
2.614990000E1;-1.759999990E-2;5.249999836E-2;-6.780000031E-2
2.616975313E1;-1.549999975E-2;2.419999987E-2;-4.820000008E-2
2.618960625E1;-1.370000001E-2;1.549999975E-2;-5.799999833E-2
2.620945781E1;-3.189999983E-2;6.439999491E-2;-4.820000008E-2
2.622931094E1;-2.139999904E-2;5.409999937E-2;-3.839999810E-2
2.624916406E1;-5.199999735E-2;1.529999916E-2;-2.859999985E-2
2.626901719E1;-1.469999924E-2;1.630000025E-2;-4.820000008E-2
2.628886875E1;-5.599999800E-3;2.689999901E-2;-2.850000001E-2
2.630872188E1;-5.699999630E-3;6.589999795E-2;-2.859999985E-2
2.632857344E1;-2.549999952E-2;2.639999986E-2;-5.799999833E-2
2.634842656E1;-2.529999986E-2;3.619999811E-2;-4.820000008E-2
2.636827969E1;-6.000000052E-3;3.610000014E-2;-3.839999810E-2
2.638813281E1;-6.799999624E-3;3.610000014E-2;-4.820000008E-2
2.640798906E1;-1.799999923E-2;5.579999834E-2;-2.859999985E-2
2.642783750E1;6.999999750E-4;2.620000020E-2;-2.859999985E-2
2.644769062E1;-7.100000046E-3;1.589999907E-2;-3.839999810E-2
2.646754375E1;-3.390000015E-2;4.419999942E-2;-5.799999833E-2
2.648739531E1;-3.549999744E-2;5.350000039E-2;-8.999999613E-3
2.650724844E1;-8.899999782E-3;5.339999869E-2;-3.839999810E-2
2.652710156E1;0.000000000E0;3.249999881E-2;-2.859999985E-2
2.654695312E1;-3.779999912E-2;4.140000045E-2;-2.859999985E-2
2.656680625E1;-1.669999957E-2;1.249999925E-2;-3.839999810E-2
2.658665938E1;-4.609999806E-2;2.379999869E-2;-3.839999810E-2
2.660651094E1;-3.599999845E-2;4.439999908E-2;-5.799999833E-2
2.662636406E1;-6.599999964E-3;7.379999757E-2;-3.839999810E-2
2.664621719E1;-1.679999940E-2;5.499999970E-3;-5.799999833E-2
2.666606875E1;3.099999856E-3;2.510000020E-2;-3.839999810E-2
2.668592188E1;-3.469999880E-2;-1.409999933E-2;-4.820000008E-2
2.670577500E1;-2.359999903E-2;2.489999868E-2;-1.879999973E-2
2.672562812E1;-3.209999949E-2;3.419999778E-2;-2.859999985E-2
2.674547969E1;-2.089999989E-2;1.429999992E-2;-2.859999985E-2
2.676533281E1;-1.009999961E-2;6.319999695E-2;-3.839999810E-2
2.678518594E1;-2.039999887E-2;7.279999554E-2;-4.820000008E-2
2.680503750E1;-3.499999875E-3;1.449999958E-2;-8.999999613E-3
2.682489063E1;-2.559999935E-2;2.489999868E-2;-2.859999985E-2
2.684474219E1;-3.619999811E-2;3.489999846E-2;-1.879999973E-2
2.686459688E1;-5.509999767E-2;3.469999880E-2;-4.820000008E-2
2.688444688E1;-1.339999959E-2;3.399999812E-2;-3.839999810E-2
2.690430156E1;-2.139999904E-2;4.289999977E-2;-4.820000008E-2
2.692415938E1;-1.129999943E-2;6.260000169E-2;-2.859999985E-2
2.694400625E1;-2.119999938E-2;3.339999914E-2;-3.839999810E-2
2.696385938E1;8.100000210E-3;4.250000045E-2;-7.759999484E-2
2.698371250E1;-1.139999926E-2;1.209999993E-2;-3.839999810E-2
2.700356406E1;-3.029999882E-2;6.939999759E-2;-8.999999613E-3
2.702341563E1;-3.029999882E-2;3.879999742E-2;-4.820000008E-2
2.704326875E1;-2.080000006E-2;4.820000008E-2;-2.859999985E-2
2.706312188E1;7.699999958E-3;1.960000023E-2;6.999999750E-4
2.708297500E1;-1.099999994E-2;7.699999958E-2;-2.859999985E-2
2.710282813E1;-3.099999949E-2;5.509999767E-2;-6.790000200E-2
2.712267969E1;-2.349999920E-2;3.480000049E-2;-4.829999804E-2
2.714253281E1;-3.359999880E-2;2.659999952E-2;-3.849999979E-2
2.716238438E1;-2.489999868E-2;1.879999973E-2;-3.839999810E-2
2.718223750E1;-1.589999907E-2;2.869999968E-2;-2.859999985E-2
2.720209062E1;-5.899999756E-3;6.679999828E-2;-1.879999973E-2
2.722194219E1;-2.410000004E-2;5.609999970E-2;-5.810000002E-2
2.724179531E1;-2.389999852E-2;6.650000066E-2;6.999999750E-4
2.726164844E1;-1.319999993E-2;1.840000041E-2;-3.839999810E-2
2.728150156E1;-2.169999853E-2;2.819999866E-2;-3.839999810E-2
2.730135313E1;-3.049999848E-2;3.700000048E-2;-2.859999985E-2
2.732120625E1;-3.979999945E-2;2.659999952E-2;-3.839999810E-2
2.734105938E1;-2.039999887E-2;4.629999772E-2;-6.790000200E-2
2.736091094E1;-3.150000051E-2;4.690000042E-2;-4.820000008E-2
2.738076406E1;-3.000000026E-3;1.750000007E-2;-8.999999613E-3
2.740061719E1;-1.359999925E-2;4.669999704E-2;-2.859999985E-2
2.742046875E1;-3.289999813E-2;6.639999896E-2;-5.810000002E-2
2.744032188E1;-3.299999982E-3;4.669999704E-2;-7.769999653E-2
2.746017500E1;-3.339999914E-2;4.679999873E-2;-3.849999979E-2
2.748002812E1;-2.389999852E-2;2.749999985E-2;-6.790000200E-2
2.749987969E1;-4.499999806E-3;3.749999776E-2;-2.859999985E-2
2.751973281E1;-2.419999987E-2;2.740000002E-2;-3.849999979E-2
2.753958594E1;-4.900000058E-3;3.659999743E-2;-1.879999973E-2
2.755943750E1;-2.439999953E-2;4.580000043E-2;-3.849999979E-2
2.757929063E1;-3.309999779E-2;3.570000082E-2;-4.829999804E-2
2.759914375E1;-3.240000084E-2;1.589999907E-2;-3.849999979E-2
2.761899531E1;-2.300000051E-3;2.569999918E-2;-5.810000002E-2
2.763884844E1;-4.140000045E-2;1.519999932E-2;-4.829999804E-2
2.765870156E1;-1.289999951E-2;3.449999914E-2;-7.769999653E-2
2.767855469E1;-3.439999744E-2;4.499999806E-2;-4.829999804E-2
2.769840625E1;1.260000002E-2;1.689999923E-2;-2.869999968E-2
2.771825938E1;1.300000004E-3;3.769999743E-2;-4.829999804E-2
2.773811719E1;-3.859999776E-2;5.759999901E-2;-4.829999804E-2
2.775796406E1;-1.030000020E-2;3.759999946E-2;-2.869999968E-2
2.777781719E1;-2.129999921E-2;3.749999776E-2;-4.829999804E-2
2.779767031E1;-5.209999904E-2;1.829999872E-2;-5.810000002E-2
2.781752344E1;-1.469999924E-2;3.909999877E-2;-5.810000002E-2
2.783737500E1;4.299999680E-3;2.029999904E-2;-2.869999968E-2
2.785722813E1;-3.509999812E-2;3.019999899E-2;-4.829999804E-2
2.787708125E1;-1.499999966E-2;4.930000007E-2;-5.810000002E-2
2.789693281E1;-3.419999778E-2;7.769999653E-2;-5.810000002E-2
2.791678594E1;-1.599999890E-2;4.879999906E-2;-4.829999804E-2
2.793663906E1;-2.779999934E-2;1.040000003E-2;-4.829999804E-2
2.795649062E1;-8.799999952E-3;-9.200000204E-3;2.019999921E-2
2.797634375E1;-2.929999866E-2;3.879999742E-2;-1.889999956E-2
2.799619688E1;-1.009999961E-2;5.729999766E-2;-7.769999653E-2
2.801605000E1;-3.059999831E-2;5.689999834E-2;-5.810000002E-2
2.803590156E1;-2.099999972E-2;2.649999969E-2;-3.849999979E-2
2.805575469E1;-1.150000002E-2;2.649999969E-2;-3.849999979E-2
2.807560625E1;7.999999449E-3;1.669999957E-2;-3.849999979E-2
2.809545938E1;-2.060000040E-2;4.559999704E-2;-3.849999979E-2
2.811531250E1;-1.939999871E-2;6.489999592E-2;-6.799999624E-2
2.813516563E1;6.999999750E-4;3.559999913E-2;-3.849999979E-2
2.815501719E1;1.030000020E-2;4.609999806E-2;-2.869999968E-2
2.817487031E1;-1.899999939E-2;7.499999832E-3;-2.869999968E-2
2.819472344E1;-1.929999888E-2;6.560000032E-2;-3.849999979E-2
2.821457500E1;-2.039999887E-2;4.539999738E-2;-6.799999624E-2
2.823442812E1;-3.070000000E-2;6.099999882E-3;-5.819999799E-2
2.825427969E1;0.000000000E0;2.499999851E-2;-3.859999776E-2
2.827413281E1;-6.899999920E-3;6.250000000E-2;-2.879999951E-2
2.829398594E1;-2.499999851E-2;6.089999899E-2;-5.819999799E-2
2.831383906E1;-2.489999868E-2;4.120000079E-2;-5.819999799E-2
2.833369063E1;-6.399999838E-3;5.189999938E-2;-2.879999951E-2
2.835354375E1;-1.539999992E-2;2.249999903E-2;-9.099999443E-3
2.837339688E1;-5.240000039E-2;5.109999701E-2;-5.819999799E-2
2.839324844E1;-3.039999865E-2;7.059999555E-2;-6.799999624E-2
2.841310156E1;-4.019999877E-2;7.149999589E-2;-1.889999956E-2
2.843295469E1;-1.999999862E-3;3.319999948E-2;-3.849999979E-2
2.845280625E1;6.899999920E-3;3.329999745E-2;-4.829999804E-2
2.847265938E1;-2.109999955E-2;3.319999948E-2;5.999999703E-4
2.849251250E1;-3.909999877E-2;5.240000039E-2;5.999999703E-4
2.851236406E1;-3.799999878E-2;2.309999987E-2;-5.810000002E-2
2.853221719E1;-8.499999531E-3;3.269999847E-2;-4.829999804E-2
2.855207031E1;-8.999999613E-3;4.239999875E-2;-3.849999979E-2
2.857192188E1;-1.879999973E-2;4.239999875E-2;-4.829999804E-2
2.859177500E1;-1.809999906E-2;3.309999779E-2;-1.889999956E-2
2.861162813E1;-2.699999884E-2;2.400000021E-2;-5.810000002E-2
2.863148125E1;-3.590000048E-2;3.469999880E-2;-4.829999804E-2
2.865133281E1;-3.599999845E-2;3.549999744E-2;-3.849999979E-2
2.867118594E1;-1.620000042E-2;3.720000014E-2;-6.790000200E-2
2.869103906E1;-1.559999958E-2;-1.059999969E-2;-2.859999985E-2
2.871089062E1;-3.419999778E-2;1.970000006E-2;-4.820000008E-2
2.873074375E1;-3.390000015E-2;4.059999809E-2;-4.820000008E-2
2.875059688E1;-2.389999852E-2;6.179999933E-2;-6.780000031E-2
2.877045000E1;-2.379999869E-2;3.469999880E-2;-3.839999810E-2
2.879030156E1;-5.289999768E-2;6.610000134E-2;-9.719999880E-2
2.881015469E1;-4.100000020E-3;6.849999726E-2;-3.830000013E-2
2.883000781E1;-3.350000083E-2;7.209999859E-2;-8.729999512E-2
2.884985938E1;-1.389999967E-2;-2.129999921E-2;-1.860000007E-2
2.886971250E1;-1.209999993E-2;2.399999881E-3;9.999999311E-4
2.888956563E1;-2.070000023E-2;9.329999983E-2;-2.829999849E-2
2.890941719E1;-4.079999775E-2;9.709999710E-2;-1.066999957E-1
2.892927031E1;-3.249999881E-2;1.469999924E-2;-5.759999901E-2
2.894912344E1;1.420000009E-2;-9.599999525E-3;-1.829999872E-2
2.896897656E1;1.079999935E-2;3.299999982E-2;3.070000000E-2
2.898882812E1;-2.950000018E-2;-4.199999850E-3;-4.769999906E-2
2.900868125E1;-2.139999904E-2;6.579999626E-2;-2.799999900E-2
2.902853438E1;-4.259999841E-2;3.920000046E-2;-7.699999958E-2
2.904838594E1;-3.610000014E-2;5.389999971E-2;-1.162000000E-1
2.906823906E1;-3.599999938E-3;6.069999933E-2;-1.799999923E-2
2.908809219E1;-4.859999940E-2;3.749999776E-2;-1.799999923E-2
2.910794375E1;4.100000020E-3;3.269999847E-2;-1.789999940E-2
2.912779688E1;-1.860000007E-2;7.479999959E-2;-7.999999449E-3
2.914765000E1;-2.850000001E-2;4.679999873E-2;2.129999921E-2
2.916750156E1;-4.399999976E-2;5.489999801E-2;-8.649999648E-2
2.918735469E1;-3.130000085E-2;-7.100000046E-3;-8.100000210E-3
2.920720781E1;-1.889999956E-2;2.809999883E-2;-1.799999923E-2
2.922706094E1;-2.559999935E-2;6.309999526E-2;-8.669999987E-2
2.924691250E1;-9.269999713E-2;8.020000160E-2;-1.160999984E-1
2.926676562E1;-2.419999987E-2;4.099999741E-2;-4.749999940E-2
2.928661875E1;2.359999903E-2;3.599999938E-3;-3.759999946E-2
2.930647031E1;-1.399999950E-2;7.249999791E-2;-8.200000040E-3
2.932632344E1;-1.059999969E-2;2.499999944E-3;-1.799999923E-2
2.934617656E1;-1.449999958E-2;6.920000166E-2;-5.729999766E-2
2.936602813E1;-7.679999620E-2;5.799999833E-2;-4.739999771E-2
2.938588125E1;-1.209999993E-2;1.740000024E-2;-3.759999946E-2
2.940573438E1;-1.719999872E-2;1.579999924E-2;1.500000013E-3
2.942558594E1;3.749999776E-2;3.199999779E-2;-5.729999766E-2
2.944543906E1;3.899999894E-3;1.879999973E-2;-3.769999743E-2
2.946529062E1;-3.070000000E-2;1.549999975E-2;-5.729999766E-2
2.948514531E1;-2.829999849E-2;3.199999779E-2;-1.651999950E-1
2.950499688E1;-6.719999760E-2;3.920000046E-2;-1.063999981E-1
2.952485000E1;-1.699999906E-3;-1.300000004E-3;-1.162000000E-1
2.954470312E1;3.229999915E-2;4.699999839E-2;1.300000004E-3
2.956455469E1;-9.999999311E-4;2.709999867E-2;-8.499999531E-3
2.958440781E1;-6.079999730E-2;2.669999935E-2;1.099999994E-2
2.960426563E1;-4.089999944E-2;8.559999615E-2;-5.749999732E-2
2.962411250E1;-3.289999813E-2;5.889999866E-2;-3.790000081E-2
2.964396563E1;-2.579999901E-2;1.011999995E-1;1.300000004E-3
2.966381719E1;-6.199999712E-3;8.229999989E-2;-4.759999737E-2
2.968367031E1;-7.419999689E-2;8.190000057E-2;-1.064999998E-1
2.970352344E1;-3.649999946E-2;5.269999802E-2;-5.739999935E-2
2.972337500E1;-4.919999838E-2;4.349999875E-2;-4.759999737E-2
2.974322812E1;-3.319999948E-2;1.459999941E-2;-7.710000128E-2
2.976308125E1;-7.100000046E-3;4.600000102E-3;-4.769999906E-2
2.978293438E1;-1.899999916E-3;2.459999919E-2;-1.829999872E-2
2.980278594E1;1.239999942E-2;7.339999825E-2;-4.769999906E-2
2.982263906E1;-1.329999976E-2;1.230999976E-1;-5.749999732E-2
2.984249219E1;-2.029999904E-2;9.640000015E-2;-8.499999531E-3
2.986234531E1;-3.079999983E-2;8.089999855E-2;-9.669999778E-2
2.988219688E1;5.799999926E-3;7.660000026E-2;-3.779999912E-2
2.990205000E1;-5.350000039E-2;8.269999921E-2;-5.729999766E-2
2.992190156E1;-1.480000000E-2;4.889999703E-2;5.059999973E-2
2.994175469E1;-7.620000094E-2;5.229999870E-2;-8.649999648E-2
2.996160781E1;-1.269999985E-2;1.449999958E-2;1.699999906E-3
2.998146094E1;-2.129999921E-2;9.279999882E-2;8.009999990E-2
3.000131250E1;-2.229999937E-2;5.359999835E-2;-1.649999917E-1
3.002116563E1;-2.579999901E-2;-6.000000052E-3;5.069999769E-2
3.004101875E1;-3.489999846E-2;5.040000007E-2;-3.749999776E-2
3.006087031E1;-3.429999948E-2;1.569999941E-2;-5.719999969E-2
3.008072344E1;-2.969999984E-2;4.619999975E-2;1.300000004E-3
3.010057656E1;-5.279999971E-2;5.399999674E-3;-8.599999361E-3
3.012042969E1;-3.549999744E-2;2.149999887E-2;8.999999845E-4
3.014028125E1;-1.019999944E-2;3.689999878E-2;-4.820000008E-2
3.016013438E1;-7.310000062E-2;8.259999752E-2;-8.760000020E-2
3.017998750E1;-6.149999797E-2;7.140000165E-2;-4.849999771E-2
3.019983906E1;-3.299999982E-2;5.339999869E-2;-1.171999946E-1
3.021969219E1;-5.699999630E-3;4.769999906E-2;-3.879999742E-2
3.023954531E1;2.499999944E-3;8.519999683E-2;-3.879999742E-2
3.025939844E1;-1.730000041E-2;8.509999514E-2;-2.899999917E-2
3.027925000E1;-5.559999868E-2;8.679999411E-2;-3.879999742E-2
3.029910313E1;-5.370000005E-2;6.819999963E-2;-1.074000001E-1
3.031895469E1;-5.020000041E-2;1.919999905E-2;-4.859999940E-2
3.033880781E1;-3.639999777E-2;8.100000210E-3;-5.839999765E-2
3.035866094E1;-4.329999909E-2;2.510000020E-2;-1.919999905E-2
3.037851406E1;-4.250000045E-2;2.199999988E-2;-9.399999864E-3
3.039836562E1;-3.170000017E-2;4.869999737E-2;2.999999851E-4
3.041821875E1;-4.109999910E-2;3.680000082E-2;-5.849999934E-2
3.043807188E1;-4.149999842E-2;5.499999970E-3;-2.909999900E-2
3.045792344E1;-4.219999909E-2;2.199999988E-2;-3.889999911E-2
3.047777656E1;-4.120000079E-2;1.066999957E-1;-6.830000132E-2
3.049762969E1;-3.139999881E-2;6.529999524E-2;-2.909999900E-2
3.051748281E1;-2.899999963E-3;1.589999907E-2;-3.889999911E-2
3.053733438E1;-2.369999886E-2;5.590000004E-2;-6.839999557E-2
3.055718750E1;-7.319999486E-2;3.889999911E-2;-2.909999900E-2
3.057704063E1;-2.579999901E-2;4.270000011E-2;-1.929999888E-2
3.059689219E1;-4.639999941E-2;3.579999879E-2;-5.849999934E-2
3.061674531E1;-1.779999956E-2;6.679999828E-2;-2.909999900E-2
3.063659844E1;-5.759999901E-2;7.660000026E-2;1.989999972E-2
3.065645000E1;-1.860000007E-2;7.469999790E-2;-2.909999900E-2
3.067630312E1;-1.840000041E-2;4.339999706E-2;-3.889999911E-2
3.069615625E1;-2.769999951E-2;2.799999900E-3;-5.849999934E-2
3.071600938E1;-1.599999890E-2;2.209999971E-2;-9.499999695E-3
3.073586094E1;-3.280000016E-2;7.119999826E-2;-8.789999783E-2
3.075571406E1;-3.979999945E-2;4.250000045E-2;-4.869999737E-2
3.077556719E1;-5.669999868E-2;6.149999797E-2;-6.830000132E-2
3.079541875E1;-6.459999830E-2;1.119999960E-2;-1.929999888E-2
3.081527188E1;-3.419999778E-2;3.889999911E-2;-9.499999695E-3
3.083512344E1;-2.410000004E-2;4.609999806E-2;1.999999949E-4
3.085497656E1;-5.339999869E-2;4.369999841E-2;-2.909999900E-2
3.087482969E1;-4.239999875E-2;6.030000001E-2;-3.900000080E-2
3.089468125E1;-5.119999871E-2;2.789999917E-2;-5.859999731E-2
3.091453438E1;-3.019999899E-2;3.460000083E-2;-2.919999883E-2
3.093438750E1;-2.819999866E-2;4.109999910E-2;-3.900000080E-2
3.095424062E1;-4.549999908E-2;4.719999805E-2;-1.939999871E-2
3.097409219E1;-2.290000021E-2;1.399999950E-2;-3.900000080E-2
3.099394531E1;-3.929999843E-2;3.929999843E-2;-2.919999883E-2
3.101379844E1;-1.579999924E-2;3.329999745E-2;-1.939999871E-2
3.103365000E1;-3.159999847E-2;2.479999885E-2;-7.829999924E-2
3.105350313E1;-6.749999523E-2;3.539999947E-2;-8.810000122E-2
3.107335469E1;-2.569999918E-2;4.889999703E-2;-7.829999924E-2
3.109320781E1;-4.419999942E-2;4.600000009E-2;9.999999747E-5
3.111306094E1;-2.429999970E-2;2.439999953E-2;-1.939999871E-2
3.113291406E1;-4.209999740E-2;1.169999968E-2;-3.900000080E-2
3.115276562E1;-1.869999990E-2;1.919999905E-2;-4.879999906E-2
3.117261875E1;-1.409999933E-2;1.740000024E-2;-8.799999952E-2
3.119247188E1;-3.909999877E-2;2.609999850E-2;-9.499999695E-3
3.121232344E1;-5.489999801E-2;3.590000048E-2;1.999999949E-4
3.123217656E1;-3.209999949E-2;1.769999973E-2;-6.830000132E-2
3.125202969E1;-6.999999750E-4;3.019999899E-2;-1.929999888E-2
3.127188281E1;-2.749999985E-2;2.169999853E-2;-4.869999737E-2
3.129173438E1;-8.389999717E-2;1.379999984E-2;-2.899999917E-2
3.131158750E1;-3.179999813E-2;2.520000003E-2;-1.919999905E-2
3.133144063E1;-1.090000011E-2;1.569999941E-2;-7.800000161E-2
3.135129219E1;-3.119999915E-2;3.559999913E-2;-6.819999963E-2
3.137114531E1;-1.239999942E-2;4.639999941E-2;-5.839999765E-2
3.139099844E1;-4.309999943E-2;1.879999973E-2;-2.899999917E-2
3.141085000E1;-2.559999935E-2;2.950000018E-2;-3.879999742E-2
3.143070312E1;-2.639999986E-2;1.030000020E-2;-3.879999742E-2
3.145055625E1;-2.549999952E-2;9.699999355E-3;-2.899999917E-2
3.147040781E1;-5.219999701E-2;2.809999883E-2;-4.859999940E-2
3.149026094E1;-4.859999940E-2;4.699999839E-2;-6.819999963E-2
3.151011406E1;-4.490000010E-2;3.729999810E-2;-5.839999765E-2
3.152996719E1;-2.300000004E-2;2.799999900E-2;-4.849999771E-2
3.154981875E1;-4.129999876E-2;3.769999743E-2;-5.829999968E-2
3.156967188E1;-4.010000080E-2;1.789999940E-2;-9.300000034E-3
3.158952500E1;-1.950000040E-2;7.599999662E-3;-2.889999934E-2
3.160937813E1;-3.859999776E-2;3.689999878E-2;-5.829999968E-2
3.162922969E1;-2.889999934E-2;3.649999946E-2;-2.889999934E-2
3.164908281E1;-4.719999805E-2;2.630000003E-2;4.999999655E-4
3.166893438E1;-4.529999942E-2;5.099999718E-3;-7.789999992E-2
3.168879375E1;-2.099999925E-3;1.179999951E-2;-9.200000204E-3
3.170864062E1;-3.529999778E-2;3.629999980E-2;-8.760000020E-2
3.172849375E1;-3.819999844E-2;5.059999973E-2;-1.879999973E-2
3.174834531E1;-1.249999925E-2;3.689999878E-2;-4.820000008E-2
3.176819844E1;-2.799999900E-2;2.459999919E-2;-8.739999682E-2
3.178805156E1;-2.510000020E-2;3.299999982E-2;-5.790000036E-2
3.180790469E1;-3.260000050E-2;5.150000006E-2;-6.769999862E-2
3.182775625E1;-3.119999915E-2;4.099999741E-2;-8.729999512E-2
3.184760938E1;-2.080000006E-2;3.109999932E-2;-1.860000007E-2
3.186746250E1;-4.140000045E-2;4.129999876E-2;-4.800000042E-2
3.188731406E1;-3.309999779E-2;3.199999779E-2;-1.860000007E-2
3.190716719E1;-2.569999918E-2;3.299999982E-3;-4.809999838E-2
3.192702031E1;-2.789999917E-2;2.369999886E-2;-5.790000036E-2
3.194687188E1;-1.939999871E-2;1.399999950E-2;-1.869999990E-2
3.196672500E1;-2.979999967E-2;3.269999847E-2;-6.780000031E-2
3.198657812E1;-3.070000000E-2;2.199999988E-2;-4.820000008E-2
3.200642969E1;-1.299999934E-2;3.070000000E-2;-5.799999833E-2
3.202628281E1;-3.460000083E-2;2.039999887E-2;-6.780000031E-2
3.204614219E1;-2.649999969E-2;3.029999882E-2;-3.839999810E-2
3.206598906E1;-9.200000204E-3;3.130000085E-2;-2.859999985E-2
3.208584062E1;-3.999999911E-2;5.199999735E-2;-5.810000002E-2
3.210569375E1;-2.149999887E-2;1.389999967E-2;3.009999916E-2
3.212554531E1;-2.070000023E-2;4.259999841E-2;-6.790000200E-2
3.214539844E1;-1.899999939E-2;3.159999847E-2;-5.810000002E-2
3.216525156E1;-1.740000024E-2;2.139999904E-2;-8.999999613E-3
3.218510469E1;-1.599999890E-2;2.999999933E-2;-8.999999613E-3
3.220495625E1;-2.520000003E-2;2.689999901E-2;-1.879999973E-2
3.222480938E1;-2.249999903E-2;3.269999847E-2;-4.820000008E-2
3.224466250E1;-4.800000042E-2;3.900000080E-2;-8.729999512E-2
3.226451562E1;-2.659999952E-2;2.829999849E-2;-3.830000013E-2
3.228436719E1;-4.459999874E-2;7.299999706E-3;-2.840000018E-2
3.230422031E1;-1.329999976E-2;6.399999838E-3;8.999999845E-4
3.232407188E1;-3.999999911E-2;2.400000021E-2;-4.800000042E-2
3.234392500E1;-4.749999940E-2;1.049999986E-2;-8.700000122E-3
3.236377812E1;-4.619999975E-2;3.480000049E-2;-5.769999698E-2
3.238363125E1;-4.559999704E-2;4.030000046E-2;-5.769999698E-2
3.240348281E1;-1.579999924E-2;2.699999884E-2;-3.799999878E-2
3.242333594E1;-4.499999806E-3;3.359999880E-2;-1.840000041E-2
3.244318750E1;-2.269999869E-2;2.039999887E-2;-6.740000099E-2
3.246304063E1;-1.109999977E-2;2.789999917E-2;-2.809999883E-2
3.248289375E1;-3.900000080E-2;6.699999794E-3;-9.669999778E-2
3.250274531E1;-3.869999945E-2;4.499999806E-2;-6.729999930E-2
3.252259844E1;-1.909999922E-2;1.549999975E-2;-2.809999883E-2
3.254245156E1;-9.899999946E-3;2.630000003E-2;-8.499999531E-3
3.256230312E1;-8.899999782E-3;3.599999845E-2;-2.809999883E-2
3.258215625E1;-2.620000020E-2;3.460000083E-2;-5.739999935E-2
3.260200938E1;-3.419999778E-2;5.379999802E-2;-4.759999737E-2
3.262186250E1;-1.459999941E-2;1.509999949E-2;-3.779999912E-2
3.264171406E1;-2.400000021E-2;4.539999738E-2;-1.819999889E-2
3.266156719E1;-4.230000079E-2;6.599999964E-3;-3.779999912E-2
3.268142031E1;-6.069999933E-2;1.640000008E-2;-2.789999917E-2
3.270127188E1;-3.959999979E-2;4.629999772E-2;-4.749999940E-2
3.272112500E1;-2.869999968E-2;3.749999776E-2;-2.789999917E-2
3.274097813E1;-2.789999917E-2;4.779999703E-2;-6.709999591E-2
3.276083125E1;-1.730000041E-2;3.759999946E-2;-6.709999591E-2
3.278068281E1;-4.580000043E-2;3.700000048E-2;-2.789999917E-2
3.280053594E1;-1.649999991E-2;3.689999878E-2;-4.749999940E-2
3.282038906E1;-4.580000043E-2;2.620000020E-2;-5.729999766E-2
3.284024062E1;-5.549999699E-2;3.539999947E-2;-3.769999743E-2
3.286009375E1;-3.519999981E-2;1.549999975E-2;-1.799999923E-2
3.287994688E1;-5.599999800E-3;6.699999794E-3;-2.789999917E-2
3.289979844E1;-5.359999835E-2;1.669999957E-2;-1.799999923E-2
3.291965156E1;-2.309999987E-2;3.590000048E-2;-4.739999771E-2
3.293950469E1;-2.279999852E-2;3.529999778E-2;-2.779999934E-2
3.295935781E1;-2.369999886E-2;5.559999868E-2;-8.200000040E-3
3.297920938E1;-3.409999982E-2;2.709999867E-2;-3.759999946E-2
3.299906250E1;-1.509999949E-2;7.999999449E-3;-8.200000040E-3
3.301891563E1;-4.499999806E-2;4.749999940E-2;-2.789999917E-2
3.303876719E1;-6.099999882E-3;3.769999743E-2;-5.729999766E-2
3.305862031E1;-1.579999924E-2;3.729999810E-2;-3.769999743E-2
3.307847344E1;-4.549999908E-2;7.999999449E-3;-5.729999766E-2
3.309832500E1;-3.599999845E-2;1.819999889E-2;-8.669999987E-2
3.311817812E1;-3.659999743E-2;6.679999828E-2;-4.749999940E-2
3.313803125E1;-1.659999974E-2;2.740000002E-2;-3.769999743E-2
3.315788281E1;-2.730000019E-2;3.739999980E-2;-6.709999591E-2
3.317773594E1;-1.789999940E-2;-2.060000040E-2;1.399999950E-3
3.319758906E1;-8.299999870E-3;1.899999939E-2;-8.299999870E-3
3.321744219E1;-4.669999704E-2;3.830000013E-2;-3.769999743E-2
3.323729375E1;-2.599999867E-2;4.769999906E-2;-8.299999870E-3
3.325714688E1;-2.469999902E-2;2.769999951E-2;-5.729999766E-2
3.327699844E1;-2.300000004E-2;2.699999884E-2;-8.200000040E-3
3.329685156E1;-3.959999979E-2;2.589999884E-2;-2.779999934E-2
3.331670469E1;-3.649999946E-2;5.379999802E-2;-4.729999974E-2
3.333655781E1;-3.460000083E-2;2.400000021E-2;-6.689999998E-2
3.335641094E1;-5.329999700E-2;4.470000044E-2;-2.769999951E-2
3.337626250E1;-6.279999763E-2;-3.499999875E-3;-3.749999776E-2
3.339611562E1;-3.269999847E-2;2.579999901E-2;-4.729999974E-2
3.341596875E1;-5.209999904E-2;2.620000020E-2;-1.779999956E-2
3.343582031E1;-4.219999909E-2;4.589999840E-2;-5.709999800E-2
3.345567344E1;-2.219999954E-2;2.599999867E-2;-1.779999956E-2
3.347552500E1;-2.159999870E-2;3.529999778E-2;-5.700000003E-2
3.349537812E1;-3.059999831E-2;3.489999846E-2;-8.639999479E-2
3.351523125E1;-1.030000020E-2;2.459999919E-2;-3.739999980E-2
3.353508281E1;-3.909999877E-2;3.460000083E-2;-6.679999828E-2
3.355493594E1;-1.909999922E-2;2.510000020E-2;-1.779999956E-2
3.357478906E1;-2.859999985E-2;2.549999952E-2;-3.739999980E-2
3.359464063E1;-2.769999951E-2;3.460000083E-2;-4.719999805E-2
3.361449375E1;-1.719999872E-2;4.399999976E-2;-4.710000008E-2
3.363434688E1;-7.499999832E-3;3.469999880E-2;-5.700000003E-2
3.365419844E1;-7.899999619E-3;3.599999845E-2;-1.769999973E-2
3.367405156E1;1.090000011E-2;7.599999662E-3;1.699999906E-3
3.369390469E1;-1.829999872E-2;4.710000008E-2;-1.779999956E-2
3.371375625E1;-2.799999900E-2;2.740000002E-2;-4.719999805E-2
3.373360938E1;-1.769999973E-2;2.759999968E-2;-4.719999805E-2
3.375346250E1;-2.730000019E-2;4.800000042E-2;-7.899999619E-3
3.377331562E1;-2.669999935E-2;-1.009999961E-2;-7.899999619E-3
3.379316719E1;-4.609999806E-2;8.899999782E-3;-4.719999805E-2
3.381302031E1;-4.519999772E-2;3.779999912E-2;-1.769999973E-2
3.383287344E1;-2.539999969E-2;2.749999985E-2;-5.689999834E-2
3.385272500E1;-2.510000020E-2;2.730000019E-2;-4.710000008E-2
3.387257813E1;-4.399999976E-2;2.719999850E-2;-1.769999973E-2
3.389243125E1;-2.349999920E-2;5.639999732E-2;-6.669999659E-2
3.391228281E1;-4.219999909E-2;3.669999912E-2;-3.729999810E-2
3.393213594E1;-3.179999813E-2;3.669999912E-2;-3.729999810E-2
3.395198906E1;-3.179999813E-2;-2.300000051E-3;-5.689999834E-2
3.397184219E1;-3.159999847E-2;2.709999867E-2;-2.749999985E-2
3.399169375E1;-2.180000022E-2;5.629999936E-2;-2.740000002E-2
3.401154688E1;-4.179999977E-2;4.690000042E-2;-7.649999857E-2
3.403140000E1;-1.219999976E-2;8.499999531E-3;-6.669999659E-2
3.405125156E1;-3.089999966E-2;3.839999810E-2;-4.710000008E-2
3.407110469E1;-3.969999775E-2;3.810000047E-2;-1.759999990E-2
3.409095781E1;-9.599999525E-3;4.739999771E-2;-3.720000014E-2
3.411081094E1;-3.969999775E-2;2.769999951E-2;-1.058999971E-1
3.413066250E1;-4.039999843E-2;3.920000046E-2;-3.729999810E-2
3.415051563E1;-3.119999915E-2;1.200000010E-2;-5.689999834E-2
3.417036875E1;-2.159999870E-2;-5.899999756E-3;-2.749999985E-2
3.419022031E1;-1.189999934E-2;4.380000010E-2;-2.749999985E-2
3.421007344E1;-1.139999926E-2;1.509999949E-2;-7.899999619E-3
3.422992656E1;-1.979999989E-2;3.559999913E-2;-7.649999857E-2
3.424977812E1;-4.779999703E-2;3.629999980E-2;-5.689999834E-2
3.426963125E1;-2.749999985E-2;2.740000002E-2;-4.699999839E-2
3.428948438E1;-8.999999613E-3;8.200000040E-3;-4.710000008E-2
3.430933594E1;-1.079999935E-2;3.779999912E-2;-7.899999619E-3
3.432918906E1;-4.140000045E-2;2.719999850E-2;-3.729999810E-2
3.434904219E1;-4.799999762E-3;4.659999907E-2;-6.679999828E-2
3.436889531E1;-4.809999838E-2;-2.600000007E-3;-2.759999968E-2
3.438874688E1;-2.300000004E-2;3.549999744E-2;-4.729999974E-2
3.440860000E1;-2.679999918E-2;1.370000001E-2;1.599999960E-3
3.442845313E1;-4.820000008E-2;5.759999901E-2;-2.779999934E-2
3.444830469E1;-1.019999944E-2;6.119999662E-2;-8.659999818E-2
3.446815781E1;-1.439999975E-2;4.809999838E-2;-7.679999620E-2
3.448801094E1;8.999999613E-3;4.669999704E-2;1.399999950E-3
3.450786406E1;-1.819999889E-2;6.520000100E-2;1.300000004E-3
3.452771562E1;1.139999926E-2;3.999999724E-3;-1.829999872E-2
3.454756875E1;-2.599999867E-2;1.139999926E-2;-9.679999948E-2
3.456742188E1;-5.419999734E-2;6.239999831E-2;1.079999935E-2
3.458727344E1;-2.099999925E-3;-1.579999924E-2;2.049999870E-2
3.460712656E1;7.349999994E-2;-3.969999775E-2;-2.840000018E-2
3.462697812E1;1.599999890E-2;3.299999982E-3;-4.800000042E-2
3.464683125E1;1.879999973E-2;6.799999624E-3;1.090000011E-2
3.466668438E1;-1.679999940E-2;5.859999731E-2;-6.740000099E-2
3.468653750E1;-2.499999851E-2;5.489999801E-2;-1.261000037E-1
3.470638906E1;-3.469999880E-2;4.729999974E-2;-6.729999930E-2
3.472624219E1;-2.789999917E-2;3.700000001E-3;1.099999994E-3
3.474609531E1;-6.999999750E-4;-1.239999942E-2;1.099999994E-3
3.476594688E1;-4.820000008E-2;3.559999913E-2;-5.759999901E-2
3.478580000E1;-5.559999868E-2;6.350000203E-2;-6.740000099E-2
3.480565156E1;-2.419999987E-2;5.529999733E-2;-4.779999703E-2
3.482550469E1;-4.199999850E-3;1.999999949E-4;-2.819999866E-2
3.484535781E1;5.699999630E-3;4.449999705E-2;1.090000011E-2
3.486521094E1;-2.399999881E-3;7.899999619E-3;1.099999994E-3
3.488506250E1;-3.669999912E-2;7.999999449E-3;-3.799999878E-2
3.490491562E1;-4.069999978E-2;-2.600000007E-3;-7.710000128E-2
3.492476875E1;-3.739999980E-2;1.509999949E-2;-2.799999900E-2
3.494462031E1;-1.689999923E-2;1.370000001E-2;-1.819999889E-2
3.496447344E1;-2.579999901E-2;1.260000002E-2;-4.759999737E-2
3.498432656E1;-3.370000049E-2;7.069999725E-2;-5.739999935E-2
3.500417812E1;-3.189999983E-2;7.909999788E-2;-3.769999743E-2
3.502403125E1;-1.079999935E-2;1.840000041E-2;-3.769999743E-2
3.504388438E1;-1.929999888E-2;2.639999986E-2;-8.200000040E-3
3.506373594E1;-6.799999624E-3;1.489999983E-2;1.500000013E-3
3.508358906E1;-1.239999942E-2;2.229999937E-2;-6.689999998E-2
3.510344219E1;-3.889999911E-2;3.079999983E-2;-1.158999950E-1
3.512329531E1;-1.789999940E-2;4.129999876E-2;-6.679999828E-2
3.514314688E1;-1.709999889E-2;3.500000015E-2;-2.759999968E-2
3.516300000E1;-6.099999882E-3;1.919999905E-2;-1.779999956E-2
3.518285312E1;-5.269999802E-2;6.119999662E-2;-1.779999956E-2
3.520270469E1;-2.119999938E-2;5.189999938E-2;-3.739999980E-2
3.522255781E1;-3.929999843E-2;2.249999903E-2;-3.739999980E-2
3.524241094E1;-4.769999906E-2;4.209999740E-2;-3.739999980E-2
3.526226406E1;-1.730000041E-2;1.279999968E-2;-7.899999619E-3
3.528211562E1;-3.529999778E-2;3.179999813E-2;-1.769999973E-2
3.530196875E1;-3.439999744E-2;4.089999944E-2;-6.669999659E-2
3.532182188E1;-3.399999812E-2;1.599999960E-3;-3.729999810E-2
3.534167344E1;-4.209999740E-2;2.960000001E-2;1.169999968E-2
3.536152656E1;-2.009999938E-2;5.609999970E-2;-4.699999839E-2
3.538137969E1;-1.799999923E-2;3.280000016E-2;-4.690000042E-2
3.540123125E1;-4.509999976E-2;9.999999776E-3;-3.700000048E-2
3.542108438E1;-3.439999744E-2;2.730000019E-2;-5.659999698E-2
3.544093750E1;-2.459999919E-2;5.509999767E-2;-3.700000048E-2
3.546078906E1;-3.489999846E-2;4.429999739E-2;-6.639999896E-2
3.548064219E1;-2.679999918E-2;5.289999768E-2;-6.639999896E-2
3.550049531E1;-4.820000008E-2;7.249999791E-2;-6.639999896E-2
3.552034844E1;-9.300000034E-3;5.339999869E-2;-7.599999662E-3
3.554020000E1;-2.850000001E-2;3.700000001E-3;-2.719999850E-2
3.556005312E1;-2.799999900E-2;3.209999949E-2;-2.719999850E-2
3.557990625E1;-3.769999743E-2;3.039999865E-2;-3.700000048E-2
3.559975781E1;-1.819999889E-2;1.919999905E-2;-4.679999873E-2
3.561961094E1;-2.769999951E-2;2.769999951E-2;-2.709999867E-2
3.563946406E1;-2.699999884E-2;4.589999840E-2;-4.669999704E-2
3.565931563E1;-4.600000009E-2;4.449999705E-2;-7.609999925E-2
3.567916875E1;-3.549999744E-2;3.359999880E-2;-2.709999867E-2
3.569902188E1;-4.539999738E-2;5.240000039E-2;-5.649999902E-2
3.571887500E1;-1.689999923E-2;4.230000079E-2;-5.649999902E-2
3.573872656E1;-6.999999750E-3;2.219999954E-2;-1.719999872E-2
3.575857969E1;-6.000000052E-3;4.140000045E-2;-3.680000082E-2
3.577843281E1;-4.399999976E-2;1.139999926E-2;-5.639999732E-2
3.579828438E1;-4.199999850E-3;4.010000080E-2;-3.680000082E-2
3.581813750E1;-4.270000011E-2;1.970000006E-2;-3.680000082E-2
3.583799062E1;-3.240000084E-2;3.839999810E-2;-5.639999732E-2
3.585784375E1;-3.209999949E-2;2.769999951E-2;-7.599999756E-2
3.587769531E1;-3.150000051E-2;2.730000019E-2;-2.689999901E-2
3.589754844E1;-1.069999952E-2;2.709999867E-2;-4.649999738E-2
3.591740156E1;-3.879999742E-2;3.599999845E-2;-1.699999906E-2
3.593725313E1;-4.690000042E-2;5.460000038E-2;-1.699999906E-2
3.595710625E1;-6.529999524E-2;4.419999942E-2;-5.619999766E-2
3.597695781E1;-1.699999906E-2;3.399999812E-2;-6.599999964E-2
3.599681094E1;-1.769999973E-2;4.499999806E-3;-3.659999743E-2
3.601666406E1;1.129999943E-2;2.410000004E-2;-6.599999964E-2
3.603651719E1;-1.759999990E-2;4.199999850E-3;-1.699999906E-2
3.605636875E1;-1.689999923E-2;7.189999521E-2;-2.679999918E-2
3.607622188E1;-7.100000046E-3;5.159999803E-2;-2.679999918E-2
3.609607344E1;-3.659999743E-2;3.219999745E-2;-6.599999964E-2
3.611592656E1;-3.519999981E-2;4.079999775E-2;-4.629999772E-2
3.613577969E1;-4.999999702E-2;4.739999771E-2;-2.659999952E-2
3.615563125E1;-8.999999613E-3;3.439999744E-2;-3.629999980E-2
3.617548438E1;-9.399999864E-3;4.499999806E-3;-7.549999654E-2
3.619533750E1;-1.879999973E-2;2.419999987E-2;-4.609999806E-2
3.621518906E1;-4.710000008E-2;2.439999953E-2;-3.629999980E-2
3.623504219E1;-1.759999990E-2;5.370000005E-2;-7.549999654E-2
3.625489844E1;-3.700000048E-2;3.399999812E-2;-3.629999980E-2
3.627474844E1;-1.699999906E-2;3.390000015E-2;-4.609999806E-2
3.629460000E1;-2.689999901E-2;2.419999987E-2;-1.048999950E-1
3.631445312E1;-1.709999889E-2;2.419999987E-2;-6.799999624E-3
3.633430625E1;-1.509999949E-2;2.190000005E-2;-4.600000009E-2
3.635415781E1;-3.399999812E-2;3.119999915E-2;-4.600000009E-2
3.637401094E1;-1.399999950E-2;2.099999972E-2;-5.579999834E-2
3.639386406E1;-4.399999976E-3;4.069999978E-2;-1.659999974E-2
3.641371719E1;-4.900000058E-3;3.049999848E-2;-1.659999974E-2
3.643356875E1;-4.100000020E-3;4.079999775E-2;-2.639999986E-2
3.645342188E1;-1.319999993E-2;5.040000007E-2;-3.610000014E-2
3.647327500E1;-1.229999959E-2;1.099999994E-2;-4.589999840E-2
3.649312656E1;-2.180000022E-2;2.009999938E-2;-4.589999840E-2
3.651297969E1;-1.200000010E-2;2.009999938E-2;-4.589999840E-2
3.653283281E1;-1.189999934E-2;1.999999949E-4;-3.610000014E-2
3.655268438E1;-3.089999966E-2;5.889999866E-2;-5.570000038E-2
3.657253750E1;-3.999999911E-2;2.969999984E-2;-5.570000038E-2
3.659239062E1;-6.999999750E-4;3.949999809E-2;-1.649999991E-2
3.661224375E1;-1.999999955E-2;9.999999776E-3;-4.589999840E-2
3.663209531E1;-4.919999838E-2;2.969999984E-2;-3.610000014E-2
3.665194844E1;-4.959999770E-2;1.999999955E-2;-3.610000014E-2
3.667180156E1;-3.019999899E-2;3.039999865E-2;-6.549999863E-2
3.669165312E1;-1.979999989E-2;8.999999845E-4;-4.589999840E-2
3.671150625E1;-1.879999973E-2;2.080000006E-2;-5.570000038E-2
3.673135938E1;-2.840000018E-2;3.059999831E-2;-6.549999863E-2
3.675121250E1;-8.299999870E-3;8.999999845E-4;-3.599999845E-2
3.677106406E1;-2.779999934E-2;4.930000007E-2;-3.599999845E-2
3.679091719E1;-9.099999443E-3;2.960000001E-2;-2.620000020E-2
3.681076875E1;-9.699999355E-3;3.969999775E-2;-3.610000014E-2
3.683062188E1;-3.920000046E-2;3.959999979E-2;-4.589999840E-2
3.685047500E1;-9.800000116E-3;3.920000046E-2;-4.589999840E-2
3.687032812E1;-9.399999864E-3;2.909999900E-2;-5.570000038E-2
3.689017969E1;-3.849999979E-2;5.879999697E-2;-5.570000038E-2
3.691003281E1;-3.759999946E-2;3.949999809E-2;-6.599999964E-3
3.692988594E1;-7.999999449E-3;2.999999933E-2;-3.599999845E-2
3.694973750E1;1.399999950E-3;2.989999950E-2;-5.559999868E-2
3.696959062E1;-8.499999531E-3;3.989999741E-2;-4.580000043E-2
3.698944375E1;5.999999703E-4;3.070000000E-2;-5.570000038E-2
3.700929688E1;1.030000020E-2;9.999999311E-4;-6.549999863E-2
3.702914844E1;-8.799999952E-3;2.029999904E-2;-3.599999845E-2
3.704900156E1;-8.399999700E-3;4.999999655E-4;-3.599999845E-2
3.706885469E1;-8.700000122E-3;4.010000080E-2;-6.549999863E-2
3.708870625E1;5.999999703E-4;2.159999870E-2;3.099999856E-3
3.710855938E1;6.999999750E-4;2.159999870E-2;-4.589999840E-2
3.712841250E1;1.699999906E-3;2.139999904E-2;-2.620000020E-2
3.714826406E1;2.099999925E-3;4.999999702E-2;-5.559999868E-2
3.716811719E1;-1.750000007E-2;1.090000011E-2;-3.599999845E-2
3.718797031E1;1.899999916E-3;9.999999311E-4;-6.539999694E-2
3.720782344E1;-6.799999624E-3;3.009999916E-2;-6.539999694E-2
3.722768438E1;-2.579999901E-2;2.950000018E-2;-5.559999868E-2
3.724752656E1;-3.489999846E-2;3.900000080E-2;-3.599999845E-2
3.726738125E1;4.100000020E-3;2.909999900E-2;-4.580000043E-2
3.728724062E1;-1.559999958E-2;3.879999742E-2;-3.599999845E-2
3.730708438E1;-2.559999935E-2;9.599999525E-3;-4.580000043E-2
3.732693906E1;-5.599999800E-3;2.879999951E-2;-6.539999694E-2
3.734679063E1;-2.489999868E-2;3.779999912E-2;-2.609999850E-2
3.736664375E1;-5.469999835E-2;2.799999900E-2;-4.580000043E-2
3.738649688E1;-2.479999885E-2;1.829999872E-2;3.199999919E-3
3.740634844E1;-1.429999992E-2;1.840000041E-2;-7.509999722E-2
3.742620156E1;-3.309999779E-2;3.799999878E-2;-2.609999850E-2
3.744605312E1;-3.499999875E-3;3.759999946E-2;-5.549999699E-2
3.746590625E1;-4.250000045E-2;1.809999906E-2;-3.590000048E-2
3.748575938E1;-2.300000004E-2;3.779999912E-2;-3.590000048E-2
3.750561250E1;-2.239999920E-2;3.769999743E-2;-4.569999874E-2
3.752546406E1;-3.119999915E-2;6.509999931E-2;-6.529999524E-2
3.754531719E1;-2.109999955E-2;3.500000015E-2;-7.499999553E-2
3.756516875E1;-1.150000002E-2;2.520000003E-2;-4.559999704E-2
3.758502188E1;-3.150000051E-2;1.620000042E-2;-2.599999867E-2
3.760487500E1;-3.159999847E-2;4.600000009E-2;-4.569999874E-2
3.762472813E1;-1.399999950E-3;3.649999946E-2;-8.489999920E-2
3.764457969E1;8.899999782E-3;4.669999704E-2;-6.520000100E-2
3.766443281E1;-9.999999311E-4;2.759999968E-2;-3.579999879E-2
3.768428594E1;-6.999999750E-4;-1.399999950E-3;-4.559999704E-2
3.770413750E1;0.000000000E0;2.759999968E-2;-3.579999879E-2
3.772399062E1;7.999999798E-4;3.709999844E-2;-5.539999902E-2
3.774384375E1;-4.729999974E-2;4.669999704E-2;-3.579999879E-2
3.776369688E1;-1.779999956E-2;2.669999935E-2;-1.620000042E-2
3.778354844E1;-1.809999906E-2;3.689999878E-2;-1.620000042E-2
3.780340156E1;-3.769999743E-2;3.729999810E-2;-3.579999879E-2
3.782325469E1;-1.740000024E-2;1.840000041E-2;-1.620000042E-2
3.784310625E1;-3.680000082E-2;2.859999985E-2;-2.599999867E-2
3.786295938E1;-3.700000048E-2;1.899999939E-2;-6.520000100E-2
3.788281250E1;-3.739999980E-2;5.849999934E-2;-5.539999902E-2
3.790266563E1;1.799999969E-3;3.839999810E-2;-4.559999704E-2
3.792251719E1;1.699999906E-3;1.939999871E-2;-1.620000042E-2
3.794237031E1;-2.689999901E-2;9.999999311E-4;-4.559999704E-2
3.796222344E1;-2.689999901E-2;3.150000051E-2;-4.559999704E-2
3.798207500E1;-1.759999990E-2;5.209999904E-2;-2.599999867E-2
3.800192812E1;-8.999999613E-3;5.359999835E-2;-2.609999850E-2
3.802178125E1;-2.960000001E-2;5.559999868E-2;-3.590000048E-2
3.804163438E1;-1.300000004E-3;2.850000001E-2;-1.640000008E-2
3.806148594E1;-2.699999837E-3;2.139999904E-2;-6.549999863E-2
3.808133906E1;4.900000058E-3;2.479999885E-2;3.000000026E-3
3.810119062E1;-6.199999712E-3;1.799999923E-2;-6.560000032E-2
3.812104375E1;-4.739999771E-2;2.129999921E-2;-3.629999980E-2
3.814089688E1;-1.999999949E-4;2.449999936E-2;-7.559999824E-2
3.816075000E1;-2.070000023E-2;2.689999901E-2;-3.639999777E-2
3.818060156E1;-2.199999988E-3;6.830000132E-2;-5.609999970E-2
3.820045469E1;6.999999750E-3;3.130000085E-2;1.239999942E-2
3.822030781E1;-2.229999937E-2;3.280000016E-2;-2.669999935E-2
3.824015938E1;-3.229999915E-2;5.370000005E-2;-4.629999772E-2
3.826001250E1;-3.280000016E-2;1.609999873E-2;-7.580000162E-2
3.827986562E1;-2.339999937E-2;3.689999878E-2;-2.679999918E-2
3.829971719E1;-1.339999959E-2;5.669999868E-2;-2.679999918E-2
3.831957031E1;-1.370000001E-2;2.719999850E-2;-1.699999906E-2
3.833942344E1;4.199999850E-3;2.740000002E-2;-1.699999906E-2
3.835927500E1;-7.100000046E-3;3.759999946E-2;-2.679999918E-2
3.837912812E1;2.499999944E-3;1.819999889E-2;-3.669999912E-2
3.839898125E1;-1.620000042E-2;4.759999737E-2;-3.659999743E-2
3.841883438E1;-2.520000003E-2;5.739999935E-2;-3.659999743E-2
3.843868594E1;-2.539999969E-2;4.849999771E-2;-4.639999941E-2
3.845853906E1;3.199999919E-3;2.960000001E-2;-4.649999738E-2
3.847839219E1;-6.000000052E-3;2.989999950E-2;-1.699999906E-2
3.849824375E1;-3.500000015E-2;1.979999989E-2;-4.639999941E-2
3.851809688E1;-2.439999953E-2;5.859999731E-2;-8.569999784E-2
3.853795000E1;-2.429999970E-2;3.940000013E-2;-6.599999964E-2
3.855780156E1;-3.449999914E-2;2.109999955E-2;-4.649999738E-2
3.857765469E1;1.349999942E-2;3.150000051E-2;-1.709999889E-2
3.859750781E1;-5.599999800E-3;3.130000085E-2;-3.669999912E-2
3.861735938E1;-4.900000058E-3;1.079999935E-2;-3.659999743E-2
3.863721250E1;-1.439999975E-2;1.989999972E-2;-5.619999766E-2
3.865706562E1;-2.429999970E-2;9.599999525E-3;-3.659999743E-2
3.867691875E1;1.409999933E-2;-9.999999776E-3;-2.679999918E-2
3.869677031E1;-3.509999812E-2;1.879999973E-2;-1.699999906E-2
3.871662344E1;-5.299999844E-3;4.679999873E-2;-4.639999941E-2
3.873647813E1;-2.419999987E-2;2.609999850E-2;-4.639999941E-2
3.875632812E1;-4.100000020E-3;5.799999926E-3;-5.619999766E-2
3.877618125E1;6.399999838E-3;2.559999935E-2;-1.689999923E-2
3.879603281E1;-1.200000010E-2;3.590000048E-2;-1.689999923E-2
3.881588594E1;-1.109999977E-2;2.549999952E-2;-6.589999795E-2
3.883574062E1;-2.039999887E-2;5.389999971E-2;-7.569999993E-2
3.885559063E1;-1.599999960E-3;4.439999908E-2;-8.549999446E-2
3.887544375E1;-1.269999985E-2;1.669999957E-2;-1.689999923E-2
3.889529688E1;-1.299999934E-2;3.720000014E-2;-3.659999743E-2
3.891515000E1;-2.169999853E-2;3.579999879E-2;-4.629999772E-2
3.893500156E1;-3.009999916E-2;4.419999942E-2;-4.629999772E-2
3.895485469E1;0.000000000E0;4.349999875E-2;-5.609999970E-2
3.897470781E1;9.499999695E-3;1.449999958E-2;-5.609999970E-2
3.899455938E1;-4.999999655E-4;4.479999840E-2;-4.629999772E-2
3.901441250E1;-9.999999776E-3;4.569999874E-2;-3.649999946E-2
3.903426562E1;-2.960000001E-2;4.559999704E-2;-2.669999935E-2
3.905411719E1;-9.800000116E-3;3.539999947E-2;-3.649999946E-2
3.907397031E1;-1.960000023E-2;5.429999903E-2;-2.669999935E-2
3.909382344E1;-9.899999946E-3;4.389999807E-2;-3.649999946E-2
3.911367656E1;-9.399999864E-3;4.329999909E-2;-1.679999940E-2
3.913352813E1;-1.879999973E-2;3.079999983E-2;-5.599999800E-2
3.915338125E1;2.109999955E-2;0.000000000E0;-3.639999777E-2
3.917323438E1;1.899999916E-3;3.849999979E-2;-5.599999800E-2
3.919308594E1;-7.400000002E-3;6.729999930E-2;-2.649999969E-2
3.921293906E1;2.600000007E-3;1.819999889E-2;-6.579999626E-2
3.923279219E1;-7.100000046E-3;1.879999973E-2;2.799999900E-3
3.925264531E1;-2.630000003E-2;8.700000122E-3;-2.649999969E-2
3.927249688E1;-6.199999712E-3;3.739999980E-2;-2.649999969E-2
3.929235000E1;-1.549999975E-2;5.659999698E-2;-2.649999969E-2
3.931220312E1;-1.579999924E-2;1.759999990E-2;-2.649999969E-2
3.933205469E1;-1.539999992E-2;1.789999940E-2;-2.649999969E-2
3.935190781E1;-2.520000003E-2;2.749999985E-2;-5.590000004E-2
3.937176094E1;4.299999680E-3;3.659999743E-2;-4.609999806E-2
3.939161250E1;-5.799999926E-3;3.610000014E-2;-6.899999920E-3
