"Time (s)";"Acceleration x (m/s^2)";"Acceleration y (m/s^2)";"Acceleration z (m/s^2)"
0.000000000E0;3.196929693E0;4.697117329E0;8.686594963E0
1.191093800E-2;2.954578876E0;4.814452171E0;8.100130081E0
2.382343800E-2;3.067604542E0;4.766098976E0;7.876933098E0
3.573437500E-2;3.158383131E0;4.643745422E0;8.034720421E0
4.764687500E-2;2.929564476E0;4.627953529E0;8.127941132E0
5.955781300E-2;2.757344723E0;4.478249073E0;7.979404926E0
7.147031300E-2;3.011187553E0;4.644617081E0;7.970393181E0
8.338125000E-2;3.070190191E0;4.803515434E0;8.072587013E0
9.529218800E-2;2.971941710E0;4.565426826E0;8.278143883E0
1.072046880E-1;3.090378284E0;4.530710220E0;8.390048981E0
1.191156250E-1;3.155337572E0;4.689656734E0;8.129339218E0
1.310265630E-1;3.253231764E0;4.776748657E0;8.263845444E0
1.429390630E-1;3.288685083E0;4.709883213E0;8.346349716E0
1.548500000E-1;3.311746120E0;4.778807640E0;8.322169304E0
1.667625000E-1;3.440755129E0;5.041231155E0;8.282041550E0
1.786734380E-1;3.220593929E0;4.655457973E0;8.355648994E0
1.905859380E-1;2.725817919E0;4.132123947E0;8.600317001E0
2.024968750E-1;2.832101107E0;4.325403214E0;8.801640511E0
2.144078130E-1;3.084335089E0;4.569094658E0;8.491955757E0
2.263203130E-1;3.054560900E0;4.632875919E0;8.237768173E0
2.382312500E-1;2.913455963E0;4.597997665E0;8.077787399E0
2.501437500E-1;2.835692406E0;4.546646595E0;7.995762348E0
2.620546880E-1;2.931039095E0;4.727188587E0;8.271123886E0
2.739656250E-1;2.830588102E0;4.692118168E0;8.518598557E0
2.858781250E-1;2.692365885E0;4.575424671E0;8.506349564E0
2.977906250E-1;2.729150534E0;4.726527691E0;8.523472786E0
3.097000000E-1;2.934841156E0;4.920707226E0;8.600863457E0
3.216125000E-1;2.933979273E0;4.797510624E0;8.676165581E0
3.335234380E-1;2.687299728E0;4.460685253E0;8.406147003E0
3.454421880E-1;2.995165586E0;4.313556671E0;8.585750580E0
3.573468750E-1;3.145741701E0;3.852174759E0;9.320616722E0
3.692640630E-1;3.120727062E0;4.081692696E0;8.906727791E0
3.811703130E-1;2.835376501E0;4.391856670E0;8.828388214E0
3.930812500E-1;2.714794874E0;4.493581772E0;9.074532509E0
4.049937500E-1;2.464294434E0;4.320145607E0;9.158961296E0
4.169046880E-1;2.342304945E0;4.031538963E0;8.896335602E0
4.288171880E-1;2.220832825E0;3.943997145E0;8.615640640E0
4.407281250E-1;2.210164309E0;3.930771828E0;8.320779800E0
4.526390630E-1;2.068982840E0;3.786104441E0;7.953805923E0
4.645625000E-1;1.787185431E0;3.475921154E0;7.797589302E0
4.764640630E-1;1.837291241E0;3.460071564E0;7.699340820E0
4.883750000E-1;2.195080757E0;3.818809032E0;7.549846649E0
5.002890630E-1;2.521276474E0;4.432136536E0;7.629736900E0
5.121984380E-1;2.432001352E0;4.563970566E0;8.077270508E0
5.241093750E-1;2.219865561E0;4.358548164E0;8.223162651E0
5.360218750E-1;1.837932825E0;3.929220200E0;8.461424828E0
5.479359380E-1;1.060861230E0;3.192763567E0;8.321393013E0
5.598453130E-1;2.372175008E-1;2.560387850E0;8.004793167E0
5.717562500E-1;2.458462119E-1;3.054541826E0;7.571145535E0
5.836671880E-1;1.415145636E0;4.134700298E0;7.459470749E0
5.955843750E-1;2.027457952E0;4.869547844E0;8.231035233E0
6.074906250E-1;2.409227848E0;4.556692600E0;8.101068497E0
6.194031250E-1;1.937512517E0;4.041699886E0;7.348082542E0
6.313140630E-1;1.506776452E0;3.721997261E0;7.199718952E0
6.432250000E-1;1.067890644E0;3.637328625E0;8.045370102E0
6.551375000E-1;6.992984414E-1;2.938164234E0;9.066842079E0
6.670484380E-1;8.576987982E-1;2.401518345E0;9.037259102E0
6.789609380E-1;1.817448139E0;2.649873734E0;8.083954811E0
6.908718750E-1;2.368871212E0;2.864394188E0;8.686403275E0
7.027828130E-1;2.323553801E0;2.827724695E0;9.125480652E0
7.146953130E-1;2.204514027E0;2.574686289E0;8.350112915E0
7.266062500E-1;2.038222075E0;2.363689899E0;7.424936295E0
7.385187500E-1;2.059272051E0;2.367817640E0;6.888979912E0
7.504296880E-1;2.039534092E0;1.998899937E0;7.854973793E0
7.623437500E-1;2.791620016E0;1.914068460E0;8.229043961E0
7.742531250E-1;3.364734411E0;2.565435171E0;6.914703846E0
7.861671880E-1;2.922870159E0;2.533745289E0;7.240420341E0
7.980750000E-1;2.503444433E0;2.083137512E0;7.897858620E0
8.099875000E-1;2.945155382E0;1.962977290E0;8.911965370E0
8.218984380E-1;3.745115757E0;2.078655481E0;9.611991882E0
8.338109380E-1;3.501069784E0;2.130475521E0;9.891490936E0
8.457218750E-1;3.153173208E0;1.994159341E0;9.260848999E0
8.576328130E-1;2.741849422E0;2.116723299E0;8.438440323E0
8.695453130E-1;2.778768063E0;2.597335339E0;8.397192955E0
8.814578130E-1;2.892071009E0;2.838249445E0;8.880228043E0
8.933703130E-1;2.685317278E0;2.356976509E0;9.506512642E0
9.052796880E-1;2.300856352E0;1.698647857E0;9.640013695E0
9.171921880E-1;2.206266403E0;1.627013326E0;9.116449356E0
9.291031250E-1;2.485526085E0;1.792931557E0;8.657202721E0
9.410156250E-1;2.793947220E0;1.858417749E0;8.879050255E0
9.529265630E-1;2.526141405E0;2.008629799E0;9.143093109E0
9.648578130E-1;2.703503847E0;1.968618035E0;8.964264870E0
9.767500000E-1;2.480881453E0;1.361802697E0;9.378059387E0
9.886625000E-1;2.784868479E0;1.000038862E0;1.016878700E1
1.000573438E0;2.674562693E0;9.130527377E-1;1.032826042E1
1.012487500E0;3.274310350E0;1.382364154E0;1.037869263E1
1.024407813E0;4.226445675E0;1.868808508E0;1.027683258E1
1.036307813E0;4.597863197E0;2.100471497E0;9.655959129E0
1.048220313E0;4.718262672E0;2.116685152E0;8.606618881E0
1.060137500E0;4.419274807E0;1.719094276E0;7.851525784E0
1.072048438E0;3.906925201E0;1.325027823E0;7.189404964E0
1.083954688E0;3.545717001E0;1.195166349E0;6.745519638E0
1.095865625E0;3.286444187E0;7.888894677E-1;7.130420685E0
1.107778125E0;3.015362978E0;5.039315820E-1;8.006517410E0
1.119693750E0;3.012259960E0;4.250378311E-1;8.524851799E0
1.131606250E0;3.966473818E0;6.176178455E-1;9.119658470E0
1.143512500E0;4.608732700E0;5.928043127E-1;8.947007179E0
1.155423438E0;4.811071873E0;4.789361060E-1;7.983072758E0
1.167335938E0;4.632148266E0;4.196748435E-1;6.612076283E0
1.179246875E0;3.840175152E0;4.160356522E-1;5.475577831E0
1.191160938E0;3.365088940E0;4.537012279E-1;4.848009109E0
1.203070313E0;4.004762173E0;5.796458125E-1;5.139958382E0
1.214981250E0;4.684925556E0;4.352945983E-1;6.281532764E0
1.226893750E0;5.546139717E0;5.626757145E-1;7.529352665E0
1.238832813E0;6.441072941E0;6.144287586E-1;8.493325233E0
1.250715625E0;7.036931992E0;1.817965209E-1;9.330941200E0
1.262628125E0;7.103519917E0;1.395532191E-1;9.398409843E0
1.274540625E0;7.536132812E0;4.017183185E-1;9.433795929E0
1.286451563E0;7.816733360E0;6.207877994E-1;9.241005898E0
1.298370313E0;7.911802292E0;7.299059033E-1;8.151911736E0
1.310279688E0;8.257869720E0;6.927574277E-1;7.594378948E0
1.322187500E0;7.852962494E0;5.135275126E-1;7.538996696E0
1.334098438E0;7.633988857E0;4.885129258E-2;7.948864937E0
1.346009375E0;8.949678421E0;1.688103825E-1;9.143485069E0
1.357920313E0;9.200323105E0;8.995494992E-2;9.207515717E0
1.369831250E0;9.128190041E0;-2.778231539E-2;8.128985405E0
1.381743750E0;8.959016800E0;1.345732808E-1;7.064082623E0
1.393654688E0;8.391744614E0;-1.142417267E-1;6.988033295E0
1.405567188E0;9.149259567E0;-1.090032086E-1;7.232347012E0
1.417484375E0;9.532332420E0;3.401011229E-1;6.352994919E0
1.429389063E0;9.144509315E0;1.418325007E-1;5.039918900E0
1.441301563E0;9.243074417E0;-4.588152468E-1;5.665955067E0
1.453214063E0;9.141214371E0;-9.696708322E-1;6.419075012E0
1.465125000E0;1.065151596E1;-6.928245425E-1;6.468874454E0
1.477042188E0;1.224615002E1;5.950835943E-1;5.619843006E0
1.488948438E0;1.411841583E1;2.044159889E0;2.344536304E0
1.500859375E0;1.352241325E1;2.081250668E0;1.357244253E0
1.512771875E0;1.270513725E1;1.549441218E0;3.135810614E0
1.524682813E0;1.201074219E1;7.252036929E-1;4.434923172E0
1.536593750E0;1.318783760E1;4.518816173E-1;4.615331650E0
1.548506250E0;1.286888218E1;3.206793964E-1;3.954186916E0
1.560417188E0;1.086089325E1;-5.254123807E-1;2.683229685E0
1.572329688E0;9.188458443E0;-1.290647149E0;1.464954615E0
1.584240625E0;9.569269180E0;-1.523679614E0;1.577960968E0
1.596153125E0;1.063643265E1;-1.435630322E0;1.753790975E0
1.608065625E0;1.137075329E1;-1.853868604E0;1.877092361E0
1.619976563E0;1.266934013E1;-1.821958780E0;2.476542950E0
1.631887500E0;1.270927525E1;-1.777934194E0;1.824870110E0
1.643800000E0;1.134479141E1;-2.034410715E0;1.142024636E0
1.655714063E0;8.641401291E0;-2.483342648E0;6.477751583E-2
1.667621875E0;6.535260677E0;-3.054733038E0;2.768271863E-1
1.679534375E0;4.294785976E0;-3.743257761E0;1.070332646E0
1.691445313E0;4.862843513E0;-3.472559929E0;2.564017534E0
1.703357813E0;6.129712105E0;-2.954023361E0;1.971376061E0
1.715268750E0;6.128275394E0;-2.377145529E0;-4.217912853E-1
1.727179688E0;4.793795109E0;-1.638591647E0;-1.845124960E0
1.739092188E0;4.689772129E0;-2.029047489E0;-2.404879808E0
1.751003125E0;4.142217636E0;-1.352331281E0;-2.755956173E0
1.762915625E0;4.106448650E0;-3.054570198E0;-1.801052570E0
1.774832813E0;3.166168928E0;-3.774430275E0;-2.843737006E-1
1.786739063E0;5.458176613E0;-7.498764038E0;2.302101612E0
1.798648438E0;7.143981934E0;-9.519872665E0;3.867038012E0
1.810560938E0;1.072755527E1;-9.639966011E0;2.881804943E0
1.822473438E0;1.343928623E1;-7.389981270E0;3.177038670E0
1.834387500E0;1.298886967E1;-2.914203167E0;1.651731133E0
1.846295313E0;1.101927567E1;5.675120354E-1;-9.601418972E-1
1.858207813E0;1.148549271E1;5.698199868E-1;-1.738190413E0
1.870118750E0;9.438144684E0;-3.041162729E0;2.936728001E-1
1.882029688E0;6.857577801E0;-6.996336460E0;1.569973826E0
1.893940625E0;3.960574627E0;-9.718562126E0;8.592885733E-1
1.905853125E0;1.059980154E0;-1.153374100E1;1.526025891E0
1.917764063E0;-1.004348397E0;-1.174923801E1;2.414600372E0
1.929676563E0;-2.089094162E0;-1.096362400E1;2.488437414E0
1.941589063E0;-1.662093163E0;-9.977624893E0;7.753286958E-1
1.953500000E0;-2.194333822E-1;-8.584008217E0;-9.440720081E-1
1.965412500E0;3.560570478E0;-7.407698154E0;-4.488850594E0
1.977325000E0;7.136961937E0;-1.012728119E1;-4.302820683E0
1.989235938E0;7.998817444E0;-1.558795834E1;-1.285973638E-1
2.001146875E0;8.470724106E0;-1.935151672E1;3.974671602E0
2.013057813E0;6.365636349E0;-2.247664070E1;9.275032043E0
2.024970313E0;6.294624329E0;-1.638038063E1;7.952772141E0
2.036881250E0;4.495458603E0;-1.123973370E1;6.781863689E0
2.048793750E0;1.783498287E0;-8.836059570E0;9.067167282E0
2.060704688E0;2.158229351E0;-7.809388161E0;4.574428558E0
2.072635938E0;4.316573143E0;-6.883511543E0;5.522561669E-1
2.084528125E0;6.564920425E0;-8.303005219E0;-1.626996994E1
2.096439063E0;7.033676147E0;-9.776272774E0;-1.322918034E1
2.108351563E0;6.393619537E0;-1.120724869E1;-5.073074341E0
2.120262500E0;4.825685978E0;-1.116547489E1;-1.214147568E0
2.132173438E0;3.133042812E0;-1.028418827E1;1.441309303E-1
2.144087500E0;2.036546230E0;-9.171765327E0;1.782531023E0
2.155996875E0;2.476830244E0;-6.308903217E0;5.743124962E0
2.167909375E0;4.939448833E0;-4.583909512E0;1.035559273E1
2.179820313E0;7.804877281E0;-6.071111202E0;1.141653061E1
2.191732813E0;8.692829132E0;-9.606897354E0;8.172521591E0
2.203664063E0;6.847407341E0;-1.062617588E1;4.200119019E0
2.215559375E0;3.175439119E0;-1.074899769E1;1.691809893E0
2.227467188E0;4.565072358E-1;-1.109710503E1;-1.477270365E0
2.239378125E0;-4.259572029E-1;-1.214241409E1;-3.579350471E0
2.251296875E0;-1.915552765E-1;-1.081372738E1;-2.941889763E0
2.263203125E0;8.013776541E-1;-9.939748764E0;-4.855910301E0
2.275128125E0;1.660943985E0;-8.971638680E0;-3.146766424E0
2.287025000E0;2.102472782E0;-8.296914101E0;-4.286099970E-1
2.298935938E0;2.338454962E0;-8.191943169E0;7.876540422E-1
2.310846875E0;2.419829369E0;-9.408121109E0;7.830763459E-1
2.322760938E0;3.881451130E0;-1.026936340E1;4.899494350E-1
2.334670313E0;5.980103016E0;-8.936807632E0;3.944303691E-1
2.346581250E0;6.781432629E0;-7.765037537E0;1.514342189E0
2.358493750E0;5.875792503E0;-7.808066368E0;1.978913069E0
2.370404688E0;4.207914829E0;-8.382186890E0;3.257187128E0
2.382317188E0;3.390333176E0;-8.454078674E0;2.786563396E0
2.394234375E0;2.671833277E0;-8.441936493E0;2.759691000E0
2.406139063E0;2.404132843E0;-8.466300011E0;3.616709709E0
2.418051563E0;3.498378992E0;-7.926943302E0;2.394335747E0
2.429965625E0;4.218228817E0;-8.071227074E0;1.316380024E0
2.441875000E0;4.790184498E0;-8.157189369E0;6.646208167E-1
2.453793750E0;4.912940502E0;-7.966255665E0;2.790681422E-1
2.465698438E0;4.872180939E0;-8.061526299E0;-2.823721766E-1
2.477609375E0;4.161266327E0;-8.313855171E0;3.955029547E-1
2.489521875E0;3.084114790E0;-8.896039009E0;1.594998002E0
2.501432813E0;1.938355207E0;-1.049124813E1;1.231337905E0
2.513351563E0;1.798878670E0;-1.233403587E1;3.819326162E-1
2.525256250E0;2.713598013E0;-1.288801670E1;1.116876006E0
2.537167188E0;2.943019867E0;-1.343682480E1;1.921749115E0
2.549079688E0;2.661519051E0;-1.189584923E1;9.761735201E-1
2.561001563E0;1.928816795E0;-9.270665169E0;-7.995676398E-1
2.572903125E0;1.394536257E0;-7.930505753E0;-1.375689030E0
2.584814063E0;1.439461112E0;-8.096385956E0;-8.734048009E-1
2.596725000E0;1.386999369E0;-8.578970909E0;-2.637739778E-1
2.608637500E0;1.460281134E0;-9.468032837E0;5.614594817E-1
2.620553125E0;1.431694388E0;-1.087949181E1;5.591227412E-1
2.632460938E0;1.865332127E0;-9.824175835E0;3.288196623E-1
2.644373438E0;1.733229637E0;-9.412353516E0;1.040836096E0
2.656284375E0;4.929086566E-1;-9.790742874E0;2.583841562E0
2.668195313E0;-6.533010006E-1;-9.708143234E0;4.315423965E0
2.680107813E0;-6.264285445E-1;-8.792255402E0;4.983540535E0
2.692040625E0;1.212969661E0;-6.799226761E0;3.505992413E0
2.703929688E0;2.943000793E0;-8.186924934E0;1.425603479E-1
2.715842188E0;4.097867489E0;-7.252994537E0;-3.287171841E0
2.727760938E0;6.289223194E0;-5.831145287E0;-6.458531380E0
2.739675000E0;7.171764374E0;-6.461548328E0;-4.143807411E0
2.751576563E0;4.401413918E0;-1.047690201E1;8.618360162E-1
2.763487500E0;6.086539030E-1;-1.444953442E1;4.196652412E0
2.775400000E0;-2.199974298E0;-1.446182156E1;5.142438889E0
2.787314063E0;-2.768865585E0;-1.125969124E1;4.587654114E0
2.799221875E0;-2.265700102E0;-8.769012451E0;3.464448214E0
2.811134375E0;-5.669469386E-2;-6.011974812E0;8.096136451E-1
2.823045313E0;1.586551309E0;-7.170528889E0;-1.547056556E0
2.834956250E0;2.334959507E0;-9.599886894E0;-1.957489729E0
2.846868750E0;2.829822063E0;-1.151252842E1;-2.081729650E0
2.858784375E0;3.043174028E0;-1.249282932E1;-1.564457655E0
2.870692188E0;3.440487146E0;-1.285334873E1;-1.348969817E0
2.882603125E0;3.936852694E0;-1.201869106E1;-7.059447765E-1
2.894514063E0;3.483046293E0;-1.055236721E1;1.087637916E-1
2.906426563E0;2.174806595E0;-1.134306622E1;3.611222208E-1
2.918345313E0;1.242571592E0;-1.246309376E1;1.262280583E0
2.930250000E0;3.224702477E-1;-1.402478313E1;1.347897172E0
2.942160938E0;-3.368354440E-1;-1.586306190E1;-9.499234706E-2
2.954071875E0;1.705830455E0;-1.249654484E1;-5.420626163E0
2.966001563E0;1.389862776E0;-1.113409138E1;-5.475434303E0
2.977896875E0;-7.959475517E-1;-1.250245380E1;-4.304985523E0
2.989818750E0;1.607332945E0;-8.514259338E0;-4.809683323E0
3.001720313E0;3.812880993E0;-5.415406704E0;-4.903487682E0
3.013631250E0;4.782054424E0;-5.631334782E0;-4.087572575E0
3.025548438E0;4.991671085E0;-8.150207520E0;-3.123743534E0
3.037453125E0;4.400542259E0;-1.217652607E1;-1.264569402E0
3.049365625E0;1.181969523E0;-2.001187706E1;3.402897835E0
3.061278125E0;5.365023017E-1;-1.837580490E1;5.150664806E0
3.073189063E0;9.305591583E-1;-1.279213333E1;5.292105198E0
3.085101563E0;1.768912792E0;-9.093580246E0;5.141414165E0
3.097012500E0;2.582711697E0;-7.433833599E0;1.686657548E0
3.108935938E0;3.741189241E0;-8.357066154E0;-6.994267464E0
3.120839063E0;2.531552315E0;-1.092980862E1;-7.730446339E0
3.132746875E0;1.269472837E0;-1.278250885E1;-2.662811995E0
3.144657813E0;7.859590054E-1;-1.380937195E1;1.770416379E0
3.156570313E0;-3.508558869E-1;-1.498407364E1;5.761109829E0
3.168481250E0;-9.741719365E-1;-1.509711742E1;7.934489727E0
3.180393750E0;1.762793183E0;-1.405718136E1;3.897348642E0
3.192304688E0;2.727436304E0;-1.400995922E1;-1.076988578E0
3.204220313E0;2.291212559E0;-1.341879177E1;-3.937168837E0
3.216128125E0;1.276454210E0;-1.224909973E1;-3.650324345E0
3.228039063E0;-1.650562584E-1;-1.099605083E1;-2.226741791E0
3.239950000E0;-5.184500217E-1;-8.679373741E0;-8.818036318E-1
3.251862500E0;-7.587512136E-1;-6.443802357E0;-8.640195429E-2
3.263773438E0;-1.045270085E0;-3.979211092E0;3.569658995E-1
3.275685938E0;-1.608951449E0;-2.410118341E0;4.121857584E-1
3.287596875E0;-2.068283796E0;-1.780165553E0;6.110672951E-1
3.299509375E0;-2.772332191E0;-1.697450638E0;1.544442058E0
3.311420313E0;-3.261630535E0;-1.546740532E0;1.838545799E0
3.323331250E0;-3.728116751E0;-1.110354185E0;7.010701299E-1
3.335243750E0;-3.738660812E0;-5.581746101E-1;-8.809704781E-1
3.347154688E0;-2.689550638E0;2.153536528E-1;-1.603004217E0
3.359067188E0;-3.193290532E-1;9.488221407E-1;-5.696514606E0
3.370978125E0;3.941354036E0;-7.874816656E-1;-1.517745686E1
3.382889063E0;1.047343540E1;-4.388839722E0;-1.882930374E1
3.394801563E0;4.823674679E0;-8.234445572E0;1.268111897E1
3.406715625E0;-5.004312515E0;-9.977605820E0;1.573866844E1
3.418625000E0;-5.894266129E0;-7.793068886E0;7.172434807E0
3.430537500E0;-5.227317810E0;-7.337031364E0;2.312482834E0
3.442446875E0;-5.166955471E0;-1.045721149E1;-1.299572643E-2
3.454359375E0;-7.509528160E0;-1.565423965E1;7.013574243E-1
3.466278125E0;-9.056862831E0;-1.940300369E1;2.190311432E0
3.478182813E0;-8.689333916E0;-2.160259438E1;5.136185169E0
3.490095313E0;-5.315626144E0;-2.108240318E1;7.004534245E0
3.502006250E0;-2.256199837E0;-2.113411713E1;7.092200279E0
3.513917188E0;-1.888239861E0;-2.305172920E1;7.529764175E0
3.525829688E0;-1.219347835E0;-2.411134338E1;7.279752254E0
3.537740625E0;-7.991845161E-2;-2.396246338E1;6.831289768E0
3.549653125E0;1.272173405E0;-2.499741936E1;1.437392521E1
3.561565625E0;5.699454784E0;-2.839161110E1;7.968688488E0
3.573475000E0;1.210499763E1;-2.552662468E1;-1.678405190E1
3.585387500E0;1.477278042E1;-1.794747353E1;-2.765042305E1
3.597298438E0;1.255079746E1;-1.391273403E1;-1.827379227E1
3.609210938E0;9.839623451E0;-1.130521965E1;-8.088666916E0
3.621121875E0;6.276744843E0;-1.057097530E1;-2.840806484E0
3.633034375E0;4.198606014E0;-8.638844490E0;6.911581159E-1
3.644946875E0;4.071742058E0;-5.919366837E0;1.700764298E0
3.656856250E0;4.853726387E0;-3.210461617E0;1.643083096E0
3.668768750E0;5.416124821E0;-1.097032785E0;1.229997158E0
3.680682813E0;5.494683266E0;4.578862786E-1;1.111599088E0
3.692590625E0;5.877937317E0;2.051620007E0;-4.469811440E0
3.704506250E0;7.351252556E0;4.565206528E0;-1.690267181E1
3.716414063E0;5.981635094E0;6.029950142E0;-1.958198357E1
3.728326563E0;2.686294079E0;3.982467175E0;-6.053365707E0
3.740237500E0;1.171435118E0;2.063725233E0;-1.578755736E0
3.752150000E0;9.152266979E-1;5.256326199E-1;-1.152319670E0
3.764060938E0;2.330544710E0;-4.377654195E-1;-4.761683941E-1
3.775973438E0;4.296519756E0;-2.121435165E0;2.290293276E-1
3.787884375E0;6.237489223E0;-5.128006458E0;1.206964970E0
3.799795313E0;7.520081997E0;-1.067702866E1;3.227058411E0
3.811707813E0;8.864502907E0;-1.898732185E1;3.521631241E0
3.823618750E0;8.245285988E0;-2.818078995E1;2.682128429E0
3.835529688E0;5.027909756E0;-3.974208832E1;2.991545439E0
3.847442188E0;2.059722185E0;-5.279475403E1;6.065786839E0
3.859353125E0;2.386482954E0;-5.359080505E1;3.544385672E0
3.871264063E0;9.210235596E0;-3.547583771E1;-1.556181335E1
3.883176563E0;1.296172905E1;-2.171135902E1;-1.603538513E1
3.895087500E0;1.149663067E1;-1.643766975E1;-6.538162708E0
3.907000000E0;1.020674992E1;-1.469737244E1;4.118505716E-1
3.918910938E0;6.631412029E0;-1.323949528E1;3.784955025E0
3.930823438E0;1.693150759E0;-1.125449085E1;5.452861309E0
3.942734375E0;-1.714037776E0;-8.448208809E0;4.765112877E0
3.954646875E0;-3.505321980E0;-4.721289158E0;3.355377913E0
3.966557813E0;-5.090024948E0;-1.372021198E0;2.104713917E0
3.978475000E0;-6.458043098E0;4.410694242E-1;2.968312025E0
3.990390625E0;-7.176600456E0;1.397974372E0;4.806762218E0
4.002292188E0;-6.834019184E0;2.263468742E0;5.592730522E0
4.014203125E0;-6.706235409E0;3.108066320E0;6.023485661E0
4.026115625E0;-6.202466965E0;3.853209019E0;5.821099281E0
4.038034375E0;-5.376295090E0;4.722084045E0;4.698065281E0
4.049939063E0;-4.996258259E0;5.095665455E0;2.345101357E0
4.061851563E0;-4.873799801E0;4.710352421E0;-8.223795891E-1
4.073762500E0;-3.341213942E0;3.903420210E0;-2.642250538E0
4.085675000E0;-6.351817250E-1;9.748710394E-1;-1.765838623E0
4.097589063E0;1.523650765E0;-1.715416789E0;-2.369321108E0
4.109500000E0;3.918522835E0;-3.028339624E0;-2.474101067E0
4.121409375E0;4.057156563E0;-2.361123323E0;3.470117569E0
4.133320313E0;5.484397888E0;-2.168600798E0;8.429313898E-1
4.145231250E0;5.198127747E0;-3.193166018E0;-6.569784880E-1
4.157151563E0;5.523787022E0;-1.033919716E1;-8.934394717E-1
4.169057813E0;8.218825340E0;-1.276461887E1;-2.928663969E0
4.180965625E0;1.586963177E0;-2.208372498E1;-4.656846523E0
4.192878125E0;-3.591465235E0;-3.031443405E1;-2.111197472E0
4.204790625E0;-6.449940681E0;-2.672581291E1;4.894390106E0
4.216729688E0;-3.752748251E0;-1.832867813E1;6.142324448E0
4.228614063E0;-6.763907075E-1;-1.456329727E1;5.671566963E0
4.240525000E0;3.504057825E-1;-1.589066124E1;4.949313164E0
4.252435938E0;1.046563029E0;-1.701829338E1;4.877409935E0
4.264348438E0;6.387251616E-1;-1.950356102E1;4.113669395E0
4.276281250E0;2.274012715E-1;-2.216927338E1;3.950959444E0
4.288170313E0;5.804215074E-1;-2.434241486E1;5.852951527E0
4.300082813E0;2.610608816E0;-2.541100311E1;7.175719261E0
4.311993750E0;4.443398952E0;-2.671328735E1;6.818370819E0
4.323904688E0;6.026368618E0;-2.638273239E1;6.679937363E0
4.335815625E0;6.648698330E0;-2.368368340E1;5.321544647E0
4.347729688E0;7.987085342E0;-2.091563034E1;-2.347553015E0
4.359640625E0;1.017141151E1;-1.595989227E1;-3.007506943E1
4.371551563E0;1.222640228E1;-8.732946396E0;-3.205200195E1
4.383464063E0;1.015482426E1;-6.189576626E0;-7.888540268E0
4.395375000E0;7.421833515E0;-4.065373421E0;2.859787941E0
4.407285938E0;6.476995468E0;-9.711552858E-1;1.874832273E0
4.419198438E0;7.110290527E0;2.191939354E0;-3.185686588E0
4.431109375E0;9.714348793E0;5.870735645E0;-1.462056637E1
4.443021875E0;7.025105000E0;5.156124115E0;-6.240908146E0
4.454932813E0;4.728309155E0;4.285391331E0;-2.040099144E0
4.466845313E0;3.428870440E0;4.080016613E0;-1.043958187E0
4.478756250E0;2.718184948E0;3.774209976E0;-6.871837974E-1
4.490668750E0;2.898123741E0;3.117030382E0;-1.618671864E-1
4.502579688E0;4.062941074E0;2.428199530E0;-8.295430243E-2
4.514495313E0;5.364630222E0;1.298806548E0;-6.036835909E-1
4.526404688E0;6.461040497E0;-7.171400189E-1;-2.514390647E-1
4.538315625E0;6.635405064E0;-4.151899815E0;1.373247027E0
4.550226563E0;7.849687099E0;-9.206395149E0;2.897893906E0
4.562137500E0;1.003391743E1;-1.959049797E1;-2.020275354E0
4.574050000E0;9.370800018E0;-3.694020462E1;-6.343667507E0
4.585960938E0;2.432872772E0;-6.520983124E1;-2.462551355E0
4.597873438E0;-2.855439901E0;-7.860651398E1;7.665860176E0
4.609784375E0;9.116373062E0;-5.856142426E1;-1.002939701E1
4.621696875E0;1.134914875E1;-3.224135208E1;-1.449490929E1
4.633607813E0;9.743548393E0;-1.848069954E1;-1.074169159E1
4.645518750E0;9.037479401E0;-1.170417976E1;-7.181293011E0
4.657431250E0;5.911897182E0;-8.272130013E0;-2.446357012E0
4.669342188E0;-5.829784870E-1;-6.841641903E0;2.443091393E0
4.681253125E0;-3.402160645E0;-4.858984470E0;5.218478680E0
4.693165625E0;-4.479800224E0;-2.542919874E0;8.264975548E0
4.705078125E0;-5.010978222E0;-3.048106134E-1;1.197948456E1
4.716989063E0;-5.016647339E0;1.476216912E0;1.288259602E1
4.728900000E0;-5.288331985E0;3.517944098E0;1.247447109E1
4.740810938E0;-5.286349773E0;5.097006321E0;1.195458412E1
4.752723438E0;-5.538143158E0;6.604118347E0;1.127741814E1
4.764634375E0;-6.244767666E0;7.761408329E0;9.253743172E0
4.776545313E0;-8.484935760E0;6.551943779E0;3.938231945E0
4.788457813E0;-9.765345573E0;4.554690838E0;-3.047320843E0
4.800368750E0;-9.514480591E0;3.415912867E0;-5.839860439E0
4.812301563E0;-7.542310238E0;2.084478378E0;-5.396932602E0
4.824192188E0;-4.951104164E0;-6.549769640E-1;-4.423642159E0
4.836104688E0;-1.240320921E0;-3.097235203E0;-1.044083595E1
4.848018750E0;4.042389393E0;-4.348971844E0;-1.144560528E1
4.859926563E0;1.613845229E0;-4.672964573E0;1.019394588E1
4.871839063E0;1.289718151E0;-4.765658855E0;9.997841835E0
4.883759375E0;-9.672670960E-1;-5.390516758E0;5.931548119E0
4.895660938E0;-3.417914629E0;-9.361721992E0;-1.591310859E0
4.907573438E0;-4.613301277E0;-1.796279526E1;-3.066493571E-2
4.919484375E0;-5.166840553E0;-2.430779266E1;1.300386667E0
4.931395313E0;-6.361585617E0;-3.494071198E1;-1.185493827E0
4.943307813E0;-6.237555981E0;-3.800099945E1;-4.102158070E0
4.955220313E0;-2.937944174E0;-2.942313957E1;4.761683941E-1
4.967131250E0;2.876872756E-2;-2.380884171E1;2.539577723E0
4.979043750E0;2.688784122E0;-2.002680779E1;5.486054897E0
4.990968750E0;6.806073666E0;-1.826162910E1;7.161612988E0
5.002865625E0;1.021603012E1;-1.956760979E1;1.732199287E1
5.014776563E0;1.462853432E1;-2.335452652E1;6.739227772E0
5.026689063E0;1.656054878E1;-2.509485435E1;-3.124337494E-1
5.038600000E0;1.884846878E1;-2.624184036E1;4.893001556E0
5.050512500E0;2.106094933E1;-2.583646202E1;1.211389422E0
5.062423438E0;2.027685738E1;-2.047869873E1;-1.701276588E1
5.074335938E0;1.574073601E1;-1.281098080E1;-3.739810944E1
5.086246875E0;1.271860218E1;-6.399461746E0;-3.065815353E1
5.098159375E0;8.323078156E0;-4.894255638E0;-5.533325672E0
5.110070313E0;4.717592239E0;-2.917670012E0;4.152532101E0
5.121981250E0;3.465108871E0;3.390189409E-1;-1.272211790E0
5.133893750E0;4.740193844E0;2.170200109E0;-2.407474995E0
5.145804688E0;4.959445477E0;3.399919748E0;-2.612045527E0
5.157717188E0;4.673443317E0;4.428612232E0;-4.686353207E0
5.169628125E0;3.199572802E0;4.343685150E0;-3.107721567E0
5.181542188E0;2.546855927E0;3.841419935E0;-1.486483335E0
5.193451563E0;2.187936544E0;3.169999838E0;-1.152855992E0
5.205362500E0;2.603847742E0;2.562676907E0;-7.380557656E-1
5.217275000E0;4.069070339E0;2.135963202E0;-2.167231403E-2
5.229190625E0;5.898728848E0;1.525556684E0;-2.563423812E-1
5.241103125E0;7.615658760E0;-2.219808102E-1;-6.862643957E-1
5.253009375E0;9.275472641E0;-3.957002401E0;4.618606567E-1
5.264926563E0;1.191175652E1;-1.299387932E1;3.990396738E0
5.276832813E0;1.477698421E1;-2.746608925E1;7.969339490E-1
5.288743750E0;1.131898117E1;-5.032555389E1;3.321600676E0
5.300656250E0;3.401308298E0;-7.420409393E1;4.433027267E0
5.312567188E0;-7.124953270E-1;-7.163356781E1;3.503559828E0
5.324478125E0;1.570500433E-1;-4.537514114E1;-7.015336514E0
5.336390625E0;4.584091663E0;-2.597724152E1;-1.810596848E1
5.348301563E0;5.750594616E0;-1.510032654E1;-1.523848057E1
5.360212500E0;4.111600876E0;-1.007075977E1;-1.051406097E1
5.372125000E0;7.293409109E-1;-8.857463837E0;-3.956217289E0
5.384037500E0;-3.150941849E0;-8.420972824E0;1.786160588E0
5.395948438E0;-5.310272694E0;-6.584571838E0;6.692406654E0
5.407864063E0;-6.171964645E0;-3.608167171E0;1.129408073E1
5.419771875E0;-6.225996971E0;2.377921157E-2;1.173500729E1
5.431682813E0;-6.225633144E0;3.031337261E0;1.098984528E1
5.443593750E0;-5.965163231E0;5.278372288E0;1.024969196E1
5.455506250E0;-6.047562122E0;6.751188755E0;7.743192673E0
5.467417188E0;-7.624450207E0;6.855509281E0;5.891958237E0
5.479332813E0;-9.561636925E0;7.500344276E0;4.988606453E0
5.491240625E0;-1.015711308E1;6.982057095E0;2.366179943E0
5.503153125E0;-9.644169807E0;6.207772255E0;-1.832119703E0
5.515064063E0;-8.358042717E0;5.128647804E0;-4.961389065E0
5.526987500E0;-5.688153744E0;3.888327122E0;-6.777017593E0
5.538887500E0;-2.727589607E0;-1.641560495E-1;-7.852703571E0
5.550798438E0;5.474294424E-1;-4.418642998E0;-1.928740311E1
5.562710938E0;8.978237152E0;-8.470082283E0;-3.515118027E1
5.574623438E0;1.325289249E1;-9.153732300E0;8.903998375E0
5.586542188E0;1.347315884E1;-4.841947079E0;2.544665909E1
5.598445313E0;7.053509712E0;-4.376687050E0;8.968775749E0
5.610356250E0;3.301163673E0;-5.293378830E0;4.531572819E0
5.622268750E0;-1.443042874E0;-8.216286659E0;3.954866886E0
5.634181250E0;-4.996296883E0;-1.218329811E1;5.916934013E0
5.646092188E0;-5.227136135E0;-1.589791107E1;5.524294853E0
5.658003125E0;-7.137977123E0;-2.504063797E1;3.317051411E0
5.669940625E0;-1.044223404E1;-2.995792770E1;3.402859688E0
5.681826563E0;-9.746776581E0;-3.086902809E1;2.727196693E0
5.693737500E0;-6.929088116E0;-2.853581047E1;1.882838488E0
5.705654688E0;-4.373602867E0;-2.628528023E1;1.576639295E0
5.717562500E0;-1.977055192E0;-2.355272102E1;1.158601999E0
5.729473438E0;8.885456920E-1;-2.312363052E1;1.043143988E0
5.741384375E0;4.437442303E0;-2.405379677E1;1.743486404E0
5.753296875E0;8.718801498E0;-2.597970390E1;5.959599018E0
5.765207813E0;1.296832752E1;-2.838565636E1;5.923398495E0
5.777118750E0;1.590571594E1;-2.622863197E1;4.310032368E0
5.789029688E0;1.645636368E1;-2.225778389E1;2.613941669E0
5.800942188E0;1.450865173E1;-1.802701759E1;-1.092505836E1
5.812853125E0;1.263788033E1;-1.143698597E1;-3.368315125E1
5.824771875E0;1.192331600E1;-6.045340538E0;-2.554740715E1
5.836676563E0;8.985812187E0;-3.093816280E0;-5.723281860E0
5.848587500E0;6.278851509E0;-6.608188748E-1;4.564105034E0
5.860500000E0;6.931568146E0;1.875138730E-1;-4.780263007E-1
5.872410938E0;7.090562344E0;1.040213585E0;-3.010517120E0
5.884321875E0;6.699100971E0;2.367032290E0;-2.457715034E0
5.896234375E0;6.319342136E0;3.563309669E0;-1.204312086E0
5.908145313E0;5.434559822E0;6.066964149E0;-7.191693306E0
5.920057813E0;4.012720585E0;5.776653290E0;-1.600207806E0
5.931968750E0;3.251986742E0;5.244709492E0;-1.523028374E0
5.943881250E0;3.062950134E0;4.661893368E0;-1.643380046E0
5.955793750E0;3.544788122E0;4.173744678E0;-1.747566104E0
5.967704688E0;4.320614815E0;3.603158712E0;-1.587805748E0
5.979620313E0;5.093108654E0;2.834677219E0;-9.715479016E-1
5.991526563E0;6.128926277E0;1.509343028E0;-1.008839965E0
6.003457813E0;6.407113552E0;-1.006282926E0;-8.918497562E-1
6.015351563E0;6.426094532E0;-4.948086739E0;1.037876844E0
6.027262500E0;7.101920605E0;-1.060932064E1;3.096095562E0
6.039173438E0;1.047241020E1;-2.214858818E1;1.754087925E0
6.051085938E0;9.916534424E0;-4.294735336E1;2.819555759E0
6.062996875E0;1.092617884E-1;-7.317707825E1;6.234491825E0
6.074909375E0;-3.892742157E0;-7.892429352E1;4.492423058E0
6.086820313E0;4.028052807E0;-6.039307785E1;-4.064751148E0
6.098732813E0;1.035405064E1;-3.401099777E1;-1.951396179E1
6.110643750E0;8.772182465E0;-1.807075310E1;-2.047037697E1
6.122559375E0;5.433123589E0;-1.102709007E1;-1.685405159E1
6.134467188E0;2.885731220E0;-8.263003349E0;-8.330787659E0
6.146378125E0;-7.911878824E-1;-7.078294277E0;-8.074780107E-1
6.158290625E0;-2.627166986E0;-5.145580292E0;4.059637070E0
6.170201563E0;-3.561221600E0;-3.308738708E0;7.631259441E0
6.182128125E0;-3.985847950E0;-6.684132218E-1;1.037105942E1
6.194023438E0;-4.243157864E0;2.326254129E0;1.006350040E1
6.205935938E0;-3.738555431E0;4.705889702E0;8.027758598E0
6.217846875E0;-3.866520643E0;5.764500618E0;6.283084393E0
6.229759375E0;-3.972564697E0;6.112052441E0;6.253788948E0
6.241670313E0;-4.319149494E0;6.743412495E0;6.850539207E0
6.253582813E0;-4.945386410E0;6.605066299E0;6.764309406E0
6.265493750E0;-6.117826939E0;5.772487164E0;4.617524624E0
6.277404688E0;-6.746736050E0;4.366276741E0;-3.303136230E-1
6.289317188E0;-6.618215561E0;3.325737715E0;-4.563214302E0
6.301228125E0;-5.389932156E0;2.280295134E0;-6.622524738E0
6.313146875E0;-2.510435343E0;-1.468833089E0;-8.081800461E0
6.325051563E0;9.423807144E0;-9.352968216E0;-6.541887665E1
6.336962500E0;1.348508167E1;-1.160093117E1;1.409966373E1
6.348875000E0;1.535793304E1;-8.057503700E0;3.433050919E1
6.360785938E0;1.641761541E0;-1.152372360E1;1.506021786E1
6.372696875E0;-4.612123013E0;-1.153102112E1;4.255817890E0
6.384609375E0;-8.982087135E0;-1.061069965E1;3.106400251E0
6.396520313E0;-9.182319641E0;-9.854811668E0;4.282738209E0
6.408432813E0;-7.587866783E0;-1.171529770E1;6.544396877E0
6.420343750E0;-8.904400826E0;-1.674501801E1;9.521299362E0
6.432262500E0;-9.174399376E0;-2.587411880E1;7.598545074E0
6.444167188E0;-5.586218357E0;-3.816745377E1;4.614555836E0
6.456079688E0;-6.549434662E0;-4.258220673E1;6.444836617E0
6.467990625E0;-3.266591311E0;-3.806446457E1;7.102476120E0
6.479907813E0;-2.044456750E-1;-3.485966492E1;5.470195293E0
6.491821875E0;2.705562830E0;-3.120299721E1;2.991919041E0
6.503725000E0;5.071570396E0;-2.675370026E1;2.178599119E0
6.515637500E0;4.039679050E0;-2.875370026E1;2.141123962E1
6.527548438E0;2.496977234E1;-2.262569618E1;-6.770440674E1
6.539460938E0;2.364868927E1;-9.211384773E0;-4.128139877E1
6.551373438E0;1.536741352E1;-8.263634682E0;-1.132678604E1
6.563282813E0;1.175214100E1;-6.164992809E0;-2.055671215E0
6.575195313E0;8.639065742E0;-3.901916742E0;-7.801458240E-1
6.587106250E0;6.012798309E0;-1.304638743E0;1.071089268E0
6.599020313E0;3.651406527E0;1.889197469E0;5.841670513E0
6.610929688E0;5.723674297E-1;5.897129536E0;1.224806499E1
6.622842188E0;3.099054575E0;6.618014336E0;3.629868507E0
6.634753125E0;4.441483498E0;6.730379105E0;-8.680704832E-1
6.646664063E0;4.526525497E0;6.400639534E0;-4.818100929E0
6.658576563E0;7.607489586E0;6.296654701E0;-1.927306366E1
6.670487500E0;6.699139118E0;4.955844402E0;-9.629210472E0
6.682400000E0;7.424333572E0;3.714010239E0;-5.073179245E0
6.694310938E0;8.721654892E0;1.936133385E0;-7.125929832E0
6.706221875E0;7.762413502E0;1.764622331E-1;-5.123467445E0
6.718134375E0;5.863744736E0;-1.058936238E0;-1.514418840E0
6.730045313E0;3.808973789E0;-2.327269316E0;-1.496241927E0
6.741957813E0;5.512228012E0;-4.427501678E0;-2.089132547E0
6.753868750E0;1.118896675E1;-8.777297020E0;-1.896514177E0
6.765781250E0;1.972555161E1;-2.220991707E1;7.942237258E-1
6.777698438E0;2.547478485E1;-4.168545532E1;1.429331779E1
6.789603125E0;1.967517662E1;-6.910736084E1;1.250606418E0
6.801515625E0;1.314952970E0;-7.882282257E1;-1.282736659E0
6.813426563E0;-3.465060949E0;-7.047290039E1;-5.517007113E-1
6.825339063E0;-2.606136501E-1;-4.261442566E1;-1.685239220E1
6.837251563E0;-5.256613493E-1;-2.576140022E1;-2.078158379E1
6.849160938E0;-1.500637650E0;-1.651373863E1;-1.436527729E1
6.861093750E0;-3.173514366E0;-1.214529705E1;-7.438784599E0
6.872984375E0;-3.011991978E0;-9.032777786E0;-3.536293507E0
6.884896875E0;-2.238435030E0;-6.393945217E0;7.594503760E-1
6.896814063E0;-2.988567114E0;-3.690776825E0;5.596570969E0
6.908718750E0;-4.300685406E0;-9.375214577E-1;8.751142502E0
6.920631250E0;-4.795509338E0;1.063322425E0;1.083996868E1
6.932542188E0;-4.980715275E0;2.413853168E0;1.079390430E1
6.944454688E0;-5.593420506E0;3.129231215E0;9.281103134E0
6.956371875E0;-5.705688953E0;4.160921574E0;9.582944870E0
6.968276563E0;-4.722179890E0;5.627800941E0;8.632591248E0
6.980189063E0;-4.172087669E0;6.515169144E0;2.913733959E0
6.992100000E0;-5.133551598E0;6.532809258E0;-2.593312979E0
7.004029688E0;-5.519937515E0;6.456338406E0;-6.949438572E0
7.015931250E0;-2.412570000E0;5.687751770E0;-8.809072495E0
7.027835938E0;1.756759882E0;4.600497246E0;-1.022048378E1
7.039746875E0;4.986231327E0;8.273307681E-1;-9.555364609E0
7.051657813E0;1.040545940E1;-2.757766008E0;-1.743651199E1
7.063570313E0;1.038923645E1;-5.594052315E0;-2.471745014E0
7.075489063E0;1.005965996E1;-7.831012249E0;9.809465408E0
7.087395313E0;9.062331200E0;-6.070115089E0;1.386312675E1
7.099304688E0;7.778301716E0;-6.358674526E0;4.433745384E0
7.111215625E0;3.205519915E0;-7.805212498E0;8.533413410E-1
7.123128125E0;5.635950714E-2;-1.247656822E1;4.465157032E0
7.135039063E0;-6.121208072E-1;-2.740683746E1;1.265345216E0
7.146951563E0;-8.066802979E0;-3.280065918E1;-1.663022041E0
7.158862500E0;-1.208875465E1;-2.432025337E1;-2.981575966E0
7.170773438E0;-1.180183411E1;-1.626140785E1;-4.508310318E0
7.182685938E0;-9.932919502E0;-1.582673645E1;-2.485306025E0
7.194596875E0;-8.565601349E0;-1.773754883E1;1.512455583E0
7.206509375E0;-6.107062340E0;-2.092233467E1;6.787149906E0
7.218437500E0;-5.092486382E0;-2.272068787E1;7.943166733E0
7.230332813E0;-3.161447525E0;-2.519853401E1;7.330815792E0
7.242243750E0;-7.127921581E-1;-2.767296791E1;6.547720432E0
7.254154688E0;2.203058004E0;-2.993491364E1;4.905766964E0
7.266067188E0;6.002867222E0;-3.139490891E1;5.885388374E0
7.277979688E0;7.217110157E0;-3.399748230E1;1.801693344E1
7.289889063E0;1.033046246E1;-3.021187592E1;7.580808997E-1
7.301801563E0;1.108940601E1;-2.259272003E1;-1.328866196E1
7.313712500E0;1.226796627E1;-1.208922482E1;-4.564921951E1
7.325625000E0;1.118955040E1;-6.686832905E0;-3.209628677E1
7.337535938E0;8.703852654E0;-5.481984138E0;-1.071310425E1
7.349448438E0;7.657959461E0;-3.449652195E0;-1.491070509E0
7.361359375E0;8.680551529E0;-1.952490568E0;2.169481993E0
7.373270313E0;8.884068489E0;-6.768695712E-1;3.419283867E0
7.385182813E0;9.004296303E0;1.614984870E0;1.942770123E0
7.397093750E0;6.563100815E0;3.618816614E0;3.145511627E0
7.409004688E0;3.945711374E0;4.963553905E0;2.575854540E0
7.420920313E0;3.519524336E0;5.547853470E0;-4.231033325E-1
7.432834375E0;2.649950504E0;4.657728195E0;-1.945825219E0
7.444743750E0;2.170774937E0;3.754290342E0;-2.407254934E0
7.456653125E0;2.629388809E0;3.359170437E0;-2.335026503E0
7.468564063E0;2.972056627E0;3.412331343E0;-2.457169294E0
7.480475000E0;3.433505535E0;3.430373669E0;-2.592441559E0
7.492390625E0;4.047771454E0;3.527022839E0;-2.072258234E0
7.504298438E0;4.515378475E0;3.313852787E0;-1.591416240E0
7.516210938E0;4.608732700E0;2.281664610E0;-1.204388738E0
7.528121875E0;3.866578341E0;9.836337715E-2;-1.348155856E0
7.540034375E0;5.271256447E0;-1.374836802E0;-8.467333913E-1
7.551946875E0;8.346693993E0;-5.622744083E0;2.217519283E0
7.563859375E0;1.286498451E1;-2.225915146E1;2.767859936E0
7.575768750E0;1.526542091E1;-4.038017654E1;-6.977689743E0
7.587681250E0;9.309690475E0;-6.136947250E1;-1.161799812E1
7.599592188E0;-6.998404980E0;-7.824562073E1;-6.010183811E0
7.611510938E0;-1.458885765E1;-7.676028442E1;3.314714909E0
7.623414063E0;-7.291224957E0;-4.645212936E1;-3.488811493E0
7.635328125E0;-2.855535746E0;-2.539274979E1;-9.298600197E0
7.647237500E0;-1.895872593E0;-1.370458317E1;-1.090463066E1
7.659150000E0;2.979536057E-1;-6.993376732E0;-8.133563042E0
7.671067188E0;8.416002393E-1;-3.806292295E0;-3.920055151E0
7.682973438E0;-4.818091393E-1;-2.103344440E0;-7.241502404E-1
7.694884375E0;-2.216647625E0;-9.492722154E-1;3.318200588E0
7.706795313E0;-4.181387424E0;1.586398035E-1;6.184146404E0
7.718707813E0;-4.921578407E0;1.637748957E0;6.517247200E0
7.730618750E0;-4.817325115E0;3.487355947E0;6.065987587E0
7.742531250E0;-4.481275558E0;5.064435482E0;5.582167625E0
7.754446875E0;-3.696024895E0;5.475807667E0;5.819068909E0
7.766353125E0;-3.280123234E0;5.559298038E0;6.380135536E0
7.778265625E0;-3.176176786E0;5.729899406E0;6.965086937E0
7.790182813E0;-4.036461353E0;5.454795837E0;6.894544601E0
7.802089063E0;-4.888298988E0;4.825398445E0;5.260674000E0
7.814007813E0;-4.489903927E0;4.072192192E0;2.359821081E0
7.825910938E0;-3.274875164E0;3.855526686E0;-5.673711777E0
7.837823438E0;-1.218610406E0;-1.522549391E0;-2.160634041E1
7.849734375E0;1.881861687E0;-7.184281349E0;-3.272845840E1
7.861646875E0;5.603686333E0;-8.036339760E0;-1.755201721E1
7.873557813E0;5.374034882E0;-2.846064091E0;1.895339966E1
7.885468750E0;2.092848301E0;-3.422683477E0;1.750794601E1
7.897381250E0;9.503065795E-2;-6.621001720E0;1.255289555E1
7.909292188E0;-4.331991673E0;-9.640866280E0;1.008489418E1
7.921204688E0;-5.909368515E0;-1.338173962E1;1.027547359E1
7.933115625E0;-4.891976357E0;-1.832739449E1;1.088375378E1
7.945028125E0;-5.806351185E0;-2.849969482E1;8.155943871E0
7.956939063E0;-8.170653343E0;-3.604565811E1;7.678205013E0
7.968851563E0;-5.731623173E0;-3.730627060E1;7.740128517E0
7.980762500E0;-2.657813072E0;-3.549152374E1;6.867317200E0
7.992673438E0;-7.576882243E-1;-3.626416016E1;4.410703659E0
8.004585938E0;1.577280879E0;-3.370856857E1;4.154543400E0
8.016496875E0;3.348990202E0;-3.049103928E1;8.452748299E0
8.028428125E0;6.910317421E0;-2.868596458E1;3.561403751E0
8.040323438E0;1.065635300E1;-2.547070503E1;-1.262136936E1
8.052232813E0;1.132260990E1;-2.098549461E1;-2.692573738E1
8.064143750E0;9.829202652E0;-1.564811897E1;-2.951681137E1
8.076054688E0;9.561598778E0;-1.220029640E1;-1.547017288E1
8.087973438E0;8.292020798E0;-7.940207005E0;-4.328582287E0
8.099879688E0;7.077212334E0;-3.834601402E0;-1.790862828E-1
8.111790625E0;6.673799038E0;-1.251200199E0;-5.072738528E-1
8.123704688E0;6.772890091E0;2.185331583E-1;-1.831478119E0
8.135612500E0;5.837925911E0;1.249016762E0;-1.303652287E0
8.147531250E0;4.548303127E0;2.835644484E0;-7.856525183E-1
8.159435938E0;2.492909908E0;4.527531147E0;8.527284265E-1
8.171348438E0;1.773653269E0;5.664767742E0;-9.069235623E-2
8.183259375E0;3.647279024E0;5.505725384E0;-1.814785719E0
8.195171875E0;4.949006557E0;5.231647015E0;-1.325439692E0
8.207087500E0;6.323498726E0;4.786392212E0;-6.686143279E-1
8.218993750E0;8.477676392E0;4.817842484E0;-3.781593740E-1
8.230906250E0;9.773532867E0;5.226570606E0;6.073610783E-1
8.242817188E0;1.121380901E1;5.485010624E0;-5.339165926E-1
8.254728125E0;1.134911919E1;4.401040554E0;-2.886641026E0
8.266640625E0;9.461990356E0;1.748562098E0;-3.724669218E0
8.278551563E0;8.354087830E0;-1.299582243E0;-3.093059540E0
8.290464063E0;1.055114174E1;-4.261583328E0;-1.165679336E0
8.302375000E0;1.355779839E1;-1.261617851E1;4.094017982E0
8.314285938E0;1.925769424E1;-2.821397209E1;1.960276604E0
8.326198438E0;1.864201164E1;-5.103798294E1;-1.431301594E0
8.338109375E0;5.107674599E0;-7.786187744E1;-7.985610962E0
8.350028125E0;-1.130606270E1;-7.903392029E1;-5.533967495E0
8.361932813E0;-1.235309505E1;-7.090019989E1;-1.888555884E0
8.373843750E0;-4.157081127E0;-3.890414810E1;-1.305881882E1
8.385756250E0;-1.129699349E0;-2.101113129E1;-1.681919861E1
8.397667188E0;-2.537126064E0;-1.363097572E1;-9.952505112E0
8.409579688E0;-3.859673262E0;-1.117613411E1;-7.214189529E0
8.421490625E0;-2.966454029E0;-9.666436195E0;-1.418018699E0
8.433401563E0;-3.646110535E0;-7.362897873E0;5.582301617E0
8.445317188E0;-4.922009468E0;-3.593112469E0;7.046499729E0
8.457226563E0;-5.517744064E0;-3.536810577E-1;7.561932564E0
8.469137500E0;-4.752806664E0;2.725405931E0;8.674575806E0
8.481048438E0;-4.219627380E0;4.570827961E0;1.084796524E1
8.492960938E0;-3.475116730E0;6.396722794E0;1.322243881E1
8.504871875E0;-3.485785484E0;8.071418762E0;1.332574272E1
8.516834375E0;-3.655955553E0;1.037851906E1;1.097224331E1
8.528695313E0;-4.345370770E0;1.006257153E1;6.135764122E0
8.540606250E0;-4.868043900E0;7.389100075E0;2.058927298E0
8.552518750E0;-4.260999203E0;5.740127563E0;-1.217353916E1
8.564429688E0;-2.364120960E0;5.574773788E0;-1.896923065E1
8.576342188E0;1.357675195E0;1.872265898E-2;-1.504015541E1
8.588254688E0;2.405923843E0;-4.583163261E0;-1.705360222E1
8.600165625E0;5.528508663E0;-7.542942047E0;-1.235878277E1
8.612076563E0;9.096108437E0;-6.775303841E0;6.017212868E0
8.623989063E0;8.275548935E0;-3.483352900E0;1.655563736E1
8.635900000E0;3.161888123E0;-2.767208815E0;9.897122383E0
8.647812500E0;-1.797901869E0;-3.609278202E0;7.650556564E0
8.659723438E0;-2.522214890E0;-4.534378529E0;7.453264713E0
8.671634375E0;-4.640029907E0;-6.273766041E0;7.368625164E0
8.683570313E0;-7.937228680E0;-9.276268005E0;9.202009201E0
8.695457813E0;-1.031356907E1;-1.525502014E1;1.255607510E1
8.707368750E0;-1.017941761E1;-2.013498688E1;1.311830997E1
8.719281250E0;-9.243687630E0;-2.644876480E1;7.863401413E0
8.731192188E0;-8.039825439E0;-3.365688324E1;4.612841129E0
8.743106250E0;-6.339424610E0;-3.962442780E1;2.387239218E0
8.755015625E0;-4.215173721E0;-4.196513748E1;1.907920122E0
8.766926563E0;-3.145406544E-1;-4.179031372E1;3.207157612E0
8.778837500E0;4.400858879E0;-3.773213959E1;4.717592239E0
8.790750000E0;7.508120537E0;-3.465777206E1;1.114625359E1
8.802662500E0;1.185980320E1;-3.134743500E1;1.412191105E1
8.814573438E0;1.851290703E1;-2.695271683E1;3.403788805E-1
8.826484375E0;2.245282364E1;-2.156346321E1;-1.702595329E1
8.838395313E0;1.989549065E1;-1.386968708E1;-5.120972443E1
8.850328125E0;1.545150757E1;-9.375445366E0;-2.966994286E1
8.862218750E0;8.971964836E0;-6.996240139E0;-8.964475632E0
8.874132813E0;6.961543560E0;-3.210116863E0;5.408405662E-1
8.886042188E0;8.111325264E0;-1.338186383E0;1.092062354E0
8.897953125E0;8.012588501E0;3.369407952E-1;2.111408234E0
8.909865625E0;6.693727970E0;2.156332970E0;1.913857818E0
8.921778125E0;5.675148487E0;4.163995743E0;1.346671343E0
8.933689063E0;5.022881985E0;6.375816345E0;3.253882885E0
8.945601563E0;5.087687969E0;9.065817833E0;4.873531818E0
8.957512500E0;6.954341888E0;8.545623779E0;-6.884287596E-1
8.969425000E0;7.013085842E0;7.290602684E0;-2.982476234E0
8.981339063E0;7.733664036E0;5.721749306E0;-3.680797815E0
8.993246875E0;9.104057312E0;4.723156929E0;-4.076013565E0
9.005157813E0;8.588795662E0;3.514774084E0;-3.701253891E0
9.017079688E0;8.074416161E0;1.421973825E0;-3.829391718E0
9.028981250E0;7.807166100E0;-2.622895718E0;-3.266438007E0
9.040893750E0;1.006144142E1;-9.443469048E0;-1.902413607E0
9.052804688E0;1.376083660E1;-2.287586975E1;-3.223160505E0
9.064717188E0;1.329610348E1;-4.503752899E1;-5.485776901E0
9.076628125E0;1.634684324E0;-7.332376099E1;-8.268404007E0
9.088539063E0;-1.822125435E1;-7.892773438E1;5.114599228E0
9.100451563E0;-1.731304741E1;-7.576530457E1;9.740311623E0
9.112362500E0;-3.210605145E0;-3.947099304E1;-6.218728065E0
9.124275000E0;1.111675724E-1;-1.885648346E1;-1.238127899E1
9.136185938E0;-1.214147583E-1;-9.441639900E0;-1.293220425E1
9.148098438E0;1.213572979E0;-4.450246811E0;-9.659722328E0
9.160009375E0;1.531273961E0;-1.961952567E0;-4.489836693E0
9.171921875E0;2.432604730E-1;-6.822996140E-1;3.613099337E0
9.183832813E0;-3.027515888E0;-5.899025798E-1;9.354624748E0
9.195743750E0;-4.029613972E0;1.394124508E0;1.474134827E1
9.207656250E0;-4.493830681E0;3.502152205E0;1.652946281E1
9.219567188E0;-4.607018471E0;5.396559715E0;1.789746284E1
9.231478125E0;-4.310166359E0;7.667498112E0;2.121254158E1
9.243390625E0;-4.522292614E0;1.108779716E1;1.783360291E1
9.255301563E0;-5.889793396E0;1.280277348E1;1.000539780E1
9.267214063E0;-7.745807648E0;9.457479477E0;6.954734325E0
9.279125000E0;-8.405382156E0;6.741899490E0;3.121301413E0
9.291037500E0;-8.774222374E0;4.137956142E0;-3.474407911E0
9.302948438E0;-8.411606789E0;5.997092128E-1;-2.932157898E1
9.314860938E0;-3.239096403E0;-5.020717621E0;-2.707891083E1
9.326771875E0;-4.682168007E0;-1.472506809E1;-3.402501678E1
9.338689063E0;-1.149379611E0;-1.661573982E1;-2.473983192E1
9.350595313E0;5.350734234E0;-5.366737366E0;3.518605804E1
9.362504688E0;5.540393353E0;-3.828328550E-1;2.843606758E1
9.374417188E0;6.982832551E-1;-1.746129632E0;1.338481331E1
9.386329688E0;-1.680710435E0;-5.558991909E0;7.684103966E0
9.398240625E0;-6.729765415E0;-1.168421173E1;9.965548515E0
9.410151563E0;-9.250189781E0;-1.746634293E1;1.430163956E1
9.422064063E0;-8.638193130E0;-2.110646820E1;1.340233898E1
9.433975000E0;-8.467276573E0;-2.354534531E1;1.288767147E1
9.445887500E0;-7.501531601E0;-2.654900551E1;1.178617573E1
9.457798438E0;-5.395371914E0;-3.028808784E1;8.957666397E0
9.469710938E0;-2.540822506E0;-3.513957596E1;3.991402388E0
9.481621875E0;-6.703764666E-4;-3.914633560E1;1.754767895E0
9.493534375E0;3.155050278E0;-4.147262192E1;5.243301988E-1
9.505445313E0;4.744752407E0;-4.135727692E1;3.322385848E-1
9.517378125E0;1.135661793E1;-3.930381012E1;1.950550461E1
9.529267188E0;2.435187531E1;-3.124918747E1;-5.225910187E0
9.541179688E0;2.500656509E1;-2.265907097E1;-1.708742714E1
9.553092188E0;1.991531372E1;-1.504467487E1;-2.822971725E1
9.565003125E0;1.490434551E1;-9.203550339E0;-2.735089111E1
9.576921875E0;1.319136238E1;-5.542826176E0;-1.074403667E1
9.588826563E0;1.206568432E1;-8.135305643E-1;-9.024225175E-2
9.600739063E0;1.050714588E1;2.649902344E0;4.212291718E0
9.612650000E0;1.084393406E1;4.339892387E0;2.678910732E0
9.624560938E0;9.010568619E0;4.836555481E0;1.142915249E0
9.636478125E0;6.176178932E0;5.123122692E0;8.019235134E-1
9.648385938E0;3.786554337E0;5.565417290E0;1.340753026E-2
9.660296875E0;3.675951958E0;5.719403267E0;-2.734072924E0
9.672207813E0;4.883625507E0;5.797272205E0;-3.882380009E0
9.684118750E0;6.399873734E0;6.099669456E0;-3.349287033E0
9.696029688E0;7.350265980E0;5.717382431E0;-2.083760023E0
9.707942188E0;8.640817642E0;4.842704296E0;-1.616057396E0
9.719854688E0;9.762223244E0;3.813685656E0;-1.336136937E0
9.731765625E0;9.906756401E0;2.208277702E0;-1.564074516E0
9.743676563E0;8.467535019E0;-1.233358622E0;-1.854385853E0
9.755595313E0;9.580647469E0;-4.349843025E0;-1.016233325E0
9.767501563E0;1.415315151E1;-1.196770382E1;4.157195985E-1
9.779415625E0;1.846302986E1;-2.690692902E1;3.206831932E0
9.791323438E0;2.026944542E1;-4.194947815E1;-7.932468653E-1
9.803234375E0;1.334631443E1;-6.843627930E1;-4.519668579E0
9.815157813E0;-9.206720352E0;-7.880902863E1;8.853182793E-1
9.827057813E0;-1.545046425E1;-7.878537750E1;8.935390472E0
9.838970313E0;-7.205186844E0;-4.774004745E1;-3.808351278E0
9.850881250E0;-5.049821377E0;-2.379599953E1;-9.576758385E0
9.862792188E0;-1.628679633E0;-1.008002949E1;-1.643492889E1
9.874703125E0;2.538007021E0;-3.141537428E0;-1.449240875E1
9.886615625E0;3.217615366E0;-1.123608351E0;-7.476948261E0
9.898528125E0;9.923104048E-1;-6.053308249E-1;-3.664278090E-1
9.910439063E0;-2.409160614E0;-3.493236005E-1;5.900174618E0
9.922350000E0;-4.533057213E0;4.713416994E-1;9.265254021E0
9.934264063E0;-5.431294441E0;1.616967201E0;1.049880505E1
9.946173438E0;-4.856293678E0;3.054608583E0;1.142315769E1
9.958085938E0;-4.176416397E0;4.755133629E0;1.282152462E1
9.969996875E0;-4.106870174E0;6.242430687E0;1.434311581E1
9.981907813E0;-3.720924616E0;9.404443741E0;1.164216995E1
9.993820313E0;-5.708389759E0;8.786279678E0;6.532522202E0
1.000573281E1;-7.936309338E0;7.963268280E0;1.812458634E0
1.001764375E1;-8.761581421E0;6.896038055E0;-6.854541779E0
1.002955469E1;-7.870746613E0;5.252255917E0;-9.669203758E0
1.004146719E1;-4.716845512E0;1.458193302E0;-1.443099308E1
1.005337969E1;-2.216963530E0;-5.103662014E0;-1.085850906E1
1.006529063E1;1.744578123E0;-1.082016373E1;-2.851856232E1
1.007720156E1;8.036166191E0;-1.055638981E1;-1.394708729E1
1.008911250E1;9.980412483E0;-1.526418447E0;2.990076447E1
1.010102500E1;2.509353161E0;-6.982353926E-1;1.920550919E1
1.011294219E1;-4.397372723E0;-2.041181326E0;1.098394585E1
1.012484844E1;-4.058832645E0;-5.302793026E0;6.954706192E0
1.013675938E1;-9.691690445E0;-1.478833294E1;1.538820553E1
1.014867031E1;-1.191032028E1;-2.807398796E1;2.059671402E1
1.016058281E1;-9.970040321E0;-4.152489853E1;5.581803799E0
1.017249688E1;-1.270133591E1;-4.449877548E1;6.266008615E-1
1.018440781E1;-7.842360973E0;-3.399930191E1;-1.664142609E0
1.019631719E1;-4.957606316E0;-3.246378326E1;1.397668004E0
1.020822812E1;-9.744783640E-1;-3.299343109E1;5.736995697E0
1.022014062E1;4.199439526E0;-3.040625572E1;9.392539024E0
1.023205469E1;8.141971588E0;-3.041518211E1;5.000912666E0
1.024396406E1;1.024767208E1;-2.803206062E1;-3.869010687E0
1.025587500E1;1.284228706E1;-2.273460197E1;-8.726731300E0
1.026778594E1;1.431024933E1;-1.541948223E1;-1.235725117E1
1.027971406E1;1.267116928E1;-1.025172234E1;-1.343713188E1
1.029161562E1;8.455812454E0;-8.062445641E0;-7.950454235E0
1.030352031E1;5.718837738E0;-6.515867710E0;-4.631611824E0
1.031543281E1;5.286962509E0;-4.667659283E0;-5.473183632E0
1.032734375E1;7.318049908E0;-2.137936115E0;-7.805729389E0
1.033925625E1;1.056597519E1;-7.970488667E-1;-6.570053101E0
1.035117344E1;9.413952827E0;-1.797758192E-1;-1.086354613E0
1.036307813E1;7.951555729E0;2.329845428E0;-3.947176933E-1
1.037499062E1;5.356403828E0;4.945329189E0;-1.669246912E0
1.038690156E1;4.819709778E0;4.459756374E0;-1.738180876E0
1.039881406E1;4.238867283E0;3.882265091E0;-1.099053502E0
1.041072500E1;3.908610821E0;4.066398621E0;-9.745071530E-1
1.042263906E1;4.178906918E0;4.467369556E0;-8.266220689E-1
1.043454844E1;4.795805931E0;4.734773636E0;-3.690901399E-1
1.044646094E1;5.634581566E0;4.475500584E0;1.355405450E-1
1.045837188E1;7.636191368E0;4.344039440E0;2.851398289E-1
1.047028438E1;1.034089279E1;3.835175991E0;-8.140189648E-1
1.048219531E1;1.041838741E1;1.312941909E0;-1.306525350E0
1.049410625E1;1.013373661E1;-2.138481617E0;-1.369062066E0
1.050601875E1;1.213790321E1;-6.483287811E0;-1.025675982E-2
1.051792969E1;1.617930603E1;-1.801864624E1;1.465165257E0
1.052984219E1;1.910991478E1;-3.351536560E1;-3.188837051E0
1.054175469E1;1.517435455E1;-5.248667526E1;-1.025076485E1
1.055366562E1;-1.635948539E0;-7.568122864E1;-1.262470245E1
1.056557656E1;-1.926198387E1;-7.898288727E1;-3.244191170E0
1.057748750E1;-1.675249863E1;-6.161418915E1;7.207208157E0
1.058940000E1;-8.158701897E0;-3.344187546E1;-2.541483402E0
1.060131094E1;-2.615943193E0;-1.591107941E1;-8.687666893E0
1.061322344E1;-6.470761299E-1;-8.204038620E0;-9.969216347E0
1.062513438E1;2.212433964E-1;-4.345658302E0;-7.044718266E0
1.063704688E1;-5.171284080E-1;-3.131788015E0;-1.765762091E0
1.064895938E1;-2.906532288E0;-2.821652889E0;3.037734270E0
1.066087031E1;-4.533880234E0;-1.300951838E0;5.459746838E0
1.067277969E1;-5.345764160E0;4.690145254E-1;6.193177223E0
1.068469219E1;-4.672610283E0;2.495811462E0;6.717574596E0
1.069660313E1;-3.666691065E0;4.125813007E0;6.681344986E0
1.070851562E1;-2.991899967E0;5.003402710E0;6.422771454E0
1.072042656E1;-2.783920050E0;5.443571568E0;6.549214363E0
1.073233906E1;-2.908064365E0;6.087191105E0;8.500507355E0
1.074425000E1;-3.584981918E0;7.053423405E0;1.101823139E1
1.075616250E1;-4.338934898E0;6.969042301E0;1.000871086E1
1.076807812E1;-3.250674725E0;6.313960075E0;7.122721195E0
1.077998438E1;-1.925694704E0;5.762240410E0;1.294592768E-1
1.079189531E1;-1.997817636E0;3.157837152E0;-1.377907085E1
1.080380781E1;-8.392251730E-1;-4.943020821E0;-3.895717621E1
1.081571875E1;6.705775857E-1;-9.259958267E0;-2.838873100E1
1.082763125E1;6.612057209E0;-9.346282959E0;-1.455031013E1
1.083954219E1;7.563858032E0;-3.588438988E0;2.713495255E1
1.085145312E1;4.328946114E0;-6.344318390E0;2.097098351E1
1.086336562E1;1.181873679E-1;-9.605690002E0;1.293877316E1
1.087527656E1;-5.256527424E0;-1.313997269E1;1.204871464E1
1.088718906E1;-7.796765804E0;-1.726896477E1;1.204869556E1
1.089910000E1;-9.032939911E0;-2.059317970E1;1.147970867E1
1.091101250E1;-9.875689507E0;-2.496877480E1;7.690626144E0
1.092292344E1;-1.136195183E1;-3.041234779E1;3.652479172E0
1.093483594E1;-8.465696335E0;-3.456755066E1;4.050673485E0
1.094678281E1;-4.084278107E0;-3.718952560E1;3.374071836E0
1.095867969E1;-7.483508587E-1;-3.653833389E1;3.953248262E0
1.097057031E1;2.791811466E0;-3.387216187E1;6.271611214E0
1.098248125E1;5.034182549E0;-3.457626724E1;1.180318451E1
1.099439375E1;1.108568096E1;-3.531234741E1;3.681142569E0
1.100631250E1;1.710644722E1;-2.959389496E1;-6.284913540E0
1.101821562E1;1.995804596E1;-1.940506172E1;-1.326019001E1
1.103012813E1;1.602356911E1;-1.294656944E1;-2.536650085E1
1.104204062E1;8.547032356E0;-1.001925468E1;-2.662331200E1
1.105395156E1;2.597421646E0;-9.173795700E0;-1.534659386E1
1.106586719E1;1.877599955E0;-5.287421703E0;-5.565896511E0
1.107777500E1;6.097820759E0;-1.327211261E0;-3.874727964E0
1.108968594E1;8.539294243E0;-1.357397437E0;-1.453912497E0
1.110159688E1;7.525310993E0;-5.365788937E-1;6.270031333E-1
1.111350938E1;5.479092121E0;1.516841650E0;4.647528827E-1
1.112542813E1;3.537969351E0;3.794742584E0;-7.062607408E-1
1.113733438E1;3.782580137E0;4.625559807E0;-9.204652309E-1
1.114926406E1;4.412255287E0;5.402995110E0;-7.048530132E-2
1.116115625E1;5.311986923E0;5.671279907E0;7.192851901E-1
1.117306719E1;6.344299316E0;5.654405117E0;1.522310019E0
1.118498438E1;7.609414577E0;5.443763733E0;2.166484356E0
1.119689062E1;9.657377243E0;5.196969032E0;1.916070104E0
1.120880156E1;1.169832802E1;4.783069134E0;-4.116303027E-1
1.122071406E1;1.176911068E1;3.873281956E0;-1.817017078E0
1.123262500E1;9.916410446E0;1.709287643E0;-2.837722540E0
1.124453594E1;7.831989288E0;-1.047913313E0;-3.301537037E0
1.125644688E1;8.583404541E0;-3.673672676E0;-2.925934792E0
1.126835938E1;1.068358898E1;-8.842409134E0;-1.690641642E0
1.128027188E1;1.221636581E1;-2.303054428E1;4.545439780E-1
1.129218281E1;1.325547886E1;-4.036274719E1;-1.058821321E0
1.130409375E1;3.296442032E0;-6.544869995E1;-8.225222588E0
1.131600625E1;-1.580299473E1;-7.856893921E1;-9.303274155E0
1.132791719E1;-1.801150131E1;-7.520136261E1;1.854405046E0
1.133982969E1;-9.686729431E0;-4.345467758E1;-2.577856302E0
1.135174063E1;-2.979909658E0;-2.202164650E1;-6.252151489E0
1.136365781E1;-2.379836515E-2;-1.198985577E1;-7.722306252E0
1.137556406E1;1.666891098E0;-7.421297550E0;-7.439407349E0
1.138747500E1;1.282257795E0;-5.500917912E0;-4.551865578E0
1.139938750E1;-8.791508526E-2;-3.670876265E0;5.132306814E-1
1.141129844E1;-1.910017490E0;-2.075418472E0;4.448675632E0
1.142321406E1;-4.314418316E0;-1.078970909E0;6.155626297E0
1.143512188E1;-5.512859821E0;6.319735199E-2;6.553428173E0
1.144703281E1;-5.273430347E0;2.263727188E0;6.859808922E0
1.145894531E1;-4.295868397E0;4.058708191E0;7.365675449E0
1.147085625E1;-3.413068533E0;5.406662941E0;7.330575943E0
1.148277500E1;-2.269521236E0;6.808630943E0;7.369324207E0
1.149467969E1;-2.319809198E0;7.115174770E0;6.972011089E0
1.150659063E1;-3.699137449E0;6.186598301E0;4.733949661E0
1.151850312E1;-3.925820351E0;5.619392395E0;2.144764185E0
1.153041562E1;-3.522339821E0;5.684840202E0;-3.565310955E0
1.154232656E1;-2.582510471E0;2.583975554E0;-1.157420349E1
1.155423906E1;-1.057662517E-1;-4.819566250E0;-2.059405136E1
1.156615000E1;3.049935341E0;-7.192756176E0;-1.675844574E1
1.157806094E1;7.737820148E0;-6.926540375E0;9.514079094E-1
1.158997188E1;7.687188148E0;-4.392335415E0;1.368855190E1
1.160188438E1;4.390965939E0;-7.761734009E0;1.137878799E1
1.161379531E1;-2.536857843E0;-1.159931374E1;1.266224289E1
1.162570781E1;-6.509307384E0;-1.415902138E1;1.062660599E1
1.163761875E1;-9.012742043E0;-1.611362839E1;8.886539459E0
1.164952969E1;-1.179651928E1;-1.830716705E1;7.517199516E0
1.166144219E1;-1.424446583E1;-2.267274666E1;6.156009674E0
1.167335312E1;-1.041469097E1;-3.018111610E1;5.731058121E0
1.168527188E1;-7.235047817E0;-3.729138565E1;6.133082867E0
1.169717656E1;-4.811157703E0;-3.983552170E1;5.926415443E0
1.170908906E1;-1.055095911E0;-3.689175797E1;5.566729546E0
1.172100313E1;1.413680315E0;-3.534927750E1;5.537884235E0
1.173291250E1;4.036748409E0;-3.499087524E1;1.336158943E1
1.174482344E1;9.610498428E0;-3.483836365E1;8.083313942E0
1.175673438E1;1.574509335E1;-2.960562515E1;-9.878026009E0
1.176864688E1;1.838222122E1;-1.939425087E1;-3.008779907E1
1.178055781E1;1.507053185E1;-1.206730366E1;-4.240455246E1
1.179246875E1;9.068067551E0;-8.654109955E0;-2.457776451E1
1.180438125E1;4.348770618E0;-5.945760727E0;-3.124021530E0
1.181629219E1;7.576297760E0;-2.437316418E0;2.420777321E0
1.182820312E1;9.259861946E0;-1.911894560E0;1.806243181E0
1.184012188E1;7.136262894E0;1.826871634E-1;2.765992403E0
1.185202656E1;4.594568729E0;3.071243763E0;2.420930624E0
1.186393906E1;3.222174168E0;5.171035290E0;1.542555451E0
1.187585000E1;3.893939257E0;5.972604275E0;1.605388761E0
1.188776250E1;5.200646400E0;6.759971142E0;1.831296086E0
1.189967969E1;6.235908985E0;7.121753693E0;1.951092362E0
1.191158438E1;7.027767181E0;6.444568157E0;4.513357580E-1
1.192349688E1;7.477110863E0;5.328621387E0;-7.791115046E-1
1.193540781E1;8.224360466E0;4.379780293E0;-2.040434361E0
1.194732031E1;9.622047424E0;3.630079031E0;-3.308748484E0
1.195923594E1;1.081969452E1;2.782847643E0;-3.827160120E0
1.197114375E1;1.095464134E1;1.007480145E0;-3.065535784E0
1.198305469E1;8.974933624E0;-1.611240268E0;-2.501634359E0
1.199496719E1;8.791221619E0;-4.191432953E0;-2.025025368E0
1.200687812E1;1.150538349E1;-8.158530235E0;-1.202521324E0
1.201879688E1;1.417354012E1;-1.885408020E1;1.979047060E-1
1.203070156E1;1.568187809E1;-3.658910751E1;4.169415951E0
1.204261406E1;9.418521881E0;-6.039302826E1;6.278075576E-1
1.205452500E1;-1.162498951E1;-7.845228577E1;-4.904445648E0
1.206643594E1;-1.814814377E1;-7.881701660E1;1.444584727E0
1.207835000E1;-8.992382050E0;-4.902430344E1;-6.836230755E0
1.209026094E1;-3.766979456E0;-2.349883270E1;-1.181444740E1
1.210217031E1;-1.930588484E0;-1.149962902E1;-1.000839520E1
1.211409063E1;-5.787360072E-1;-6.329033852E0;-6.793910980E0
1.212599375E1;-5.089498162E-1;-4.064195633E0;-5.412485123E0
1.213790469E1;-1.503980160E0;-2.946467638E0;-8.991185427E-1
1.214981719E1;-3.383734941E0;-2.171454906E0;4.379895210E0
1.216173594E1;-5.135361195E0;-1.234268427E0;7.264869690E0
1.217364062E1;-6.156076431E0;-4.301805794E-1;7.647291183E0
1.218555156E1;-5.247046471E0;1.504736543E0;7.433709145E0
1.219746406E1;-4.366199970E0;3.050078869E0;8.659386635E0
1.220937500E1;-3.429013968E0;4.438514709E0;1.035131168E1
1.222128594E1;-2.842674017E0;5.903469086E0;9.636174202E0
1.223319844E1;-3.624380827E0;7.577112198E0;8.441965103E0
1.224510938E1;-5.474610329E0;6.829833984E0;7.075564861E0
1.225702031E1;-4.274741650E0;5.667085171E0;3.504546165E0
1.226893281E1;-2.695899963E0;5.490785599E0;-4.080275059E0
1.228084375E1;-4.900356233E-1;2.263296366E0;-1.481723499E1
1.229275625E1;2.113170385E0;-6.043539524E0;-3.402876282E1
1.230466719E1;2.500514030E0;-8.268489838E0;-1.811765289E1
1.231657969E1;6.747147560E0;-9.293161392E0;-1.460032105E0
1.232849844E1;8.054458618E0;-4.643851280E0;1.745506287E1
1.234040156E1;3.595765352E0;-3.898095369E0;8.754675865E0
1.235231406E1;-9.422620386E-2;-5.590346336E0;5.036365986E0
1.236422500E1;-3.107156754E0;-8.146969795E0;8.667958260E0
1.237613594E1;-7.850865364E0;-1.461896706E1;1.213801861E1
1.238804844E1;-8.547425270E0;-2.264323807E1;1.266179276E1
1.239995938E1;-1.300773621E1;-3.236810303E1;1.069591427E1
1.241187188E1;-1.349722576E1;-3.311504745E1;7.594646931E0
1.242378281E1;-1.025766945E1;-3.097309685E1;4.551482677E0
1.243570000E1;-7.583911419E0;-3.089102554E1;3.774267435E0
1.244760625E1;-4.895051003E0;-2.952458572E1;2.092819691E0
1.245951875E1;-1.891189456E0;-2.825405121E1;2.826709509E0
1.247142969E1;1.530823827E0;-2.935644722E1;5.159092903E0
1.248334062E1;6.398120880E0;-3.209670639E1;1.248661423E1
1.249526094E1;1.398840141E1;-3.000898170E1;-4.563549519E0
1.250716406E1;1.691781235E1;-2.315920830E1;-1.225452042E1
1.251907656E1;1.570790768E1;-1.706460571E1;-1.627356148E1
1.253098906E1;1.230186844E1;-1.342599297E1;-1.739037132E1
1.254290000E1;8.850933075E0;-1.088466263E1;-1.528015900E1
1.255481406E1;7.048845768E0;-6.730024338E0;-1.045796871E1
1.256672188E1;7.193293095E0;-2.362952709E0;-5.943615437E0
1.257863438E1;8.640472412E0;-4.286099970E-1;-3.367023230E0
1.259054531E1;7.656177998E0;9.029013664E-2;-6.693038940E-1
1.260245781E1;5.901860237E0;1.814670801E0;6.098989248E-1
1.261437031E1;3.898699045E0;4.158201694E0;2.438848972E0
1.262628281E1;2.606030941E0;5.173563480E0;3.837809563E-1
1.263819219E1;3.354075432E0;5.037170410E0;-1.215861797E0
1.265010469E1;4.007606506E0;5.294096947E0;-1.135531664E0
1.266201562E1;5.191644669E0;5.369562626E0;-6.664116979E-1
1.267392656E1;6.819261074E0;5.217626572E0;-5.200206302E-3
1.268584062E1;8.706945419E0;4.996832848E0;4.760630727E-1
1.269775000E1;1.166439724E1;5.137276649E0;-1.862688735E-2
1.270966094E1;1.360356617E1;4.223275661E0;-9.734920263E-1
1.272157344E1;1.179382801E1;1.449344397E0;-2.330132723E0
1.273348906E1;8.470810890E0;-1.460204482E0;-3.077928305E0
1.274539688E1;8.338200569E0;-4.139344692E0;-3.503320217E0
1.275730781E1;1.131102276E1;-8.399779320E0;-3.130619764E0
1.276921875E1;1.693102646E1;-2.232193756E1;-1.714794278E0
1.278113125E1;2.070405960E1;-5.076476669E1;1.157981586E1
1.279304219E1;5.596819878E0;-7.743324280E1;-1.930713058E0
1.280495469E1;-1.918566704E1;-7.903071594E1;-3.124529123E-1
1.281686562E1;-1.619079971E1;-6.586681366E1;-4.968629360E0
1.282877656E1;-9.209507942E0;-3.418113708E1;-1.337061119E1
1.284068906E1;-5.748545647E0;-1.617119598E1;-1.432164574E1
1.285260000E1;-3.821845055E0;-7.638211727E0;-1.278990269E1
1.286451250E1;-2.886401653E0;-4.870667934E0;-1.088868523E1
1.287642344E1;-3.064894199E0;-4.372157097E0;-5.126732826E0
1.288833594E1;-3.775905132E0;-4.104495049E0;2.575969398E-1
1.290024688E1;-4.585767746E0;-2.748620033E0;5.756187439E0
1.291215781E1;-4.260797977E0;-5.776346922E-1;7.594436646E0
1.292406875E1;-3.363470316E0;1.327182651E0;8.308559418E0
1.293598125E1;-2.640871525E0;3.038107872E0;8.407162666E0
1.294789375E1;-1.950632691E0;4.312886238E0;8.704436302E0
1.295980469E1;-1.380429745E0;5.168861389E0;8.691354752E0
1.297171719E1;-1.287812352E0;6.349260330E0;7.957100391E0
1.298362813E1;-2.230620384E0;7.128984451E0;7.096203327E0
1.299553906E1;-2.164406300E0;7.212140083E0;4.762402534E0
1.300745156E1;-1.254389286E0;6.533201694E0;-1.161063313E0
1.301936250E1;-1.097099900E0;4.988692760E0;-8.303071976E0
1.303127500E1;1.601414442E0;-1.545677543E0;-1.666837502E1
1.304318594E1;5.666242123E0;-4.363288879E0;-2.033982658E1
1.305509844E1;7.219993114E0;-5.723721981E0;-1.372289419E0
1.306700938E1;9.321115494E0;-4.928444862E0;9.438910484E0
1.307892031E1;7.476526737E0;-2.795460463E0;7.325443268E0
1.309083281E1;2.117307425E0;-3.002673626E0;2.928089619E0
1.310274375E1;-2.035032988E0;-2.890433550E0;4.331091881E0
1.311465469E1;-1.352599502E0;-4.535901546E0;8.598297119E0
1.312656719E1;-3.078655958E0;-6.877104759E0;1.220205879E1
1.313847812E1;-5.357284546E0;-1.127515793E1;1.002523136E1
1.315039219E1;-9.752253532E0;-2.615365601E1;7.588709354E0
1.316230313E1;-1.300122356E1;-3.583856583E1;1.966271639E0
1.317421406E1;-1.316618443E1;-3.835202789E1;-1.433255315E0
1.318612969E1;-1.098026848E1;-3.819478607E1;-3.830339611E-1
1.319803750E1;-6.695767879E0;-3.457904434E1;5.166170120E0
1.320995312E1;-3.843392849E0;-2.978728676E1;7.181072712E0
1.322185938E1;-1.561201453E0;-2.636179924E1;5.987927437E0
1.323377188E1;1.161494255E0;-2.488283157E1;6.940110683E0
1.324568281E1;3.970189810E0;-2.711620140E1;1.968137360E1
1.325759375E1;1.247047710E1;-2.937441254E1;-1.132591486E0
1.326950625E1;1.799098778E1;-2.424877167E1;-1.305680752E1
1.328141719E1;1.867392921E1;-1.702589607E1;-2.133360100E1
1.329332812E1;1.477451324E1;-1.260310650E1;-2.561746979E1
1.330524063E1;1.089000702E1;-1.064269638E1;-1.977526283E1
1.331715156E1;7.370262623E0;-7.711541653E0;-7.654923916E0
1.332907031E1;4.874039173E0;-4.022134304E0;-1.553683758E0
1.334097500E1;5.127996922E0;-1.229757741E-1;-8.081292510E-1
1.335288750E1;5.192391396E0;1.478994131E0;5.228553414E-1
1.336479844E1;5.208451748E0;3.204811335E0;9.146425128E-1
1.337670938E1;5.266276360E0;4.944611073E0;6.046603918E-1
1.338862656E1;4.621182442E0;5.579792500E0;-8.594034910E-1
1.340053281E1;4.812556267E0;5.631190777E0;-1.283703804E0
1.341244375E1;5.635069847E0;5.979087830E0;-1.314330578E0
1.342435781E1;7.368471622E0;6.266267776E0;-1.053123116E0
1.343626875E1;1.001156521E1;6.267770767E0;-1.375401855E0
1.344818438E1;1.296930504E1;6.082593918E0;-2.438034773E0
1.346009219E1;1.276802826E1;4.675311089E0;-2.738775253E0
1.347200312E1;1.054589367E1;1.629244685E0;-3.323534966E0
1.348391406E1;9.250946045E0;-2.107740164E0;-2.496731043E0
1.349582656E1;9.938915253E0;-6.328382969E0;-1.341260552E0
1.350776719E1;1.058005333E1;-1.603607559E1;8.809512854E-1
1.351964844E1;1.383244228E1;-3.057752800E1;4.507132471E-1
1.353157344E1;8.600978851E0;-5.826093292E1;-1.048538685E1
1.354347188E1;-8.499272346E0;-7.769213104E1;-8.079195023E0
1.355538438E1;-1.858884048E1;-7.902994537E1;4.963180125E-1
1.356729531E1;-8.666176796E0;-5.810813522E1;-2.034573555E0
1.357920781E1;-2.026538372E0;-3.041436768E1;-7.165194511E0
1.359111875E1;-8.804053664E-1;-1.627536201E1;-9.030315399E0
1.360302969E1;2.355702966E-1;-8.510141373E0;-8.328058243E0
1.361494219E1;1.828700781E0;-3.963083744E0;-6.855758190E0
1.362685625E1;1.398548961E0;-1.854902983E0;-2.054962397E0
1.363876406E1;-7.377589345E-1;-4.055777490E-1;2.799291134E0
1.365067656E1;-3.498177767E0;4.724813402E-1;5.801543236E0
1.366258906E1;-3.907385111E0;1.901973009E0;7.564518452E0
1.367450000E1;-3.420385361E0;2.892569065E0;8.816149712E0
1.368641719E1;-3.703370333E0;3.531715631E0;1.046200085E1
1.369832344E1;-4.070583344E0;3.976395607E0;1.298863125E1
1.371023438E1;-3.210375547E0;5.208748341E0;1.290594387E1
1.372214531E1;-1.964538217E0;9.386764526E0;8.366470337E0
1.373405781E1;-3.924671173E0;8.481574059E0;3.942388296E0
1.374597031E1;-4.787302017E0;6.006103992E0;1.117546320E0
1.375788125E1;-3.879171848E0;5.367321491E0;-6.812624454E0
1.376979219E1;-2.043451071E0;4.598380566E0;-1.377872658E1
1.378170469E1;1.311696887E0;-2.610474586E0;-2.665731049E1
1.379361563E1;3.778174877E0;-8.748969078E0;-3.257899475E1
1.380552656E1;4.660352230E0;-1.120811081E1;-5.441015244E0
1.381743906E1;8.986185074E0;-6.347804070E0;2.369363213E1
1.382935000E1;7.704397678E0;-2.712266684E0;2.122907066E1
1.384126250E1;2.385994434E0;-4.374341011E0;1.000044632E1
1.385317344E1;-1.039342165E0;-5.982563972E0;8.944421768E0
1.386508438E1;-4.327442646E0;-7.656159401E0;8.170941353E0
1.387699688E1;-8.843299866E0;-1.217762756E1;9.014447212E0
1.388890781E1;-1.107996273E1;-1.651940727E1;1.032140350E1
1.390082031E1;-1.110138702E1;-2.061935425E1;1.110024738E1
1.391273125E1;-9.489140511E0;-2.577960587E1;8.122482300E0
1.392464375E1;-8.391150475E0;-3.308869171E1;5.045454502E0
1.393655625E1;-4.974959373E0;-3.785028076E1;1.720540404E0
1.394846562E1;-1.503635287E0;-4.101991272E1;2.194333822E-1
1.396037812E1;1.609324932E0;-4.115961456E1;9.258282185E-1
1.397228906E1;6.606675148E0;-3.803814697E1;3.187649727E0
1.398420000E1;9.219735146E0;-3.534717178E1;1.763908005E1
1.399611250E1;1.588102722E1;-3.119555664E1;7.561386585E0
1.400802344E1;1.942485809E1;-2.398736382E1;-9.452815056E0
1.401993594E1;1.637585068E1;-1.672121811E1;-2.831008339E1
1.403184844E1;1.379286194E1;-1.065210056E1;-3.332871628E1
1.404375938E1;1.030965233E1;-7.039335728E0;-2.339246178E1
1.405567031E1;7.627572060E0;-3.497086048E0;-6.582034111E0
1.406758281E1;7.666003704E0;-1.041707635E0;2.406728268E0
1.407949375E1;7.715132713E0;-1.953094006E-1;2.610800266E0
1.409140625E1;6.679315090E0;1.290857792E0;2.585910082E0
1.410332188E1;5.879699707E0;3.872161627E0;2.820120573E0
1.411522813E1;4.223764420E0;5.961983204E0;4.096478939E0
1.412714063E1;2.489577055E0;6.526009560E0;2.415557951E-1
1.413905156E1;3.796495199E0;6.195839882E0;-2.455991268E0
1.415096406E1;4.671662331E0;6.430059433E0;-2.753753424E0
1.416287812E1;6.037669182E0;6.408061504E0;-1.402992725E0
1.417479219E1;7.910384655E0;6.073189259E0;-1.101237014E-1
1.418669844E1;9.138170242E0;5.191194534E0;-3.744531423E-3
1.419860938E1;1.151543045E1;4.292784691E0;-2.898602486E0
1.421052188E1;1.233051300E1;2.428735495E0;-2.549489498E0
1.422243281E1;1.078219128E1;-6.232202649E-1;-2.665311575E0
1.423434531E1;9.992833138E0;-3.751081944E0;-1.889216661E0
1.424625625E1;1.142405796E1;-8.402087212E0;-9.896097183E-1
1.425816719E1;1.427755356E1;-1.989420700E1;-5.679333210E-1
1.427007969E1;1.660015106E1;-3.306246185E1;-1.344143152E0
1.428199531E1;1.307169914E1;-5.524240875E1;-1.056782436E1
1.429390313E1;-2.475327015E0;-7.706506348E1;-1.408232117E1
1.430581406E1;-1.758647537E1;-7.901527405E1;-8.264698029E0
1.431772500E1;-1.637118721E1;-6.644128418E1;-4.070813358E-1
1.432963594E1;-1.055884075E1;-3.559645462E1;-2.351910353E0
1.434155625E1;-5.366430759E0;-1.808346367E1;-7.068871021E0
1.435345938E1;-2.947262287E0;-9.267514229E0;-4.916186333E0
1.436537188E1;-1.540276170E0;-5.562410831E0;-3.171283007E0
1.437728281E1;-7.001891136E-1;-3.006370306E0;-3.462302983E-1
1.438919531E1;-6.324522942E-2;-6.235171556E-1;4.574352264E0
1.440110625E1;-2.553128958E0;1.966118515E-1;7.464920044E0
1.441301719E1;-4.745767593E0;7.198885679E-1;8.732171059E0
1.442492969E1;-4.872344017E0;1.964930892E0;8.812204361E0
1.443684219E1;-4.087371349E0;3.433974743E0;9.503563881E0
1.444875313E1;-3.771490335E0;4.378678799E0;1.171362209E1
1.446066406E1;-3.611021280E0;5.758945942E0;1.060235882E1
1.447258906E1;-2.813732862E0;9.356051445E0;7.468463421E0
1.448448906E1;-5.033205509E0;8.855031013E0;5.747415066E0
1.449639844E1;-6.522102356E0;7.003557205E0;3.096229553E0
1.450831094E1;-5.030811310E0;5.742320538E0;-1.401335835E0
1.452022656E1;-2.172900915E0;5.387490273E0;-1.149850750E1
1.453213438E1;1.148115516E0;-1.861252487E-1;-2.394735146E1
1.454404844E1;2.163209200E0;-5.450582027E0;-2.621447945E1
1.455595781E1;2.168122053E0;-7.923859596E0;-1.108950233E1
1.456786875E1;5.451970577E0;-6.846306324E0;3.498905420E0
1.457977969E1;6.390670300E0;-2.982236862E0;1.816779709E1
1.459169219E1;4.622791290E0;-1.662275195E0;9.717231750E0
1.460362344E1;-4.786105156E-1;-2.935569048E0;4.929718971E0
1.461551562E1;-1.334413052E0;-4.517887115E0;6.910221577E0
1.462742656E1;-4.976980686E0;-9.133132935E0;9.601514816E0
1.463933906E1;-9.408025742E0;-1.821038437E1;1.524338341E1
1.465125000E1;-8.869272232E0;-2.652323532E1;1.244019508E1
1.466316094E1;-1.186500263E1;-3.319767761E1;1.108807564E1
1.467507344E1;-1.359484196E1;-3.356411362E1;-3.386167288E-1
1.468698438E1;-9.620764732E0;-3.186961174E1;-9.340355396E-1
1.469890313E1;-4.027152538E0;-3.010634041E1;3.552995324E-1
1.471080938E1;1.276770234E0;-2.803089333E1;3.191566706E0
1.472272031E1;5.880561352E0;-2.715341759E1;8.868918419E0
1.473463125E1;9.760365486E0;-2.767924309E1;4.055030823E0
1.474654219E1;1.317228508E1;-2.671934700E1;2.326876670E-1
1.475845312E1;1.626382065E1;-2.449436951E1;-3.613807857E-1
1.477036875E1;1.922770882E1;-2.229320717E1;-1.452322751E-1
1.478227813E1;1.675681686E1;-2.214075470E1;-3.403606653E0
1.479418906E1;1.122733116E1;-2.012750816E1;-1.242848301E1
1.480610313E1;1.016938114E1;-1.442670345E1;-2.083719635E1
1.481801719E1;1.305529499E1;-7.842016220E0;-1.606256485E1
1.482992344E1;1.133500290E1;-3.685710669E0;-2.306640863E0
1.484183438E1;8.542693138E0;-9.644994140E-1;-2.755745411E0
1.485374688E1;8.457278252E0;2.767946005E0;-1.140715504E1
1.486565781E1;9.452825546E0;3.657497644E0;-3.986403227E0
1.487758125E1;7.407526016E0;3.176004410E0;2.904837132E-1
1.488948281E1;5.563081264E0;4.244488716E0;6.956018209E-1
1.490139219E1;2.939332724E0;5.491513252E0;-6.990302801E-1
1.491330469E1;1.974507689E0;5.205760956E0;-3.070611656E-1
1.492521563E1;2.692892790E0;5.067653179E0;-4.764078259E-1
1.493712813E1;3.406039238E0;5.095330715E0;-1.094514012E0
1.494903906E1;4.808342457E0;5.216199398E0;-7.943577766E-1
1.496095156E1;7.387529850E0;5.235123158E0;1.361630410E-1
1.497286250E1;1.012599850E1;4.894380569E0;-5.351902246E-1
1.498477500E1;1.073520756E1;2.903419733E0;-1.190933347E0
1.499668594E1;1.077791119E1;-6.817536950E-1;-1.119241476E0
1.500860781E1;1.132877827E1;-5.118765354E0;-4.692730904E-1
1.502051094E1;1.068685436E1;-1.553228855E1;2.923061848E0
1.503242031E1;1.171810436E1;-3.154792595E1;1.076356411E0
1.504433281E1;4.378592968E0;-5.782784271E1;2.866625547E0
1.505624375E1;-1.039415836E1;-7.821067810E1;-4.175124168E0
1.506815781E1;-1.466259861E1;-7.904566193E1;1.454036951E0
1.508006719E1;-6.496800423E0;-5.281698227E1;-5.856839657E0
1.509197812E1;-4.367406964E-1;-2.539802742E1;-1.717562866E1
1.510389063E1;-2.567829192E-1;-1.365695667E1;-2.045846367E1
1.511580313E1;-5.388868973E-2;-8.091079712E0;-1.522323418E1
1.512771406E1;1.206237197E0;-6.466097355E0;-1.106365395E1
1.513962500E1;1.445427537E0;-6.106440067E0;-3.965516329E0
1.515153594E1;-3.263105452E-1;-4.814662933E0;5.455159664E0
1.516344844E1;-2.934563398E0;-2.916290998E0;1.003176308E1
1.517536406E1;-2.813982010E0;-6.366565824E-1;1.152963257E1
1.518727031E1;-2.600581884E0;1.538494825E0;1.200276566E1
1.519918281E1;-1.490294814E0;3.765246153E0;1.324773979E1
1.521109375E1;-1.492679477E0;5.241625786E0;1.128255081E1
1.522300625E1;-1.453835964E0;6.594186783E0;9.769856453E0
1.523491719E1;-1.126261234E0;9.421988487E0;6.817287922E0
1.524682969E1;-2.510579109E0;8.700413704E0;4.247888088E0
1.525874063E1;-2.371610165E0;7.392461300E0;3.941430569E0
1.527065469E1;-2.003918171E0;5.534714222E0;-4.872678965E-2
1.528256406E1;-2.564017534E0;5.334290981E0;-1.358386707E1
1.529448125E1;-2.139851332E0;1.456143975E0;-1.966810799E1
1.530638750E1;-6.243311763E-1;-4.535805702E0;-7.489656925E0
1.531829844E1;6.974022388E-1;-5.577311993E0;-4.187382221E0
1.533020938E1;2.847883701E0;-6.862921715E0;-3.227948904E0
1.534212188E1;4.884688377E0;-5.583834171E0;4.105079174E0
1.535403438E1;3.741160393E0;-3.060939074E0;9.773897171E0
1.536594531E1;8.879615664E-1;-2.958275557E0;7.494646072E0
1.537785625E1;-9.038494229E-1;-4.824009895E0;8.421250343E0
1.538976719E1;-1.966501474E0;-7.076427460E0;1.213978958E1
1.540167969E1;-8.923151016E0;-1.598425579E1;1.361834335E1
1.541359219E1;-1.315965366E1;-2.682141876E1;9.451101303E0
1.542550625E1;-1.314352512E1;-3.593119049E1;1.026973629E1
1.543741406E1;-1.268256569E1;-4.003957367E1;4.411613464E0
1.544932656E1;-1.032969761E1;-4.235447311E1;7.452670932E-1
1.546123906E1;-5.805211544E0;-4.037324142E1;1.461037636E0
1.547314844E1;-2.007097483E0;-3.215457916E1;5.937629700E0
1.548506250E1;9.176400900E-1;-2.531678772E1;6.483507633E0
1.549697344E1;5.371219158E0;-2.201540184E1;6.752807617E0
1.550888438E1;1.126373196E1;-2.318348694E1;1.610783577E1
1.552079688E1;2.096327591E1;-2.366595459E1;-1.147674918E0
1.553270781E1;2.393742943E1;-1.975271797E1;-7.205962658E0
1.554462031E1;2.262690926E1;-1.586221886E1;-1.014127350E1
1.555652969E1;1.636456871E1;-1.370776272E1;-1.322161484E1
1.556844219E1;8.572027206E0;-1.456707001E1;-1.692320251E1
1.558035312E1;8.138360977E0;-9.955080986E0;-1.417085838E1
1.559226719E1;1.327577114E1;-3.268707752E0;-6.672697544E0
1.560417656E1;1.307061672E1;-1.718806982E0;-4.227126122E0
1.561609063E1;1.114271927E1;2.123752683E-1;-2.877361059E0
1.562800000E1;8.789219856E0;1.907872319E0;-1.478074789E0
1.563991094E1;6.848384380E0;3.740250826E0;-5.997188091E-1
1.565182344E1;3.780760527E0;5.114665985E0;-1.772322178E0
1.566373438E1;2.524350643E0;4.447535992E0;-9.131485224E-1
1.567564531E1;1.974124670E0;3.678729296E0;-4.288781285E-1
1.568755781E1;1.800583363E0;3.186720610E0;-4.486829937E-1
1.569947031E1;2.190943718E0;3.229021549E0;-3.641963899E-1
1.571138125E1;3.295158863E0;3.691131115E0;5.391550660E-1
1.572329219E1;4.431092739E0;4.074845314E0;1.311917186E0
1.573520469E1;5.849954128E0;4.365673542E0;1.842184901E0
1.574711563E1;7.824481010E0;4.401251316E0;1.399908900E0
1.575902656E1;1.032131767E1;3.651655436E0;-6.173018217E-1
1.577093906E1;1.081020451E1;6.178955734E-2;-8.211920261E-1
1.578285000E1;1.254281044E1;-2.967335224E0;-8.644600511E-1
1.579476094E1;1.092943478E1;-1.045212650E1;-1.895537376E-1
1.580667344E1;9.524258614E0;-2.664382553E1;1.902221918E0
1.581858438E1;8.309556007E0;-4.624494553E1;-1.620548964E0
1.583050313E1;-7.310187340E0;-7.574971771E1;4.192362309E0
1.584240938E1;-2.420696831E1;-7.899839783E1;-9.860931396E0
1.585432031E1;-1.797049332E1;-6.378211594E1;-1.450572109E1
1.586623125E1;-9.160904884E0;-3.144037819E1;-1.936000443E1
1.587814219E1;-5.518893719E0;-1.553486443E1;-1.552632141E1
1.589006563E1;-3.372845888E0;-9.828035355E0;-1.036129093E1
1.590197188E1;-2.704461336E0;-9.296014786E0;-6.826817513E0
1.591387813E1;-2.285868883E0;-8.893366814E0;1.248049438E-1
1.592578906E1;-6.382654309E-1;-6.447268963E0;6.042179585E0
1.593770156E1;-1.704710007E0;-3.185964108E0;8.314870834E0
1.594961250E1;-3.321926117E0;-8.507460356E-1;9.045122147E0
1.596152500E1;-2.394718647E0;1.330170512E0;8.269965172E0
1.597343906E1;-1.784877300E0;2.739397764E0;8.409259796E0
1.598534688E1;-1.198968410E0;3.972469091E0;9.118345261E0
1.599725938E1;-1.086373806E0;5.142055511E0;9.972376823E0
1.600917188E1;-9.565601945E-1;6.414027691E0;1.170767498E1
1.602108281E1;-1.814038754E0;8.387894630E0;1.311935329E1
1.603299375E1;-2.097703934E0;8.867625237E0;1.211740875E1
1.604490625E1;-1.780855060E0;7.228726864E0;5.148328781E0
1.605681719E1;-1.357455015E0;6.296386719E0;-4.948536873E0
1.606873750E1;-4.308691502E0;5.457984924E0;-1.999857712E1
1.608064062E1;-3.748888969E0;-1.731754780E0;-1.923339844E1
1.609255156E1;-1.015524566E-1;-6.132124901E0;-1.580598354E1
1.610446406E1;4.509124279E0;-6.880265236E0;-8.685301781E0
1.611637500E1;7.907646179E0;-6.461883068E0;3.467167854E0
1.612829375E1;8.801334381E0;-4.767037392E0;7.378288269E0
1.614019844E1;5.316669464E0;-3.418173075E0;5.022518158E0
1.615210938E1;2.986776114E0;-5.427875519E0;5.328976154E0
1.616402188E1;9.603909254E-1;-8.201127052E0;7.251797199E0
1.617593281E1;-3.217701674E0;-1.011787701E1;9.043867111E0
1.618784531E1;-1.249860477E1;-1.932697296E1;3.536149740E0
1.619976250E1;-1.473689556E1;-1.813105011E1;1.989283752E1
1.621166719E1;-1.459164429E1;-2.068633461E1;9.019514084E0
1.622357969E1;-1.105750561E1;-2.630267143E1;2.020725250E0
1.623549062E1;-8.193341255E0;-3.345344162E1;1.707286119E0
1.624740469E1;-7.122127533E0;-3.928197098E1;4.230161667E0
1.625931406E1;-2.806569338E0;-3.637850952E1;6.478805542E0
1.627122500E1;1.451384306E0;-3.083024025E1;6.819002628E0
1.628313750E1;4.007338047E0;-2.847400284E1;6.511548996E0
1.629504844E1;6.761484146E0;-3.031320000E1;2.381506729E1
1.630696094E1;1.507222748E1;-2.984724808E1;1.452552557E0
1.631887188E1;1.763562393E1;-2.461259460E1;-7.509528160E0
1.633078438E1;1.729253387E1;-1.887229538E1;-1.145665741E1
1.634269531E1;1.385817623E1;-1.443513107E1;-1.793947601E1
1.635460625E1;9.826502800E0;-1.271104717E1;-1.965814781E1
1.636651875E1;6.858544827E0;-1.179103088E1;-1.533332062E1
1.637843594E1;5.915258408E0;-8.293084145E0;-4.488716125E0
1.639034062E1;6.950903893E0;-2.840883017E0;-2.429090023E0
1.640225312E1;8.697857857E0;9.077951312E-1;-3.501883745E0
1.641416406E1;8.550987244E0;1.634071469E0;-8.588288426E-1
1.642607656E1;7.644667149E0;3.137266159E0;-5.074749887E-2
1.643798750E1;6.005107880E0;5.001439571E0;-1.702009320E0
1.644990000E1;4.949466228E0;4.574160576E0;-6.023811176E-3
1.646181094E1;4.502966881E0;4.322549343E0;3.313766718E-1
1.647372188E1;4.073925972E0;4.232134819E0;2.680548131E-1
1.648563438E1;5.188158512E0;4.729946613E0;-4.350551665E-1
1.649754688E1;6.726720333E0;5.275719166E0;-4.131434485E-2
1.650945781E1;7.902809620E0;5.625607967E0;5.030696988E-1
1.652136875E1;9.351090431E0;5.318709373E0;-1.514801860E0
1.653328125E1;1.040309334E1;4.311066628E0;-2.922831774E0
1.654519219E1;1.142162514E1;3.200358152E0;-2.385448456E0
1.655710469E1;1.127031136E1;2.525499761E-1;-2.474560738E0
1.656901563E1;1.184366608E1;-3.801733732E0;-2.153977156E0
1.658092656E1;1.354352093E1;-1.139393806E1;-1.182994246E0
1.659283906E1;1.593474293E1;-2.667764091E1;-2.327738702E-1
1.660475469E1;1.619465828E1;-4.560497284E1;-1.500293016E0
1.661666406E1;3.460981369E0;-7.290092468E1;-1.006929398E1
1.662857344E1;-1.847078705E1;-7.891783905E1;-6.564537048E0
1.664048594E1;-1.865314865E1;-7.304967499E1;-2.594462395E0
1.665239688E1;-1.099476719E1;-4.287064362E1;-8.689898491E0
1.666430781E1;-4.362743378E0;-2.204536819E1;-9.725745201E0
1.667621875E1;-2.121760845E0;-1.141246986E1;-9.415054321E0
1.668813125E1;-1.266417742E0;-7.457669735E0;-7.115979671E0
1.670004375E1;-1.724974364E-1;-5.791238785E0;-2.199457169E0
1.671195469E1;-9.053242803E-1;-4.403789043E0;2.318372488E0
1.672387188E1;-2.219463348E0;-2.570271254E0;4.724918842E0
1.673577656E1;-3.380047798E0;-3.165326118E-1;7.865728378E0
1.674768906E1;-3.258240461E0;1.671056986E0;8.292797089E0
1.675960000E1;-2.786534786E0;3.294536352E0;7.909992218E0
1.677151250E1;-2.123187780E0;4.314246178E0;8.244539261E0
1.678342500E1;-2.567800522E0;4.886919975E0;8.882307053E0
1.679533438E1;-2.389221668E0;5.362926006E0;8.710134506E0
1.680724688E1;-2.426619053E0;6.142659664E0;7.238322735E0
1.681915938E1;-2.939505100E0;7.214026451E0;5.166648865E0
1.683107031E1;-2.417894840E0;6.696400166E0;2.935252905E0
1.684298125E1;-2.570050955E0;6.648209572E0;-9.379820824E0
1.685489219E1;2.684091628E-1;7.217981815E0;-2.328257751E1
1.686680469E1;2.813455105E0;-3.426198363E-1;-1.494951916E1
1.687871562E1;3.903027534E0;-4.123744011E0;-1.256180191E1
1.689062813E1;5.507190228E0;-6.634246349E0;-1.008137989E1
1.690253906E1;8.058729172E0;-5.956170559E0;6.233486176E0
1.691445000E1;6.611616611E0;-3.074470997E0;1.109589958E1
1.692636719E1;1.773567080E0;-3.483429432E0;6.100588799E0
1.693827500E1;-2.092158794E0;-3.894207239E0;6.657020569E0
1.695018594E1;-2.826671124E0;-5.683135509E0;1.047529316E1
1.696209688E1;-4.468892574E0;-9.338257790E0;1.651874542E1
1.697400938E1;-7.480386257E0;-1.094485378E1;1.385261154E1
1.698592031E1;-1.012641048E1;-2.027147675E1;1.609851646E1
1.699783281E1;-9.868477821E0;-3.134781075E1;8.654704094E0
1.700974375E1;-9.520170212E0;-3.973965836E1;2.406689882E0
1.702165625E1;-8.152295113E0;-4.573500061E1;2.379845858E0
1.703356875E1;-7.085094452E0;-4.597556686E1;3.943298101E0
1.704547969E1;-2.334624290E0;-3.921146011E1;3.250588417E0
1.705739062E1;1.941506028E0;-3.126957703E1;2.887292147E0
1.706930156E1;5.469391346E0;-2.487944412E1;5.628279686E0
1.708121875E1;1.162810135E1;-2.226036644E1;-8.976466179E0
1.709312500E1;1.570799351E1;-1.789626503E1;-1.776397133E1
1.710503750E1;1.475893211E1;-1.363110924E1;-1.377590179E1
1.711694844E1;9.600432396E0;-1.103920364E1;-5.851486206E0
1.712885938E1;6.465675831E0;-1.066899395E1;1.598780870E0
1.714077188E1;7.082096577E0;-9.697157860E0;1.525709867E0
1.715268438E1;8.783818245E0;-6.278803825E0;-3.497392416E0
1.716459531E1;1.178133011E1;-1.410749912E0;-1.017528057E1
1.717650625E1;1.433287907E1;1.849137664E0;-9.006162643E0
1.718841719E1;1.087741375E1;1.650093436E0;-2.432432413E0
1.720033594E1;7.960969925E0;2.371054411E0;5.305933952E-1
1.721224062E1;7.688720226E0;5.429771423E0;-5.502545834E-1
1.722415312E1;6.199766159E0;6.937592506E0;-2.174576998E0
1.723606406E1;5.651618481E0;5.930993080E0;-1.101782799E0
1.724797500E1;5.198904037E0;5.566001892E0;-1.668490529E0
1.725988750E1;6.435633183E0;5.812556744E0;-2.548618078E0
1.727179844E1;8.958930969E0;5.863945961E0;-5.191874504E0
1.728371094E1;9.702760696E0;5.062855244E0;-3.733336210E0
1.729562188E1;9.352451324E0;3.711654186E0;-2.325325251E0
1.730753281E1;8.703631401E0;2.035416365E0;-1.853322744E0
1.731944531E1;8.209631920E0;-8.615678549E-1;-2.110125065E0
1.733135781E1;9.927059174E0;-4.729448795E0;-1.696866512E0
1.734326719E1;1.450732994E1;-1.451046181E1;-5.081453323E-1
1.735518125E1;1.891546631E1;-3.274125290E1;5.295265675E0
1.736709062E1;1.884623718E1;-5.810271454E1;1.091478229E0
1.737900312E1;-3.585546970E0;-7.839346313E1;-1.946859479E0
1.739091562E1;-1.478281593E1;-7.904916382E1;-1.935884356E0
1.740282656E1;-7.411605358E0;-5.604035950E1;-9.524737358E0
1.741473750E1;-2.687845707E0;-2.740506554E1;-1.252638626E1
1.742665000E1;1.218552962E-1;-1.427310085E1;-1.167366791E1
1.743856094E1;7.661157846E-1;-8.353896141E0;-1.088362885E1
1.745047500E1;1.212960124E0;-5.608178139E0;-6.701246262E0
1.746238438E1;-3.477051258E-1;-4.974691391E0;-1.016798258E0
1.747429531E1;-2.439021349E0;-3.891669512E0;6.035303593E0
1.748620781E1;-4.599931717E0;-2.226397038E0;9.402422905E0
1.749812812E1;-5.216506004E0;-1.470997483E-1;1.063379860E1
1.751003125E1;-4.803027153E0;1.737452984E0;1.052832985E1
1.752194219E1;-3.752403498E0;3.873712778E0;1.015432644E1
1.753385312E1;-3.376140356E0;5.406518936E0;9.798701286E0
1.754576562E1;-3.769948244E0;6.461921692E0;1.007754040E1
1.755767813E1;-4.767257690E0;7.615179539E0;1.086740589E1
1.756958750E1;-5.898479939E0;7.558992863E0;1.022344208E1
1.758150000E1;-4.741122723E0;9.059717178E0;6.477350235E0
1.759341250E1;-3.305616856E0;7.220193863E0;1.620510578E0
1.760532344E1;-2.351881742E0;8.015605927E0;-3.519896698E1
1.761723438E1;2.609574556E0;2.884859800E0;-3.367908096E1
1.762914531E1;2.039696932E0;-5.419054985E0;-1.281529045E1
1.764105781E1;3.563175440E0;-8.510286331E0;-1.385872173E1
1.765296875E1;4.200981617E0;-9.278172493E0;-2.218275785E0
1.766488125E1;6.138110638E0;-7.646227837E0;1.250395775E1
1.767679219E1;7.826569080E0;-3.134651661E0;1.704857445E1
1.768870469E1;4.908343315E0;-1.508950472E0;1.160732937E1
1.770061562E1;-2.927821279E-1;-3.189747095E0;8.883723259E0
1.771252813E1;-1.961540818E0;-5.801380157E0;1.071281719E1
1.772443906E1;-6.827995300E0;-1.103998089E1;1.306519699E1
1.773635000E1;-9.348609924E0;-1.891008568E1;1.416091824E1
1.774826250E1;-1.006422710E1;-2.953342628E1;1.432749748E1
1.776017344E1;-1.066292191E1;-3.610020447E1;-2.566143751E0
1.777208438E1;-1.062590694E1;-3.791468430E1;-7.525598526E0
1.778399688E1;-8.922126770E0;-4.045517349E1;-2.026749134E0
1.779591250E1;-4.375997543E0;-3.809402847E1;4.426170349E0
1.780782188E1;1.113437891E0;-3.151945496E1;8.087574959E0
1.781973125E1;4.883577824E0;-2.674036026E1;7.858430862E0
1.783164219E1;6.824624062E0;-2.667153168E1;1.555616283E1
1.784355469E1;1.230495262E1;-2.860471535E1;6.066533566E0
1.785546562E1;1.797038841E1;-2.485899544E1;-4.243157864E0
1.786737656E1;1.976627159E1;-1.797814560E1;-7.959552288E0
1.787928906E1;1.671010208E1;-1.294236565E1;-1.264270687E1
1.789120000E1;1.139505005E1;-9.473865509E0;-1.795180130E1
1.790311250E1;4.553005219E0;-9.899142265E0;-2.209709358E1
1.791502656E1;2.727033854E0;-7.778330803E0;-1.300051594E1
1.792693594E1;7.343955040E0;-3.113477230E0;-1.618374944E0
1.793884688E1;1.047445011E1;-1.572607458E-1;-1.641560435E0
1.795075938E1;1.146542931E1;1.017334580E0;4.312244654E-1
1.796267031E1;9.793166161E0;2.183751583E0;2.442545414E0
1.797458438E1;8.333642006E0;4.570368290E0;1.103104472E0
1.798649375E1;6.174933434E0;5.804176807E0;-1.453653932E0
1.799840469E1;5.519659519E0;5.384971142E0;-2.875819504E-1
1.801031719E1;5.094172001E0;5.029030323E0;-1.475115567E-1
1.802222812E1;5.577953815E0;5.236818314E0;-3.066014647E-1
1.803414219E1;6.389128208E0;5.435977459E0;-4.565359354E-1
1.804605312E1;7.071580887E0;5.183303356E0;1.572511792E-1
1.805796406E1;7.495182514E0;4.341262341E0;-9.389867783E-1
1.806987500E1;7.698153496E0;3.146747112E0;-2.665675640E0
1.808178594E1;7.839133263E0;2.226186275E0;-2.544500113E0
1.809369844E1;7.237221718E0;1.742500067E-1;-2.348347902E0
1.810560938E1;7.363434792E0;-2.582328558E0;-2.500571251E0
1.811752188E1;1.018792152E1;-7.139155388E0;-1.958332539E0
1.812943281E1;1.535079765E1;-2.069144821E1;-1.342725873E0
1.814134531E1;1.834970665E1;-4.372114944E1;3.460492849E0
1.815325625E1;7.688193321E0;-7.193265533E1;-7.505382061E0
1.816516719E1;-1.400532341E1;-7.892281342E1;-9.590836525E0
1.817707969E1;-1.832595634E1;-7.163134003E1;-3.575232744E0
1.818899063E1;-1.199879074E1;-4.471303940E1;-1.938690424E0
1.820090312E1;-5.013726711E0;-2.453221703E1;-2.390897751E0
1.821281406E1;-3.421620607E0;-1.379463387E1;-3.621670723E0
1.822472500E1;-3.242630243E0;-8.905731201E0;-3.132774591E0
1.823663750E1;-2.505828857E0;-6.580597878E0;-2.601874828E0
1.824854844E1;-2.974738121E0;-4.816252708E0;-4.806024730E-1
1.826045938E1;-4.394202709E0;-2.944159508E0;3.337900341E-1
1.827237344E1;-4.723213673E0;-7.948175073E-1;-1.200452745E-1
1.828428594E1;-5.309994698E0;1.121578097E0;1.442046881E0
1.829619531E1;-5.074213505E0;2.445303440E0;3.357254982E0
1.830810625E1;-4.076703072E0;3.336818218E0;4.088444233E0
1.832001875E1;-3.458912849E0;3.661280155E0;4.444624901E0
1.833193906E1;-2.786525249E0;3.826863289E0;4.356364727E0
1.834384063E1;-2.482021093E0;4.142572403E0;3.886727810E0
1.835575312E1;-3.119941711E0;5.478039265E0;1.962747455E0
1.836766406E1;-3.888202667E0;6.499060631E0;-1.150979042E0
1.837957656E1;-3.192744732E0;6.296692848E0;-8.831827044E-1
1.839148750E1;-7.725131512E-1;5.779842377E0;-1.753264308E0
1.840339844E1;2.326771498E0;1.960707545E0;-3.630538702E0
1.841531094E1;3.424321175E0;-2.713367939E0;-8.760806084E0
1.842722344E1;5.874757767E0;-5.564939022E0;-1.593581676E1
1.843913438E1;7.553323269E0;-7.247315407E0;-1.980196238E0
1.845104531E1;8.630733490E0;-5.373440742E0;1.104209709E1
1.846295781E1;7.165730953E0;-3.569812298E0;5.172280312E0
1.847486875E1;3.071933031E0;-4.826854706E0;2.615368366E0
1.848678125E1;7.781155407E-2;-6.054361343E0;8.065577507E0
1.849869375E1;-2.430938244E0;-7.996901989E0;1.181556702E1
1.851060938E1;-5.576699257E0;-2.181562996E1;9.098885536E0
1.852251719E1;-1.359117508E1;-3.668319321E1;7.513685226E0
1.853442812E1;-1.765636444E1;-3.822069931E1;7.946968079E0
1.854633906E1;-1.215398312E1;-3.160393143E1;2.032763481E0
1.855825000E1;-9.093982697E0;-3.188611412E1;-2.752278566E0
1.857016562E1;-4.796945572E0;-2.909325790E1;-1.681237221E0
1.858207500E1;-3.203460932E0;-2.443237877E1;7.472973466E-1
1.859398438E1;-8.550651670E-1;-2.110298157E1;4.754357815E0
1.860589844E1;2.277996778E0;-2.057133675E1;5.703285217E0
1.861780781E1;6.452833652E0;-2.354125595E1;8.057762146E0
1.862972031E1;1.069332790E1;-2.454456139E1;-1.201860428E0
1.864163125E1;1.250237751E1;-2.329524803E1;-5.112616539E0
1.865354219E1;1.278909779E1;-2.008983231E1;-3.746034861E0
1.866545469E1;1.066919518E1;-1.666851044E1;-5.435048103E0
1.867736562E1;9.045226097E0;-1.274186516E1;-1.245569992E1
1.868929688E1;7.712537766E0;-7.850060463E0;-2.165690422E1
1.870118906E1;7.482426167E0;-3.661414385E0;-1.761732292E1
1.871310156E1;6.387088299E0;-1.569629073E0;-6.587378025E0
1.872501250E1;5.779535770E0;2.492842823E-2;-4.832456708E-1
1.873693438E1;6.070335388E0;2.973311245E-1;1.665722728E0
1.874883438E1;5.172490597E0;1.028175592E0;1.617331147E0
1.876074688E1;3.937791586E0;2.667724848E0;2.633487701E0
1.877265938E1;2.415289879E0;3.598944902E0;1.800525904E0
1.878457031E1;3.111102343E0;3.734973907E0;1.083998829E-1
1.879648281E1;4.238349915E0;4.242018223E0;-3.757939115E-2
1.880839375E1;5.969252586E0;4.696379662E0;-2.919968367E-1
1.882030469E1;7.521106720E0;4.811301708E0;-1.969949156E-1
1.883221562E1;9.497386932E0;4.954349995E0;-1.529799104E-1
1.884412812E1;1.108680058E1;4.853027821E0;-6.102341413E-2
1.885603906E1;1.135817909E1;3.426667690E0;-1.545859337E0
1.886797031E1;9.678933144E0;1.001944661E0;-2.538007021E0
1.887986250E1;7.341015339E0;-1.311898112E0;-2.186806440E0
1.889177344E1;7.124493122E0;-3.671154022E0;-2.401144743E0
1.890368594E1;8.944143295E0;-7.245400429E0;-2.514141560E0
1.891559688E1;1.157089901E1;-1.625492477E1;-2.188740969E0
1.892751719E1;1.293994236E1;-3.418276596E1;6.511261463E0
1.893942031E1;8.349874496E0;-5.663180542E1;-1.580929637E0
1.895133281E1;-8.698948860E0;-7.677783966E1;-7.527121067E0
1.896324375E1;-1.980751801E1;-7.768156433E1;-6.490833759E0
1.897515625E1;-1.464771652E1;-4.902253342E1;-1.033670712E1
1.898707344E1;-6.817518234E0;-2.662833977E1;-1.032579041E1
1.899898125E1;-2.825761318E0;-1.532203770E1;-3.601942301E0
1.901089063E1;-1.646253020E-1;-1.049116230E1;-7.499406338E-1
1.902280156E1;-4.283131063E-1;-8.838492393E0;4.031739831E-1
1.903471406E1;-1.035310268E0;-7.670725822E0;3.146737576E0
1.904663750E1;-2.822112560E0;-6.474936485E0;5.324618340E0
1.905853594E1;-4.694243908E0;-4.650880337E0;3.382164240E0
1.907044844E1;-5.188665867E0;-2.413374424E0;9.873496294E-1
1.908235938E1;-5.344126701E0;-2.432413250E-1;4.027813375E-1
1.909427188E1;-4.531151295E0;1.754605055E0;5.721759200E-1
1.910618594E1;-3.700430155E0;3.422453880E0;9.765278101E-1
1.911809531E1;-2.560531855E0;4.712708473E0;7.614519000E-1
1.913000625E1;-2.271886826E0;5.007568836E0;1.057155013E0
1.914191875E1;-2.465644836E0;5.073792458E0;1.995538354E0
1.915382969E1;-3.427309275E0;4.887676716E0;3.385860920E0
1.916574062E1;-3.480173349E0;4.850193024E0;4.800910473E0
1.917765313E1;-1.383676171E0;4.613780022E0;2.802077770E0
1.918956406E1;2.004923820E0;1.642259479E0;-2.102635860E0
1.920147656E1;6.923916340E0;-3.034200430E0;-1.238312721E1
1.921338750E1;1.089876080E1;-4.099438667E0;-8.613810539E0
1.922532031E1;1.026510143E1;-4.698094368E0;2.637720585E0
1.923720938E1;7.558629036E0;-3.105241299E0;5.253577709E0
1.924912188E1;5.659739971E0;-2.399650812E0;1.654278398E0
1.926103438E1;6.898173690E-1;-3.525088549E0;1.542833090E0
1.927294531E1;-1.147694111E0;-3.846476555E0;4.605141640E0
1.928486094E1;3.652402759E-1;-7.630234718E0;1.248140430E1
1.929676875E1;-1.382833481E0;-2.625776482E1;6.720686913E0
1.930867969E1;-9.328307152E0;-4.262557220E1;2.671469450E0
1.932059062E1;-1.485720921E1;-3.309587479E1;-1.646827579E0
1.933250313E1;-1.053802109E1;-2.135958481E1;-4.780722618E0
1.934441406E1;-8.071515083E0;-1.921832466E1;-5.851457596E0
1.935632656E1;-7.997907162E0;-2.195669746E1;-2.388378859E0
1.936823750E1;-8.866217613E0;-2.391076851E1;2.844656467E0
1.938014844E1;-6.485662460E0;-2.305802917E1;5.885771275E0
1.939206094E1;-2.683861732E0;-2.179070282E1;5.717937946E0
1.940397813E1;-4.813207388E-1;-2.178363419E1;5.447900295E0
1.941588438E1;6.719758511E-1;-2.392119789E1;1.058089638E1
1.942779688E1;4.869356155E0;-2.640757561E1;6.839784145E0
1.943970781E1;8.841231346E0;-2.492689705E1;-3.620473385E0
1.945161875E1;9.598067284E0;-2.142527962E1;-2.997655630E0
1.946353125E1;9.918794632E0;-1.743064117E1;-1.332861662E0
1.947544531E1;9.720124245E0;-1.367194557E1;-7.058498859E0
1.948735313E1;9.483700752E0;-9.016180992E0;-1.903518677E1
1.949926562E1;9.951642990E0;-3.854932785E0;-2.889707565E1
1.951117656E1;9.489638329E0;-2.309245825E0;-1.239371872E1
1.952309531E1;9.066018105E0;-7.403925061E-1;-1.578612089E0
1.953500000E1;8.870354652E0;8.887180686E-1;2.051677704E0
1.954691094E1;7.985017300E0;1.872332811E0;3.235773087E0
1.955882344E1;5.404288292E0;3.534502506E0;1.918052435E0
1.957073438E1;3.816932201E0;4.272252083E0;3.218381703E-1
1.958264688E1;3.697902203E0;4.348942757E0;1.556422561E-1
1.959455781E1;4.946545601E0;4.736611843E0;-1.818061024E-1
1.960647031E1;6.674842834E0;5.094870567E0;-1.327345371E-1
1.961838125E1;8.390642166E0;5.137334347E0;4.445936978E-1
1.963029219E1;1.074059010E1;5.385478973E0;8.944258690E-1
1.964220469E1;1.211375141E1;4.870112896E0;1.018311501E0
1.965411563E1;1.170777035E1;2.249793053E0;-2.396308631E-1
1.966602812E1;9.578539848E0;-9.701496363E-1;-7.482933998E-1
1.967793906E1;9.057427406E0;-3.821098089E0;-1.156590939E0
1.968985000E1;1.019929028E1;-8.107868195E0;-1.319272161E0
1.970178750E1;1.074488926E1;-1.857296371E1;-2.272537947E0
1.971367500E1;8.973879814E0;-3.577062988E1;2.316763639E0
1.972558594E1;2.008850098E0;-5.461576080E1;3.344211340E0
1.973749688E1;-1.059418011E1;-7.539570618E1;-2.365595818E0
1.974940781E1;-1.883854675E1;-7.630724335E1;-9.610526085E0
1.976132031E1;-1.604079628E1;-5.004571915E1;-1.631769180E1
1.977323281E1;-1.030899239E1;-2.617005157E1;-1.463922215E1
1.978514375E1;-5.904762268E0;-1.469981480E1;-7.929241657E0
1.979705469E1;-2.874670267E0;-1.126340675E1;-5.283179760E0
1.980896563E1;-2.309178829E0;-9.658487320E0;-9.523177147E-1
1.982088125E1;-2.046573162E0;-8.381621361E0;1.643322587E0
1.983278906E1;-2.829256773E0;-6.709414959E0;3.549921036E0
1.984470000E1;-3.874488831E0;-4.532779217E0;3.690326691E0
1.985661250E1;-4.257800102E0;-2.092637777E0;2.164990425E0
1.986852344E1;-4.328534603E0;1.695382148E-1;2.413048744E0
1.988044063E1;-3.658732891E0;1.959730744E0;2.932724714E0
1.989234688E1;-2.906197071E0;3.211361885E0;3.289824724E0
1.990425781E1;-2.102300644E0;3.863944530E0;3.498599052E0
1.991617188E1;-1.325525880E0;4.631295681E0;4.489195347E0
1.992808281E1;-1.333675623E0;5.513836861E0;5.717909336E0
1.994000156E1;-1.599633217E0;6.076043606E0;7.758372307E0
1.995190781E1;-1.765005440E-1;6.205713272E0;4.746131420E0
1.996381719E1;2.375718594E0;6.113411903E0;-1.581533074E0
1.997572812E1;5.487136841E0;3.824612856E0;-8.458695412E0
1.998764062E1;7.556952953E0;-2.422252178E0;-1.670215225E1
1.999955156E1;8.386907578E0;-4.864998341E0;-8.182069778E0
2.001146719E1;8.160732269E0;-5.610380650E0;-1.978702426E0
2.002337500E1;8.357775688E0;-4.607354164E0;2.674649000E0
2.003528594E1;6.137220383E0;-2.793190718E0;3.221570730E0
2.004719844E1;2.843229532E0;-3.315998077E0;2.142504215E0
2.005910938E1;-4.419696331E-1;-3.822419643E0;4.124204159E0
2.007102188E1;-5.504460931E-1;-7.594120502E0;9.776933670E0
2.008293281E1;-2.111159086E0;-8.934537888E0;1.126715183E1
2.009484531E1;-9.321968079E0;-2.951446533E1;8.304747581E0
2.010675625E1;-1.871467018E1;-3.980728149E1;-8.527954817E-1
2.011867188E1;-2.067384529E1;-3.490921402E1;2.741552293E-1
2.013057969E1;-1.657411003E1;-3.093183136E1;4.189852774E-1
2.014249062E1;-1.257860947E1;-2.972803688E1;5.887820944E-2
2.015440156E1;-8.611618042E0;-2.486717606E1;1.536273122E0
2.016631406E1;-5.633853436E0;-2.108108902E1;3.998211384E0
2.017822500E1;-2.145760298E0;-1.947861099E1;4.493590832E0
2.019013594E1;9.233191013E-1;-1.987182617E1;4.997618198E0
2.020204844E1;5.252744675E0;-2.337303925E1;8.466175079E0
2.021395938E1;8.936951637E0;-2.452620316E1;-1.814508080E0
2.022587188E1;9.255064011E0;-2.341948700E1;-5.921061993E0
2.023779688E1;8.898452759E0;-2.076387787E1;-3.393838406E0
2.024970000E1;7.625034332E0;-1.775173187E1;-1.215363741E0
2.026160625E1;6.893730640E0;-1.438571358E1;-4.712095261E0
2.027351875E1;6.987774372E0;-1.092170620E1;-8.807587624E0
2.028542969E1;7.161287308E0;-6.995761871E0;-1.167237473E1
2.029734844E1;8.000282288E0;-2.919250250E0;-1.300872231E1
2.030925312E1;9.685857773E0;6.875764132E-1;-1.160491562E1
2.032116406E1;1.014012432E1;1.512426734E0;-5.222836018E0
2.033307656E1;8.438220978E0;9.975489378E-1;-2.725271881E-1
2.034498750E1;6.659979343E0;1.941860318E0;1.052653909E0
2.035690781E1;5.782217503E0;3.618864536E0;1.686561942E0
2.036881094E1;2.373889446E0;4.780292034E0;-1.129239678E0
2.038072500E1;3.464266062E0;4.456768036E0;7.277320027E-1
2.039263281E1;4.476084709E0;4.180180073E0;6.635482311E-1
2.040454531E1;5.777965546E0;4.050787926E0;-5.783433467E-2
2.041645781E1;7.351204395E0;3.871357203E0;-5.440583825E-2
2.042839219E1;9.078726768E0;3.767975569E0;-3.031633794E-1
2.044028125E1;9.829078674E0;3.397372246E0;-6.669766903E-1
2.045219219E1;9.253751755E0;9.264411330E-1;-1.713836670E0
2.046410312E1;9.016534805E0;-2.467253685E0;-2.230515003E0
2.047603594E1;1.059258938E1;-6.183456898E0;-2.022458792E0
2.048792656E1;1.204422379E1;-1.510314178E1;-1.833115697E0
2.049983906E1;1.274960232E1;-2.787952232E1;9.337482452E-1
2.051175000E1;8.676241875E0;-4.420079422E1;6.234788895E-1
2.052366250E1;-5.737359524E0;-6.700401306E1;-5.699110031E0
2.053557500E1;-1.893213081E1;-7.524938202E1;-8.774682999E0
2.054748594E1;-1.754648209E1;-5.433309555E1;-1.295018959E1
2.055940781E1;-1.016309834E1;-3.157469368E1;-1.389578438E1
2.057130938E1;-5.316870689E0;-1.770346451E1;-6.397412300E0
2.058322031E1;-1.892262101E0;-1.178587914E1;-3.002357721E0
2.059514219E1;-1.384231687E0;-9.766810417E0;6.218029261E-1
2.060704375E1;-1.155891895E0;-8.876129150E0;6.010691524E-1
2.061895469E1;-6.667851806E-1;-8.057991982E0;2.932657719E0
2.063086719E1;-1.206189156E0;-6.557699203E0;5.230200768E0
2.064277812E1;-3.299142838E0;-4.294795513E0;4.499078751E0
2.065469531E1;-4.588324547E0;-1.986066937E0;3.112241983E0
2.066660312E1;-4.195665836E0;3.090244234E-1;2.647058010E0
2.067851250E1;-2.689646244E0;2.414092779E0;2.077247858E0
2.069042344E1;-2.023674965E0;3.565310955E0;1.631734610E0
2.070233594E1;-1.772801042E0;4.049514294E0;2.098345518E0
2.071424688E1;-1.892453671E0;4.975017071E0;3.291950703E0
2.072615781E1;-2.571707726E0;5.970028400E0;4.995501995E0
2.073807031E1;-2.742261171E0;6.341014862E0;4.437815666E0
2.074998125E1;-1.700697303E0;5.740730286E0;-6.950654984E-1
2.076189219E1;-3.576937318E-2;8.788635731E-1;-7.426095009E0
2.077380469E1;3.922794104E0;-4.218765259E0;-2.587998772E1
2.078571875E1;9.925201416E0;-7.637283325E0;-1.754073715E1
2.079762813E1;1.290039921E1;-8.074167252E0;5.638565540E0
2.080953906E1;1.113794136E1;-4.854301453E0;1.574364758E1
2.082145156E1;7.721817970E0;-4.565110207E0;8.229206085E0
2.083336250E1;3.874010146E-1;-5.940416336E0;5.744446278E0
2.084527344E1;-1.667341232E0;-7.603783607E0;6.978848934E0
2.085718594E1;-2.899425983E0;-7.901833057E0;8.169695854E0
2.086909688E1;-5.029882908E0;-1.147521687E1;5.639255047E0
2.088100938E1;-8.894899368E0;-2.151916122E1;2.163333416E0
2.089292031E1;-1.440564346E1;-2.664460182E1;-5.971235037E-1
2.090483281E1;-1.355729198E1;-3.031185722E1;-1.229278922E0
2.091674375E1;-1.168403053E1;-3.296430969E1;-1.222479343E0
2.092865781E1;-8.620429039E0;-3.361000443E1;-1.311658621E0
2.094056719E1;-3.657325029E0;-2.782815933E1;3.846333027E-1
2.095248438E1;-1.061636925E0;-2.414439392E1;1.556077838E0
2.096439375E1;2.437747478E0;-2.240867424E1;2.949618101E0
2.097630156E1;7.266488075E0;-2.238240623E1;7.298924923E0
2.098821250E1;1.187964535E1;-2.331664276E1;5.879785538E0
2.100012656E1;1.476171875E1;-2.197648239E1;-6.111726761E-1
2.101204375E1;1.330818939E1;-1.980373383E1;-3.654710770E0
2.102394844E1;9.945887566E0;-1.592351913E1;-6.664394379E0
2.103585938E1;7.487703323E0;-1.217456341E1;-9.235287666E0
2.104777188E1;5.814290047E0;-9.123105049E0;-1.032343388E1
2.105970313E1;4.525529861E0;-5.781106472E0;-9.466482162E0
2.107159531E1;4.798076153E0;-2.399440289E0;-1.010469055E1
2.108350625E1;6.212407589E0;2.271427065E-1;-1.101256180E1
2.109541875E1;7.531172276E0;1.267145634E0;-5.817948341E0
2.110732969E1;7.686565399E0;1.598943591E0;-2.523680031E-1
2.111924062E1;6.417523384E0;2.197791100E0;6.132795215E-1
2.113116719E1;4.288398266E0;3.429262877E0;-1.468976855E0
2.114306406E1;3.176435232E0;3.293090343E0;-5.737273693E-1
2.115497500E1;3.121876240E0;3.158459663E0;1.348222792E-1
2.116688750E1;3.634982347E0;3.316879034E0;5.459449887E-1
2.117879844E1;4.964214325E0;3.583133459E0;3.822390735E-1
2.119070938E1;6.725264549E0;3.968188286E0;1.144236922E-1
2.120262188E1;9.133955956E0;4.197390079E0;-1.250864983E0
2.121454375E1;1.163229561E1;4.267827034E0;-1.801397324E0
2.122644531E1;1.197676373E1;3.046908855E0;-1.308182240E0
2.123835625E1;1.061220360E1;-4.674056470E-1;-1.495064139E0
2.125026875E1;1.016513824E1;-4.725139141E0;-1.258066773E0
2.126218281E1;1.081191826E1;-1.216451740E1;-1.030962348E0
2.127409219E1;1.094442272E1;-2.898224258E1;2.898497105E0
2.128600312E1;7.932239056E0;-4.853966522E1;-3.420145750E0
2.129791406E1;-8.026781082E0;-7.531305695E1;-1.343355942E1
2.130982656E1;-2.204433441E1;-7.899000549E1;-1.333229351E1
2.132173750E1;-1.863900375E1;-5.629403305E1;-1.063232422E1
2.133364844E1;-1.057147312E1;-3.124671745E1;-7.467812061E0
2.134556094E1;-6.627657890E0;-1.747846603E1;-1.222785830E0
2.135747188E1;-2.932552338E0;-9.624135971E0;1.544825077E0
2.136938281E1;-2.146909475E0;-7.190314293E0;1.608903557E-1
2.138129531E1;-2.555733681E0;-6.813821316E0;4.292612076E-1
2.139320781E1;-3.665657043E0;-6.191692829E0;2.874162674E0
2.140511875E1;-4.345887661E0;-4.141030312E0;4.776001453E0
2.141703125E1;-4.425729275E0;-2.153613329E0;3.852663040E0
2.142894219E1;-4.114311218E0;1.227938160E-1;3.490937471E0
2.144085469E1;-3.620636225E0;2.021175623E0;3.155433416E0
2.145276562E1;-2.802173615E0;3.450389385E0;2.574475527E0
2.146467656E1;-2.053832531E0;4.256574631E0;1.918502569E0
2.147658906E1;-1.652209878E0;4.501175880E0;2.491894722E0
2.148850000E1;-1.328197718E0;4.908630848E0;4.219675064E0
2.150041094E1;-1.325114012E0;5.106247902E0;6.030984402E0
2.151232344E1;-5.838212967E-1;5.178811550E0;6.195495129E0
2.152423438E1;1.278704882E0;5.105941296E0;8.900110126E-1
2.153614688E1;4.754779339E0;3.239450693E0;-6.921637058E0
2.154805938E1;7.854753494E0;-2.087782145E0;-1.539261055E1
2.155997031E1;8.973429680E0;-5.027153492E0;-1.516234589E1
2.157188125E1;8.090677261E0;-5.544137955E0;-4.828951836E0
2.158379219E1;8.314257622E0;-4.581381321E0;3.987763166E0
2.159570469E1;7.698182106E0;-3.108660221E0;4.084661484E0
2.160761562E1;4.741936684E0;-5.211554527E0;4.994840622E0
2.161952813E1;1.396250486E0;-5.437509537E0;8.104861259E0
2.163143906E1;-4.782178402E-1;-6.049190044E0;8.409958839E0
2.164335000E1;-7.137038708E0;-1.801764107E1;3.770235538E0
2.165526250E1;-1.339802933E1;-2.567080307E1;2.445657969E0
2.166717344E1;-1.792847252E1;-2.900731468E1;4.089861393E0
2.167908594E1;-1.585251617E1;-3.174683571E1;1.599796057E0
2.169100312E1;-1.257775688E1;-3.448762512E1;-1.301497698E0
2.170290781E1;-9.528243065E0;-3.102598000E1;-6.245322824E-1
2.171482031E1;-6.763332367E0;-2.443527031E1;3.380555391E0
2.172674844E1;-5.360885620E0;-2.062881470E1;3.730223656E0
2.173864375E1;-3.997637033E0;-2.037496376E1;3.488074303E0
2.175055469E1;-1.690555453E0;-2.030919838E1;4.184461594E0
2.176246562E1;8.155992031E-1;-2.152349091E1;5.154390812E0
2.177437813E1;1.560186267E0;-2.779725647E1;1.591868401E1
2.178628906E1;5.505505085E0;-2.989792061E1;-4.950634539E-1
2.179820156E1;9.062225342E0;-2.364480972E1;-9.946854591E0
2.181011250E1;9.981819153E0;-1.642543983E1;-1.701039124E1
2.182202344E1;9.642828941E0;-1.058760071E1;-3.068449974E1
2.183393594E1;7.895713329E0;-6.405083656E0;-2.863556290E1
2.184585000E1;6.996010780E0;-4.362082005E0;-1.100866413E1
2.185775781E1;6.660861015E0;-2.605868101E0;2.558712244E0
2.186967031E1;7.662489414E0;-3.439222574E-1;4.611079216E0
2.188158125E1;7.283133030E0;1.785289168E0;6.377511501E0
2.189349375E1;6.233160496E0;2.604690313E0;4.844255447E0
2.190540781E1;5.499098301E0;2.319617510E0;1.989437938E0
2.191731719E1;4.325690269E0;2.081547499E0;3.166283965E-1
2.192922969E1;3.437068224E0;2.256659746E0;-1.122124076E0
2.194114063E1;3.914883852E0;3.528612852E0;-1.919805050E0
2.195305156E1;5.421095371E0;4.898125172E0;-1.885539174E0
2.196496250E1;7.999295712E0;6.102102280E0;-1.005373120E0
2.197687500E1;1.192026043E1;7.314841747E0;-1.112173676E0
2.198878594E1;1.401650906E1;6.540930271E0;-2.912862301E0
2.200070469E1;1.173388672E1;2.905267954E0;-2.710648298E0
2.201261094E1;8.452757835E0;-1.487661123E0;-2.318851233E0
2.202452188E1;8.500766754E0;-4.364907265E0;-1.434442878E0
2.203643281E1;7.707682133E0;-1.242947865E1;-4.480796456E-1
2.204834531E1;7.564968586E0;-3.082148743E1;-4.389223099E0
2.206025625E1;9.405956268E-1;-5.654063416E1;-1.439275265E1
2.207216875E1;-1.400675964E1;-7.545234680E1;-1.286171913E1
2.208408594E1;-2.446592522E1;-7.890267181E1;3.199228346E-1
2.209599063E1;-1.864689445E1;-5.336446762E1;5.036921501E0
2.210790312E1;-8.528654099E0;-2.726235390E1;-2.728805780E0
2.211981406E1;-5.208576202E0;-1.423190975E1;-4.776968956E0
2.213172500E1;-4.962921619E0;-7.914885998E0;-2.948018789E0
2.214364375E1;-4.344652176E0;-5.527407169E0;-2.582587242E0
2.215554844E1;-4.920391083E0;-5.387633801E0;-1.339871883E0
2.216746094E1;-4.776125908E0;-4.276628494E0;4.463529110E0
2.217937188E1;-3.613731384E0;-1.744482398E0;7.302277088E0
2.219128281E1;-3.687089920E0;8.015499711E-1;5.255885601E0
2.220319688E1;-4.283600330E0;2.596502304E0;5.311565399E0
2.221510625E1;-3.704548359E0;4.115288258E0;5.283036232E0
2.222701719E1;-2.844666004E0;5.063180923E0;4.337766647E0
2.223892969E1;-2.087571621E0;5.486025810E0;4.722868919E0
2.225084063E1;-1.795383215E0;5.694742680E0;7.168307304E0
2.226275312E1;-1.995298982E0;5.642443657E0;9.965577126E0
2.227466406E1;-2.930617809E0;5.322636127E0;9.702780724E0
2.228657500E1;-2.258488655E0;5.109897137E0;4.380354881E0
2.229848750E1;-2.449680090E0;4.242554188E0;-4.697031021E0
2.231039844E1;8.450574279E-1;1.781286113E-2;-1.068583012E1
2.232231562E1;3.346596003E0;-5.246529102E0;-2.565443611E1
2.233422188E1;6.830619335E0;-9.275865555E0;-2.936074638E1
2.234613281E1;1.021153831E1;-8.555181503E0;8.710086823E0
2.235804531E1;8.753115654E0;-5.031769276E0;1.524732971E1
2.236995625E1;2.334490299E0;-5.924404144E0;4.046172142E0
2.238187500E1;-5.392508507E-1;-6.938166618E0;5.293589592E0
2.239377969E1;-1.234785676E0;-7.757481575E0;1.243384552E1
2.240569219E1;-3.843517303E0;-1.436918449E1;1.247620392E1
2.241760313E1;-1.465661335E1;-2.941673279E1;1.150181198E1
2.242952188E1;-2.018249893E1;-3.281557846E1;1.240938663E1
2.244144688E1;-1.745957184E1;-3.058529472E1;6.281897068E0
2.245333906E1;-1.204291153E1;-2.901481247E1;2.123082161E0
2.246525000E1;-8.102380753E0;-2.704430771E1;-4.428986013E-1
2.247716250E1;-5.171140671E0;-2.399366379E1;3.861368448E-2
2.248907344E1;-2.240264177E0;-2.229872322E1;1.623833776E0
2.250098594E1;1.107030988E0;-2.320125198E1;4.066761971E0
2.251289688E1;5.461231232E0;-2.761139870E1;8.913794518E0
2.252480781E1;8.957512856E0;-2.885436249E1;-1.971816659E0
2.253672031E1;1.014064121E1;-2.639126587E1;-7.233869553E0
2.254863125E1;9.648967743E0;-2.100387192E1;-6.695040703E0
2.256056094E1;8.135152817E0;-1.632279587E1;-7.125441074E0
2.257245469E1;7.145811081E0;-1.372550774E1;-8.768639565E0
2.258436562E1;6.182336330E0;-1.056207848E1;-1.155606461E1
2.259627812E1;5.614613533E0;-6.005730629E0;-1.353608894E1
2.260818906E1;7.619115829E0;-1.179192305E0;-1.260596943E1
2.262010781E1;9.453879356E0;7.066342831E-1;-5.864070415E0
2.263201719E1;8.683195114E0;3.831584752E-1;2.365471274E-1
2.264392344E1;6.877507210E0;7.780101895E-1;1.458107233E0
2.265583438E1;5.104610443E0;1.616000056E0;1.864441514E0
2.266774688E1;1.286634445E0;2.935099840E0;1.770464331E-1
2.267965781E1;2.307024002E0;3.471190214E0;-1.233664989E0
2.269157656E1;2.834763527E0;3.939869642E0;-1.221176982E0
2.270349531E1;3.900719404E0;4.434588432E0;-7.312657833E-1
2.271539375E1;5.305024624E0;4.788145065E0;-4.538448900E-2
2.272730625E1;7.628280640E0;5.195991993E0;6.453043818E-1
2.273922188E1;1.018346882E1;5.431380749E0;-1.433264911E-1
2.275112812E1;1.154114342E1;4.905259609E0;-9.947620630E-1
2.276303906E1;1.020755482E1;2.004933119E0;-2.181443453E0
2.277495000E1;8.085046768E0;-1.449823260E0;-2.438188076E0
2.278686250E1;8.901986122E0;-3.983061075E0;-2.286778450E0
2.279877969E1;9.686691284E0;-9.918506622E0;-1.459208488E0
2.281069375E1;1.007108498E1;-2.323770142E1;3.574064374E-2
2.282259688E1;1.013169670E1;-3.982300949E1;5.136328936E-1
2.283450938E1;-2.870638132E0;-6.673719788E1;-1.382788467E1
2.284642031E1;-1.981087875E1;-7.870418549E1;-1.551972294E1
2.285833125E1;-2.272473907E1;-7.216604614E1;-7.892888069E0
2.287024375E1;-1.376368141E1;-4.083838654E1;-7.712594986E0
2.288215469E1;-5.922680378E0;-2.086179161E1;-6.009062767E0
2.289406563E1;-2.530479670E0;-1.179343510E1;-3.137907743E0
2.290597969E1;-5.406011939E-1;-7.330030441E0;-1.445255160E0
2.291789063E1;7.359775901E-1;-5.403847218E0;-8.072099090E-1
2.292980156E1;1.547142744E0;-3.767122984E0;1.001034856E0
2.294171406E1;8.681758642E-1;-2.244956732E0;3.392880678E0
2.295362500E1;-7.400764823E-1;-7.147170901E-1;5.416708946E0
2.296553594E1;-2.599183559E0;6.225403547E-1;6.807337761E0
2.297745469E1;-3.248328447E0;2.065573454E0;7.798911095E0
2.298936094E1;-1.963992476E0;3.562514544E0;8.394741058E0
2.300127188E1;-1.768156290E0;4.818168163E0;9.750444412E0
2.301318281E1;-1.100614548E0;5.911887169E0;9.713525772E0
2.302510469E1;-1.162748933E0;6.589254856E0;9.716101646E0
2.303700781E1;-1.066396594E0;6.083532333E0;8.858402252E0
2.304891719E1;-1.019920349E0;5.237852573E0;6.424705982E0
2.306082969E1;-1.393138051E0;4.911963463E0;-1.082811236E0
2.307274062E1;-3.382575989E0;3.984574318E0;-1.471823978E1
2.308465313E1;-7.265540361E-1;-3.158842802E0;-2.358652496E1
2.309656406E1;2.024479389E0;-5.823972225E0;-1.937762451E1
2.310847656E1;4.014108658E0;-7.167263031E0;-5.787867546E0
2.312038750E1;6.299393654E0;-5.093357563E0;1.097809505E1
2.313229844E1;4.470194817E0;-2.920064211E0;5.981979847E0
2.314421094E1;-1.185436249E0;-3.175190210E0;1.443071485E0
2.315612188E1;-1.754863620E0;-3.239010334E0;2.910037279E0
2.316803438E1;-1.026767850E0;-6.742627621E0;8.193513870E0
2.317994531E1;-4.315807343E0;-1.126387596E1;1.270007133E1
2.319185625E1;-9.619232178E0;-3.064564896E1;9.784929276E0
2.320376875E1;-1.524019527E1;-3.574376678E1;5.414678574E0
2.321568750E1;-1.517763996E1;-3.121577263E1;5.150435448E0
2.322759062E1;-9.253311157E0;-2.971302032E1;6.001823425E0
2.323950469E1;-4.585059166E0;-3.040921402E1;5.698534966E0
2.325141406E1;-2.927150965E0;-2.865439987E1;5.785655499E0
2.326332656E1;-2.317893744E0;-2.614063072E1;5.027124405E0
2.327523750E1;-7.393294945E-3;-2.424294853E1;4.867862225E0
2.328714844E1;1.863081574E0;-2.527506065E1;1.642171478E1
2.329906094E1;8.616501808E0;-2.719875336E1;1.746436000E0
2.331097344E1;1.294563103E1;-2.329525757E1;-1.051572609E1
2.332288438E1;1.322173882E1;-1.844538116E1;-1.633884621E1
2.333479531E1;1.086440849E1;-1.453772640E1;-2.001493073E1
2.334670781E1;5.450160503E0;-1.266424465E1;-1.541611099E1
2.335861875E1;3.555437565E0;-1.154497433E1;-9.445000648E0
2.337052969E1;5.090867519E0;-7.796306133E0;-6.483354568E0
2.338244219E1;6.677945614E0;-2.587509632E0;-7.361710548E0
2.339435313E1;8.776874542E0;5.983014703E-1;-5.635290146E0
2.340626563E1;8.957101822E0;8.688366413E-1;4.638718069E-1
2.341817656E1;6.954619408E0;1.248528361E0;1.301775336E0
2.343008750E1;5.416182041E0;2.445638657E0;9.005645514E-1
2.344200000E1;2.166972876E0;4.111064434E0;-1.438292742E0
2.345391875E1;2.981097221E0;4.429579735E0;-5.326428413E-1
2.346582344E1;3.786583185E0;4.770983219E0;-4.929565489E-1
2.347773438E1;4.464008331E0;4.800949097E0;-5.328343511E-1
2.348964688E1;5.336713791E0;4.696935654E0;-2.456929833E-1
2.350155781E1;7.254508018E0;4.776815414E0;2.435860783E-1
2.351347656E1;9.811323166E0;5.090580463E0;-3.983951639E-3
2.352538125E1;1.147363663E1;4.758763313E0;-9.366979003E-1
2.353730000E1;1.067668343E1;2.845891953E0;-2.084641218E0
2.354920469E1;8.356961250E0;-7.294940948E-1;-2.746312141E0
2.356111719E1;9.370579720E0;-3.702135086E0;-3.161457062E0
2.357302812E1;1.191990662E1;-1.128251266E1;-2.528133392E0
2.358493906E1;1.382275105E1;-2.898700142E1;1.613538742E0
2.359685000E1;1.138560772E1;-5.386376190E1;1.695248008E0
2.360876250E1;-9.610010147E0;-7.801926422E1;-8.736471176E0
2.362067344E1;-2.330130768E1;-7.903761292E1;-9.714282036E0
2.363258594E1;-1.836195755E1;-5.864453506E1;-1.136019993E1
2.364449688E1;-9.267169952E0;-3.048747635E1;-9.843406677E0
2.365640781E1;-3.764853477E0;-1.576694870E1;-9.854361534E0
2.366832031E1;-1.673939705E0;-9.032499313E0;-6.233399868E0
2.368023125E1;-1.348107934E0;-6.663810730E0;-3.264312029E0
2.369214844E1;-2.293971062E0;-6.061831474E0;-1.828212440E-1
2.370405469E1;-2.815063953E0;-5.206612587E0;2.655792236E0
2.371596563E1;-3.820149899E0;-4.144430161E0;5.636104107E0
2.372787812E1;-5.405322075E0;-2.477194309E0;6.411087990E0
2.373978906E1;-4.865869999E0;-2.880799174E-1;5.953622818E0
2.375170156E1;-3.194995165E0;2.225946665E0;4.993366241E0
2.376361250E1;-2.164923429E0;3.814059019E0;4.159868240E0
2.377552500E1;-1.562934756E0;4.891900063E0;4.251134872E0
2.378743594E1;-1.478036523E0;5.994946957E0;5.805306911E0
2.379934688E1;-2.085330486E0;6.838088989E0;8.990237236E0
2.381126562E1;-2.300014019E0;6.653161049E0;9.134415627E0
2.382317656E1;-2.107194424E0;6.023859501E0;6.773943424E0
2.383508125E1;-2.527271509E0;5.098806858E0;4.135265052E-1
2.384699375E1;-3.852433443E0;4.146278381E0;-6.935562134E0
2.385890469E1;-3.187084675E0;-1.836793184E0;-1.711655045E1
2.387081719E1;1.417118430E0;-6.174560070E0;-2.531587601E1
2.388272812E1;5.784065723E0;-8.023515701E0;-1.966955376E1
2.389464062E1;9.364613533E0;-5.160711288E0;1.592972565E1
2.390655156E1;9.135967255E0;-3.023895979E0;1.534466934E1
2.391846406E1;2.143184185E0;-4.896861076E0;5.323095798E0
2.393037500E1;-3.076644838E-1;-6.157283306E0;7.807300091E0
2.394228750E1;-2.056303263E0;-7.850884438E0;1.092128563E1
2.395420469E1;-7.283276558E0;-1.711309433E1;7.399778366E0
2.396610938E1;-9.720238686E0;-2.390011024E1;1.269400978E1
2.397802188E1;-9.634717941E0;-2.965251350E1;7.823207378E0
2.398993438E1;-1.187509632E1;-3.367071152E1;1.287304759E0
2.400184375E1;-8.981502533E0;-3.619377136E1;-8.503055573E-1
2.401375625E1;-5.861800671E0;-3.551036072E1;9.501341581E-1
2.402566875E1;-2.165574789E0;-2.983181953E1;2.143375397E0
2.403757969E1;1.093585253E0;-2.554878426E1;2.794933558E0
2.404949219E1;3.882648230E0;-2.339000893E1;3.727618933E0
2.406140469E1;7.099708557E0;-2.387575531E1;1.806827354E1
2.407331406E1;1.438303185E1;-2.373004532E1;3.482758999E0
2.408522656E1;1.838503647E1;-2.122094917E1;-4.304870605E0
2.409713750E1;1.817918396E1;-1.860275650E1;-1.058419991E1
2.410905781E1;1.483634090E1;-1.479502773E1;-1.697473717E1
2.412096094E1;8.410485268E0;-1.356083488E1;-1.793846130E1
2.413287656E1;5.200963020E0;-9.646372795E0;-1.253085899E1
2.414478438E1;7.856285572E0;-4.540709019E0;-6.148434639E0
2.415669531E1;8.884183884E0;-1.713032126E0;-6.131761074E0
2.416861562E1;8.090332985E0;4.958774745E-1;-5.779287338E0
2.418051875E1;8.083198547E0;1.681945801E0;-2.109627008E0
2.419242969E1;6.782658577E0;1.444747448E0;1.831181198E-1
2.420434062E1;5.780273438E0;2.651272058E0;1.321599353E-3
2.421625312E1;3.829133034E0;3.897674084E0;-1.647814035E0
2.422816563E1;3.175774336E0;3.610015631E0;-9.754169583E-1
2.424007656E1;2.731477737E0;3.252628326E0;-6.041145921E-1
2.425198750E1;2.664574146E0;3.304208994E0;-3.969107568E-1
2.426389844E1;3.353998661E0;3.522129297E0;-7.172932625E-1
2.427581094E1;4.121646881E0;3.701589108E0;-7.270424366E-1
2.428772344E1;5.217377663E0;3.614344120E0;-4.993634224E-1
2.429963438E1;7.061736107E0;3.529819250E0;-8.709339499E-1
2.431154531E1;9.088810921E0;3.729668140E0;-1.262136936E0
2.432346406E1;9.334217072E0;2.908217430E0;-1.531628251E0
2.433536875E1;8.891202927E0;-4.793957770E-1;-2.226042509E0
2.434728281E1;1.058660412E1;-4.198156357E0;-1.901982546E0
2.435919688E1;1.327478504E1;-1.359256363E1;-1.646013618E0
2.437110312E1;1.463932705E1;-3.043133736E1;8.152342796E0
2.438301406E1;1.237270832E1;-5.013264847E1;2.212520123E0
2.439492656E1;-7.452795506E0;-7.656505585E1;-2.286788225E0
2.440683906E1;-2.124765015E1;-7.900357056E1;-3.291290045E0
2.441875156E1;-1.539432430E1;-5.838201523E1;-1.374282360E1
2.443066250E1;-5.952617645E0;-3.047705650E1;-1.965857124E1
2.444257344E1;-8.228200674E-1;-1.647566032E1;-1.709907150E1
2.445448594E1;1.331923127E0;-1.027286816E1;-9.465418816E0
2.446639688E1;8.243907094E-1;-8.587311745E0;-4.589148521E0
2.447830781E1;-9.319478273E-1;-7.706839561E0;-1.004128158E-1
2.449022031E1;-3.310261488E0;-6.960001945E0;3.750172138E0
2.450213281E1;-4.326217175E0;-5.379330635E0;6.913860798E0
2.451404375E1;-4.923187733E0;-3.281799316E0;6.972892284E0
2.452596094E1;-3.950710535E0;-7.757500410E-1;6.485461235E0
2.453786563E1;-2.896572351E0;2.102626324E0;6.370606899E0
2.454979062E1;-2.707928181E0;3.603848219E0;5.752290249E0
2.456168906E1;-2.660168648E0;4.341348648E0;5.173132420E0
2.457360156E1;-2.603981733E0;5.246212959E0;4.436091900E0
2.458551250E1;-3.159647226E0;5.818101406E0;5.342642307E0
2.459742656E1;-3.890912771E0;5.997446060E0;6.851640224E0
2.460933594E1;-4.066761971E0;5.956046104E0;2.940232992E0
2.462124688E1;-4.326284409E0;5.357533455E0;-2.895298481E0
2.463315938E1;-3.103776217E0;3.905479193E0;-1.045256710E1
2.464507969E1;9.481039047E-1;-3.110929966E0;-1.926875496E1
2.465698438E1;4.795049667E0;-6.168804169E0;-2.326718712E1
2.466889375E1;9.152659416E0;-5.875581741E0;-1.157949924E1
2.468080469E1;1.095728397E1;-2.485717773E0;1.961283112E1
2.469271562E1;8.049430847E0;-3.702096701E0;1.079440212E1
