"Time (s)";"Linear Acceleration x (m/s^2)";"Linear Acceleration y (m/s^2)";"Linear Acceleration z (m/s^2)"
1.985156200E-2;-7.930999994E-1;1.130100012E0;1.510399938E0
3.970468700E-2;-2.254799843E0;2.823999822E-1;-1.444899917E0
5.955625000E-2;-2.262599945E0;1.488000005E-1;-2.366600037E0
7.940937500E-2;-1.620599985E0;-2.078999877E-1;-1.666700006E0
9.926250000E-2;-8.787999749E-1;-5.001999736E-1;-4.342999756E-1
1.191156250E-1;6.308000088E-1;7.211999893E-1;8.359999657E-1
1.389671870E-1;8.484999537E-1;1.500100017E0;3.088999987E-1
1.588203120E-1;-1.308999956E-1;6.194999814E-1;-8.342999816E-1
1.786734370E-1;-7.253999710E-1;-5.266000032E-1;-5.141000152E-1
1.985265620E-1;-7.475000024E-1;-7.123000026E-1;4.654999971E-1
2.183796870E-1;-3.329999745E-2;2.122000009E-1;1.067700028E0
2.382312500E-1;1.570999920E-1;3.633999825E-1;9.542999864E-1
2.580843750E-1;-3.291999996E-1;-1.891999990E-1;-6.665999889E-1
2.779359370E-1;-9.556999803E-1;-6.448999643E-1;-1.170300007E0
2.977890620E-1;-1.020099998E0;-8.236999512E-1;1.965999901E-1
3.176421870E-1;2.246999890E-1;2.830999792E-1;1.439499974E0
3.374937500E-1;3.493999839E-1;1.201799989E0;6.385999918E-1
3.573468750E-1;1.042999998E-1;2.662999928E-1;-1.457999945E-1
3.772000000E-1;-1.259599924E0;-9.029999971E-1;-1.204900026E0
3.970515620E-1;-1.480199933E0;-9.383999705E-1;-1.384999990E0
4.169046870E-1;-1.722999960E-1;6.219999790E-1;-9.344999790E-1
4.367578120E-1;8.740999699E-1;1.569599986E0;-2.382999957E-1
4.566125000E-1;1.036199927E0;4.479999840E-2;-1.711999923E-1
4.764625000E-1;6.059999764E-2;-1.249799967E0;6.358000040E-1
4.963156250E-1;-7.051999569E-1;-1.771099925E0;9.922999740E-1
5.161687500E-1;-1.930999905E-1;-6.688999534E-1;1.941199899E0
5.360203120E-1;7.960999608E-1;1.231999993E0;1.317799926E0
5.558734370E-1;1.780499935E0;2.789999843E-1;3.048000038E-1
5.757265620E-1;1.884899974E0;5.845000148E-1;-5.171999931E-1
5.955796870E-1;7.815999985E-1;1.584699988E0;9.389999509E-2
6.154312500E-1;-7.768999934E-1;2.265799999E0;4.062999785E-1
6.352843750E-1;1.077000022E0;3.294999897E-1;5.626999736E-1
6.551375000E-1;2.052899837E0;-5.809000134E-1;-2.567999959E-1
6.749890620E-1;3.479499817E0;-9.498999715E-1;-1.364199996E0
6.948421870E-1;3.377099991E0;-1.002399921E0;-7.565999627E-1
7.146953120E-1;-1.272599936E0;-3.561800003E0;1.381699920E0
7.345468750E-1;-3.572799921E0;-4.754099846E0;-2.079799891E0
7.544000000E-1;-1.907999963E-1;-3.328500032E0;-7.601899624E0
7.742531250E-1;-1.421100020E0;-2.724099874E0;-5.298500061E0
7.941062500E-1;-5.828299999E0;-1.645099998E0;1.260200024E0
8.139578120E-1;-5.088500023E0;1.193000004E-1;-4.509999976E-2
8.338109370E-1;2.239500046E0;2.638999939E0;3.739999980E-2
8.536640620E-1;3.399899960E0;3.631899834E0;1.671999931E0
8.735156250E-1;3.402099848E0;3.221699953E0;1.106899977E0
8.933687500E-1;4.941199780E0;3.947099924E0;-1.628700018E0
9.132218750E-1;3.916399956E0;1.411099911E0;-8.952999711E-1
9.330734370E-1;2.590800047E0;9.062999487E-1;-1.262799978E0
9.529265620E-1;1.929600000E0;1.375999928E0;1.561699986E0
9.727796870E-1;7.663999796E-1;2.305299997E0;-1.718999892E-1
9.926312500E-1;-2.654999793E-1;1.999499917E0;-3.091399908E0
1.012484375E0;-2.448099852E0;-4.813999832E-1;-3.853899956E0
1.032337500E0;-2.541999817E-1;6.377999783E-1;-6.233999729E-1
1.052190625E0;1.167699933E0;1.120899916E0;1.187899947E0
1.072042187E0;-3.653999865E-1;2.017000020E-1;-7.509999722E-2
1.091895312E0;-1.201799989E0;2.417999953E-1;-2.698899984E0
1.111748437E0;4.736999869E-1;1.792999983E0;-2.175299883E0
1.131600000E0;1.121799946E0;1.527999997E0;3.370000049E-2
1.151453125E0;1.191999987E-1;1.642999947E-1;1.748999953E0
1.171304687E0;-1.339999914E0;-5.289999843E-1;1.331799984E0
1.191159375E0;-1.371899962E0;-3.665999770E-1;8.309999853E-2
1.211012500E0;6.351000071E-1;1.337199926E0;-8.689999580E-1
1.230864062E0;-1.899999939E-2;1.161700010E0;-1.654799938E0
1.250717187E0;-2.272999883E-1;7.152000070E-1;-8.560999632E-1
1.270568750E0;-1.006199956E0;-3.099999949E-2;-4.360000044E-2
1.290421875E0;-2.343899965E0;-1.298399925E0;5.036999583E-1
1.310273437E0;-5.525999665E-1;3.382000029E-1;-3.064999878E-1
1.330126562E0;1.205500007E0;2.256899834E0;4.717999995E-1
1.349979687E0;9.063999653E-1;2.095700026E0;4.012999833E-1
1.369832812E0;-1.353999972E-1;1.562099934E0;8.499000072E-1
1.389690625E0;-1.045699954E0;8.544999957E-1;-5.049999803E-2
1.409537500E0;1.050199986E0;1.774399996E0;1.042699933E0
1.429389062E0;1.881299973E0;2.677999973E0;3.791999817E-1
1.449242187E0;2.037099838E0;2.755199909E0;2.967999876E-1
1.469095312E0;1.062600017E0;2.025899887E0;-7.993999720E-1
1.488948437E0;-2.162999958E-1;5.945999622E-1;-9.542999864E-1
1.508800000E0;-1.200299978E0;-1.185699940E0;-1.647199988E0
1.528653125E0;1.234200001E0;-1.098299980E0;6.031000018E-1
1.548506250E0;-4.038999975E-1;-2.316499949E0;1.049700022E0
1.568359375E0;-3.000299931E0;-4.056900024E0;-7.019999623E-1
1.588210937E0;-2.573400021E0;-4.369899750E0;-1.265499949E0
1.608064062E0;2.089499950E0;-2.705399990E0;3.474699974E0
1.627917187E0;3.429399967E0;-1.059599996E0;6.239899635E0
1.647770312E0;2.796299934E0;3.431999981E-1;6.882400036E0
1.667621875E0;1.206399918E0;1.554199934E0;3.917399883E0
1.687475000E0;7.920999527E-1;2.890799999E0;3.355000019E-1
1.707326562E0;1.938699961E0;3.921399832E0;1.729999930E-1
1.727179687E0;3.069000006E0;3.660499811E0;1.491599917E0
1.747032812E0;3.273299932E0;3.438699961E0;3.000499964E0
1.766884375E0;1.981299996E0;2.237499952E0;2.862900019E0
1.786737500E0;2.590999901E-1;8.287999630E-1;2.644700050E0
1.806590625E0;-3.287999928E-1;5.292999744E-1;2.191200018E0
1.826442187E0;1.638000011E-1;9.530999660E-1;7.272999883E-1
1.846295312E0;-5.410000086E-1;5.968999863E-1;-3.513000011E-1
1.866148437E0;-1.543799996E0;-7.069999725E-2;-7.267000079E-1
1.886000000E0;-2.230200052E0;-3.264999986E-1;-7.060999870E-1
1.905853125E0;-3.207199812E0;-4.315999746E-1;-1.690599918E0
1.925706250E0;-2.335899830E0;2.897000015E-1;-7.087999582E-1
1.945559375E0;-1.449699998E0;-2.251999974E-1;2.974999845E-1
1.965410937E0;-1.132999957E-1;6.445999742E-1;9.016999602E-1
1.985264062E0;8.845999837E-1;1.691799998E0;9.589999914E-1
2.005117187E0;1.163499951E0;2.346199989E0;1.017999947E-1
2.024968750E0;1.493299961E0;2.137699842E0;1.313899994E0
2.044821875E0;7.552999854E-1;1.140900016E0;1.879599929E0
2.064675000E0;5.238000154E-1;5.223999619E-1;2.306599855E0
2.084526562E0;1.442499995E0;1.370100021E0;2.593499899E0
2.104379687E0;1.524999976E0;1.404799938E0;9.528999925E-1
2.124253125E0;1.126799941E0;1.350499988E0;9.449999779E-2
2.144085937E0;1.699999906E-2;5.920999646E-1;-2.083999962E-1
2.163937500E0;-6.308999658E-1;1.241999939E-1;-6.478999853E-1
2.183790625E0;-8.568999767E-1;9.250000119E-2;6.169999763E-2
2.203643750E0;-5.680000037E-2;-5.187000036E-1;1.491699934E0
2.223495312E0;3.515000045E-1;-1.607599974E0;1.398800015E0
2.243348437E0;-1.179999951E-2;-3.004899979E0;-6.329999864E-2
2.263201562E0;-1.612000018E-1;-3.021499872E0;-3.838999867E-1
2.283054687E0;-9.176999927E-1;-2.738499880E0;7.249000072E-1
2.302906250E0;-2.326900005E0;-3.480099916E0;1.635899901E0
2.322759375E0;-2.292299986E0;-3.841699839E0;1.021999955E0
2.342612500E0;-5.054999590E-1;-2.468299866E0;-2.501099825E0
2.362464062E0;2.769999802E-1;-5.990999937E-1;-4.383299828E0
2.382317187E0;-5.577999949E-1;-3.559999764E-1;-5.891799927E0
2.402170312E0;-5.331999660E-1;6.380000114E-1;-4.332600117E0
2.422028125E0;-1.428399920E0;4.829999804E-1;-1.639699936E0
2.441875000E0;-2.474999905E0;-8.482999802E-1;-2.249999940E-1
2.461728125E0;-8.070999980E-1;4.508000016E-1;2.287999988E-1
2.481579687E0;8.596000075E-1;1.812899947E0;-7.499999832E-3
2.501432812E0;1.501899958E0;1.942799926E0;-2.052000016E-1
2.521285937E0;2.414700031E0;2.446300030E0;2.076499939E0
2.541137500E0;2.730199814E0;1.383899927E0;3.237099886E0
2.560990625E0;2.675299883E0;7.200999856E-1;3.259099960E0
2.580843750E0;2.383100033E0;3.968999982E-1;2.094099998E0
2.600696875E0;1.633399963E0;8.052999973E-1;-1.098799944E0
2.620548437E0;1.642300010E0;7.136999965E-1;-2.709800005E0
2.640401562E0;1.279899955E0;-4.143999815E-1;-1.183099985E0
2.660254687E0;1.183499932E0;-2.584999800E-1;-2.716999948E-1
2.680107812E0;1.467700005E0;5.181999803E-1;-6.744999886E-1
2.699959375E0;9.866999984E-1;7.092999816E-1;-2.076499939E0
2.719812500E0;-1.514599919E0;-9.589999914E-1;-1.859299898E0
2.739665625E0;-1.066299915E0;-1.274099946E0;1.567499995E0
2.759517187E0;-4.154999852E-1;-3.628999889E-1;-1.278399944E0
2.779370312E0;-8.156999946E-1;-1.389999986E-1;-4.357500076E0
2.799221875E0;7.549999952E-1;9.249999523E-1;-3.236799955E0
2.819075000E0;1.562899947E0;4.684999883E-1;-1.494499922E0
2.838928125E0;3.938799858E0;1.523399949E0;4.966899872E0
2.858779687E0;2.490399837E0;1.923999935E-1;4.684000015E0
2.878632812E0;-1.034999967E0;-4.984999895E-1;1.492999911E0
2.898484375E0;-2.422499895E0;-7.089999914E-1;-1.049199939E0
2.918339062E0;9.929999709E-1;1.791599989E0;1.975600004E0
2.938190625E0;9.038999677E-1;1.113299966E0;1.060999990E0
2.958043750E0;6.909999996E-2;-1.006999984E-1;1.237100005E0
2.977896875E0;-5.845999718E-1;-1.358399987E0;5.971999764E-1
2.997748437E0;2.016299963E0;-5.166000128E-1;3.355199814E0
3.017601562E0;2.440599918E0;-8.370999694E-1;3.944199800E0
3.037453125E0;1.304799914E0;-2.362999916E-1;1.632299900E0
3.057306250E0;-9.037999511E-1;-5.188999772E-1;-1.840999961E0
3.077159375E0;-2.526199818E0;-8.587999940E-1;-4.125299931E0
3.097012500E0;-1.885899901E0;-1.254899979E0;-2.759500027E0
3.116864062E0;-6.611999869E-1;-1.460299969E0;4.906999767E-1
3.136717187E0;-9.442999959E-1;-1.949699998E0;1.456900001E0
3.156570312E0;-9.745999575E-1;-6.507999897E-1;4.539999962E-1
3.176421875E0;-8.949999511E-2;3.662000000E-1;-1.660499930E0
3.196275000E0;-2.236999869E-1;1.329399943E0;-1.229499936E0
3.216128125E0;-1.074000001E-1;1.363099933E0;-7.870000005E-1
3.235979687E0;3.828999996E-1;1.159999967E-1;1.498600006E0
3.255832812E0;9.475999475E-1;-2.285999954E-1;4.441100121E0
3.275685937E0;1.587999940E0;9.713999629E-1;3.815199852E0
3.295539062E0;1.526899934E0;1.602499962E0;1.575799942E0
3.315390625E0;8.662999868E-1;1.489899993E0;-6.320999861E-1
3.335243750E0;3.768999875E-1;1.003999949E0;5.200000014E-3
3.355096875E0;-5.509999767E-2;2.673999965E-1;1.345399976E0
3.374948437E0;-7.881999612E-1;-3.700999916E-1;2.206599951E0
3.394801562E0;-9.044999480E-1;-4.099999741E-2;1.518899918E0
3.414654687E0;-9.162999988E-1;2.897000015E-1;-1.507999897E-1
3.434507812E0;-8.280999660E-1;6.279999763E-2;-6.787999868E-1
3.454359375E0;-3.465999961E-1;-1.317999959E-1;9.600000083E-2
3.474212500E0;-5.432000160E-1;-1.018399954E0;4.460999966E-1
3.494065625E0;-4.102999866E-1;-1.693199992E0;3.258000016E-1
3.513917187E0;-8.696999550E-1;-1.288299918E0;8.999999762E-1
3.533770312E0;-1.647499919E0;-9.497999549E-1;2.012899876E0
3.553623437E0;-2.977499962E0;-1.470600009E0;1.783599973E0
3.573475000E0;-3.262899876E0;-1.964899898E0;-6.597999930E-1
3.593328125E0;-2.193799973E0;-1.966699958E0;-2.360199928E0
3.613181250E0;-3.236999810E-1;-1.359399915E0;-1.160200000E0
3.633032812E0;1.117799997E0;-1.107699990E0;1.384599924E0
3.652885937E0;1.318400025E0;-9.050999880E-1;2.654999971E0
3.672739062E0;9.599999525E-3;-1.304600000E0;7.895999551E-1
3.692590625E0;-1.138199925E0;-1.355999947E0;-2.150599957E0
3.712443750E0;-1.184499979E0;-1.064100027E0;-3.528299809E0
3.732296875E0;-1.169099927E0;-1.056800008E0;-3.258699894E0
3.752150000E0;-1.066599965E0;-1.373499990E0;-2.451299906E0
3.772001562E0;-5.672999620E-1;-1.454399943E0;-6.976000071E-1
3.791854687E0;-2.172999978E-1;-1.686299920E0;-5.248999596E-1
3.811707812E0;-8.838999867E-1;-1.414600015E0;-1.058300018E0
3.831559375E0;-1.615899920E0;-2.293099880E0;-1.839800000E0
3.851412500E0;-3.825299978E0;-3.082399845E0;-4.029699802E0
3.871265625E0;-5.668200016E0;-3.688999891E0;-3.857800007E0
3.891118750E0;-1.782199979E0;-2.342700005E0;-1.942999959E-1
3.910970312E0;5.597999692E-1;-3.000000026E-3;2.101500034E0
3.930823437E0;5.751000047E-1;1.462000012E-1;3.497000039E-1
3.950676562E0;-2.618299961E0;-6.771999598E-1;-2.211699963E0
3.970528125E0;-4.090199947E0;-1.079200029E0;-1.194000006E0
3.990381250E0;-2.123199940E0;-1.100700021E0;4.181999862E-1
4.010234375E0;-4.125999808E-1;-6.862999797E-1;7.475999594E-1
4.030085937E0;-8.344999552E-1;1.587999910E-1;-1.392300010E0
4.049939062E0;-1.725600004E0;4.090999961E-1;-1.832799911E0
4.069790625E0;6.248999834E-1;1.250399947E0;-3.501999974E-1
4.089643750E0;2.851300001E0;2.217000008E0;8.623999953E-1
4.109496875E0;3.117199898E0;2.588799953E0;1.772999913E-1
4.129350000E0;2.651599884E0;2.874500036E0;-2.298699856E0
4.149201562E0;-5.212000012E-1;7.137999535E-1;-1.664399981E0
4.169054687E0;-3.066999912E-1;-2.039999962E-1;-1.218699932E0
4.188907812E0;2.801199913E0;8.356999755E-1;-2.400099993E0
4.208759375E0;4.571000099E0;8.299999833E-1;-3.095099926E0
4.228612500E0;5.383299828E0;1.049499989E0;-1.900799990E0
4.248464062E0;4.716499805E0;1.246500015E0;-1.923699975E0
4.268318750E0;4.045099735E0;8.791999817E-1;-2.542299986E0
4.288170312E0;8.321999907E-1;-1.774299979E0;-3.220899820E0
4.308023437E0;-8.594999909E-1;-2.163499832E0;-3.586399794E0
4.327875000E0;3.895999789E-1;-2.291100025E0;-2.151900053E0
4.347728125E0;2.554600000E0;-1.793199897E0;1.488499999E0
4.367581250E0;1.343299985E0;-1.953599930E0;3.387300014E0
4.387432812E0;-1.908299923E0;-3.010599852E0;5.209399700E0
4.407285937E0;-3.466699839E0;-2.254099846E0;5.261300087E0
4.427139062E0;-2.992699862E0;-1.201300025E0;5.416899681E0
4.446992187E0;-1.835799932E0;-6.351999640E-1;5.866199970E0
4.466843750E0;-5.789999962E-1;-7.360000163E-2;5.163000107E0
4.486696875E0;3.986999989E-1;-9.441999793E-1;5.234099865E0
4.506550000E0;2.091199875E0;3.601999879E-1;2.484499931E0
4.526401562E0;3.120800018E0;1.687600017E0;-4.999999655E-4
4.546254687E0;3.263899803E0;2.054699898E0;-6.319999695E-1
4.566107812E0;2.574300051E0;2.285300016E0;-1.306499958E0
4.585960937E0;8.485999703E-1;1.317999959E0;-5.587999821E-1
4.605812500E0;-2.449999936E-2;9.003999829E-1;-4.129999876E-1
4.625665625E0;3.506999910E-1;8.603000045E-1;-7.523999810E-1
4.645518750E0;-9.600000083E-2;9.551999569E-1;-8.341000080E-1
4.665370312E0;-7.888999581E-1;1.183699965E0;-1.327199936E0
4.685223437E0;-1.248700023E0;9.055999517E-1;-1.457199931E0
4.705076562E0;-1.344099998E0;2.831999958E-1;-1.067999974E-1
4.724928125E0;1.215399981E0;6.969999522E-2;2.791899920E0
4.744781250E0;-2.819999866E-2;-7.690999508E-1;3.918900013E0
4.764634375E0;-8.913999796E-1;-3.057000041E-1;2.418499947E0
4.784485937E0;-1.402999997E0;-4.749999940E-2;5.746999979E-1
4.804339062E0;-2.597199917E0;-2.727999985E-1;-1.210799932E0
4.824192187E0;-2.012500048E0;1.519999932E-2;-1.040699959E0
4.844043750E0;6.194999814E-1;-3.436999917E-1;1.913299918E0
4.863896875E0;1.193999946E-1;1.964999884E-1;2.106799841E0
4.883750000E0;-6.212999821E-1;1.043399930E0;7.710999846E-1
4.903603125E0;6.579999626E-2;1.489199996E0;4.422999918E-1
4.923454687E0;-3.287999928E-1;1.136999965E0;8.517000079E-1
4.943307812E0;-8.579999954E-2;1.621000022E-1;1.060099959E0
4.963160937E0;-1.034399986E0;2.498999983E-1;7.078999877E-1
4.983012500E0;-3.505599976E0;-1.181599975E0;3.208499908E0
5.002865625E0;2.960399866E0;-2.112099886E0;-2.038699865E0
5.022718750E0;4.436599731E0;1.919000000E-1;5.950999856E-1
5.042571875E0;1.969899893E0;-5.499999970E-2;8.018999696E-1
5.062423437E0;-1.978799939E0;-2.024399996E0;1.079999954E-1
5.082276562E0;-2.659099817E0;-1.462999940E0;4.439999759E-1
5.102129687E0;2.680999935E-1;-2.001899958E0;1.574499965E0
5.121981250E0;2.492999882E-1;4.311999977E-1;2.353699923E0
5.141834375E0;-3.706300020E0;3.344899893E0;-1.191399932E0
5.161687500E0;-3.154699802E0;2.750799894E0;-3.151899815E0
5.181539062E0;-1.777899981E0;2.516599894E0;-4.282999992E0
5.201392187E0;-2.212599993E0;-9.945999980E-1;2.046299934E0
5.221245312E0;-1.216199994E0;-2.384199858E0;3.231099844E0
5.241096875E0;-2.985000014E-1;-7.922999859E-1;3.187799931E0
5.260950000E0;2.251099825E0;8.264999986E-1;-2.442399979E0
5.280803125E0;1.208400011E0;-2.500200033E0;-2.852999926E0
5.300654687E0;1.252799988E0;-4.289799690E0;3.912299871E0
5.320507812E0;3.367699862E0;6.087999940E-1;3.487799883E0
5.340359375E0;1.031099916E0;9.077000022E-1;6.065999866E-1
5.360214062E0;-2.043200016E0;1.746599913E0;1.248899937E0
5.380065625E0;-4.118000031E0;5.977999568E-1;-1.444499969E0
5.399918750E0;-2.084899902E0;-8.083999753E-1;-2.673799992E0
5.419771875E0;-5.399999619E-1;-1.934299946E0;-1.323799968E0
5.439623437E0;-4.487999976E-1;-1.793999970E-1;-4.600999951E-1
5.459476562E0;5.370000005E-1;2.815999985E0;1.720099926E0
5.479328125E0;1.036199927E0;5.135499954E0;4.080399990E0
5.499201562E0;2.329999954E-2;3.445699930E0;4.229000092E0
5.519034375E0;1.520499945E0;-3.649999946E-2;1.705699921E0
5.538887500E0;3.396899939E0;-6.809999943E0;-1.404999942E-1
5.558739062E0;2.240099907E0;-1.122900009E1;-2.360999823E0
5.578592187E0;-9.919999540E-2;-2.832000017E0;-3.121299982E0
5.598445312E0;-2.910999954E-1;2.269099951E0;-2.691799879E0
5.618298437E0;-2.522999942E-1;1.913299918E0;-1.628299952E0
5.638150000E0;8.783999681E-1;-2.489999980E-1;-6.140000001E-2
5.658003125E0;1.170199990E0;-4.572999775E-1;2.734499931E0
5.677854687E0;6.313999891E-1;2.894999981E-1;1.815099955E0
5.697707812E0;-7.389999926E-2;6.255999804E-1;-3.099999856E-3
5.717560937E0;-1.296999902E-1;2.127999961E-1;-1.099799991E0
5.737412500E0;-2.633000016E-1;-3.651999831E-1;-5.052999854E-1
5.757265625E0;-4.299999774E-2;-3.594000041E-1;5.469999909E-1
5.777118750E0;4.129999876E-2;-2.245999873E-1;9.619999528E-1
5.796971875E0;5.810999870E-1;3.300999999E-1;5.044000149E-1
5.816823437E0;1.962799907E0;5.385000110E-1;2.543999851E-1
5.836676562E0;2.546299934E0;2.543999851E-1;1.876999885E-1
5.856529687E0;2.511899948E0;-8.909999579E-2;-3.132999837E-1
5.876381250E0;1.335899949E0;-5.582000017E-1;-3.498999774E-1
5.896234375E0;3.329999745E-2;-5.995000005E-1;8.053999543E-1
5.916087500E0;9.573999643E-1;3.129999936E-1;-1.230999976E-1
5.935940625E0;-3.209999800E-1;-3.441999853E-1;-4.969999790E-1
5.955792187E0;-7.379999757E-1;-1.562999934E-1;-8.100000210E-3
5.975645312E0;-4.332999885E-1;1.556999981E-1;-7.529000044E-1
5.995500000E0;6.199999712E-3;4.659999907E-2;-8.259999752E-2
6.015350000E0;3.413999975E-1;-1.588999927E-1;3.409000039E-1
6.035203125E0;9.258999825E-1;-3.077999949E-1;1.261000037E-1
6.055056250E0;1.270299911E0;-1.957999915E-1;-3.634999990E-1
6.074907812E0;1.634099960E0;-1.094999984E-1;-1.139699936E0
6.094760937E0;1.429999948E0;1.061999947E-1;-1.394500017E0
6.114614062E0;7.706999779E-1;3.139999881E-2;-8.935999870E-1
6.134465625E0;1.106799960E0;-5.900000036E-2;-7.335000038E-1
6.154318750E0;1.172399998E0;-6.209999695E-2;-9.968999624E-1
6.174171875E0;1.377099991E0;1.368999928E-1;-7.805999517E-1
6.194025000E0;1.020799994E0;-3.079999983E-2;-7.674999833E-1
6.213876562E0;9.526000023E-1;-5.579999834E-2;-1.821999907E0
6.233729687E0;5.859999657E-1;-3.078999817E-1;-2.474900007E0
6.253582812E0;3.639999777E-2;-8.540000021E-2;-1.450699925E0
6.273434375E0;6.929000020E-1;5.137000084E-1;-6.567999721E-1
6.293287500E0;1.374199986E0;1.677999943E-1;-5.001999736E-1
6.313140625E0;1.117399931E0;-5.412999988E-1;-1.824999899E-1
6.332993750E0;1.108099937E0;-6.868999600E-1;2.313999981E-1
6.352845312E0;1.656599998E0;-4.528999925E-1;-3.698000014E-1
6.372698437E0;1.618499994E0;-8.834999800E-1;-1.152400017E0
6.392551562E0;1.834199905E0;-1.611599922E0;-1.993299961E0
6.412403125E0;1.911799908E0;-2.852699995E0;-2.793399811E0
6.432254687E0;2.658799887E0;-3.504299879E0;-4.754499912E0
6.452109375E0;4.009299755E0;-4.047999859E0;-6.408099651E0
6.471960937E0;3.344899893E0;-5.153899670E0;-5.110499859E0
6.491812500E0;2.560799837E0;-4.271199703E0;-2.821199894E0
6.511667187E0;1.674299955E0;-2.860100031E0;-2.339299917E0
6.531518750E0;7.993999720E-1;-1.952799916E0;-2.248999834E0
6.551371875E0;2.336999923E-1;-2.016399860E0;-2.005800009E0
6.571225000E0;-4.714999795E-1;-1.778699994E0;8.139999956E-2
6.591076562E0;-2.863999903E-1;-1.495599985E0;2.993399858E0
6.610929687E0;2.566999793E-1;-1.292999983E0;5.342599869E0
6.630781250E0;-2.309999913E-1;-5.971999764E-1;5.800600052E0
6.650634375E0;-1.094499946E0;2.140999883E-1;2.180599928E0
6.670487500E0;-1.456799984E0;1.083599925E0;6.481999755E-1
6.690339062E0;-1.135100007E0;8.960999846E-1;1.032699943E0
6.710192187E0;-2.352999896E-1;2.574999928E-1;8.649999499E-1
6.730045312E0;-8.009999990E-2;1.950999945E-1;3.603999913E-1
6.749898437E0;-4.863999784E-1;1.149600029E0;8.295999765E-1
6.769750000E0;-2.113399982E0;1.397400022E0;9.733999968E-1
6.789603125E0;-3.919699907E0;1.119499922E0;8.109999895E-1
6.809456250E0;-4.704199791E0;1.232800007E0;2.431499958E0
6.829307812E0;-3.994499922E0;2.087599993E0;3.657299995E0
6.849160937E0;-2.878899813E0;2.716300011E0;3.252199888E0
6.869014062E0;-2.113299847E0;2.541399956E0;2.381299973E0
6.888865625E0;-1.926999927E0;2.873499870E0;1.123000026E0
6.908718750E0;-1.507599950E0;3.590799809E0;9.801999927E-1
6.928571875E0;-7.763999701E-1;2.683799982E0;-3.650999963E-1
6.948423437E0;7.920999527E-1;4.879999757E-1;-1.993199944E0
6.968276562E0;3.216899872E0;-1.008999944E-1;-1.549199939E0
6.988129687E0;4.933599949E0;-8.831999898E-1;-2.708799839E0
7.007982812E0;6.046400070E0;-2.130800009E0;-1.636999965E0
7.027834375E0;5.318299770E0;-2.643899918E0;-1.874099970E0
7.047687500E0;3.467099905E0;-2.107300043E0;-2.334800005E0
7.067540625E0;-2.798999846E-1;-3.246299982E0;9.601999521E-1
7.087393750E0;-2.921799898E0;-3.116499901E0;3.104199886E0
7.107245312E0;-3.349099874E0;-2.229899883E0;2.911499977E0
7.127098437E0;-4.008399963E0;2.815999985E-1;2.090899944E0
7.146951562E0;-4.488599777E0;2.246099949E0;3.937299967E0
7.166803125E0;-3.890100002E0;3.002300024E0;3.582499981E0
7.186656250E0;-1.423099995E0;2.627399921E0;3.080799818E0
7.206509375E0;1.223999932E-1;1.054000020E0;3.097999811E0
7.226360937E0;4.371999800E-1;-2.400000021E-2;2.626199961E0
7.246214062E0;2.079299927E0;2.412999868E-1;2.019399881E0
7.266067187E0;3.502799988E0;9.298999906E-1;-4.639999866E-1
7.285918750E0;3.104699850E0;8.134999871E-1;-2.430299997E0
7.305771875E0;2.584800005E0;9.967999458E-1;-2.892400026E0
7.325625000E0;2.152799845E0;9.633999467E-1;-2.324899912E0
7.345478125E0;2.049299955E0;4.888999760E-1;-1.272699952E0
7.365329687E0;1.898199916E0;5.214999914E-1;-5.368999839E-1
7.385189062E0;1.341499925E0;6.970999837E-1;-4.662999809E-1
7.405035937E0;4.126999974E-1;4.469999969E-1;-4.589999914E-1
7.424889062E0;2.557999790E-1;-9.799999744E-2;-1.846999973E-1
7.444740625E0;6.847999692E-1;-9.102999568E-1;2.881000042E-1
7.464593750E0;5.141999722E-1;-1.253000021E0;1.356699944E0
7.484445312E0;3.713999987E-1;-8.050000072E-1;1.806299925E0
7.504298437E0;3.652999997E-1;-5.187999606E-1;6.365999579E-1
7.524150000E0;1.275699973E0;-1.386799932E0;-1.018700004E0
7.544004687E0;3.284699917E0;-2.338599920E0;-1.672799945E0
7.563856250E0;6.288899899E0;-2.250000000E0;-2.984299898E0
7.583707812E0;7.274499893E0;-1.785799980E0;-4.328499794E0
7.603562500E0;7.446699619E0;-3.379199982E0;-4.086400032E0
7.623414062E0;6.684799671E0;-5.323800087E0;-3.065599918E0
7.643267187E0;4.457200050E0;-4.084000111E0;-3.486199856E0
7.663120312E0;1.723099947E0;-1.355499983E0;-2.435499907E0
7.682971875E0;-1.143800020E0;-2.857800007E0;-2.267999887E0
7.702825000E0;-2.634999990E0;-6.743899822E0;-1.213699937E0
7.722678125E0;-3.054600000E0;-7.433599949E0;8.376999497E-1
7.742531250E0;-2.360499859E0;-5.133500099E0;-1.279600024E0
7.762382812E0;-3.295399904E0;-1.666700006E0;2.042899847E0
7.782234375E0;-2.802999973E0;1.874099970E0;3.892999887E0
7.802089062E0;-1.158100009E0;4.447799683E0;4.253299713E0
7.821940625E0;1.507000029E-1;4.565499783E0;4.250199795E0
7.841792187E0;3.390000015E-2;3.576099873E0;4.245599747E0
7.861646875E0;-2.221600056E0;2.273099899E0;1.851899981E0
7.881501562E0;-3.937500000E0;1.968400002E0;-1.366999894E-1
7.901351562E0;-6.133199692E0;1.778599977E0;1.100700021E0
7.921203125E0;-7.335000038E0;2.206799984E0;2.758899927E0
7.941056250E0;-6.996999741E0;3.048499823E0;3.802199841E0
7.960909375E0;-5.845099926E0;3.771600008E0;3.040999889E0
7.980762500E0;-4.052999973E0;4.157499790E0;2.099299908E0
8.000614062E0;-2.185099840E0;4.275199890E0;6.915000081E-1
8.020467187E0;1.887999922E-1;2.452100039E0;-2.386600018E0
8.040320312E0;3.926699877E0;-1.910899997E0;-6.965999603E0
8.060171875E0;9.970799446E0;-6.117499828E0;-6.663699627E0
8.080025000E0;1.070310020E1;-8.000299454E0;2.166399956E0
8.099878125E0;6.594099998E0;-8.684899330E0;-1.405900002E0
8.119729687E0;2.426300049E0;-9.380700111E0;-1.462599993E0
8.139582812E0;-2.860299826E0;-6.442800045E0;3.211999893E0
8.159435937E0;-6.777699947E0;5.196999907E-1;6.212800026E0
8.179287500E0;-8.152599335E0;6.084399700E0;4.609399796E0
8.199140625E0;-7.899899960E0;7.862299919E0;1.890799999E0
8.218993750E0;-7.688799858E0;5.197499752E0;1.168699980E0
8.238845312E0;-4.329299927E0;9.138000011E-1;6.062999725E0
8.258698437E0;-2.710599899E0;-2.957599878E0;5.132400036E0
8.278551562E0;-1.902799964E0;-2.119600058E0;3.546399832E0
8.298403125E0;2.533999979E-1;2.248999923E-1;2.825500011E0
8.318256250E0;4.602999687E0;1.799499989E0;1.610399961E0
8.338109375E0;4.485699654E0;1.601899981E0;-9.772999883E-1
8.357962500E0;1.572099924E0;2.236999869E-1;-1.656599998E0
8.377814062E0;1.043699980E0;-5.054999590E-1;-9.222999811E-1
8.397667187E0;1.703199983E0;4.653999805E-1;-9.259999543E-2
8.417520312E0;1.692199945E0;9.257999659E-1;-7.989000082E-1
8.437373437E0;1.225099921E0;1.248199940E0;-2.974999845E-1
8.457225000E0;3.669999838E-1;9.567999840E-1;-1.982000023E-1
8.477078125E0;2.360999882E-1;3.973999918E-1;-9.325999618E-1
8.496931250E0;1.005299926E0;-6.549999863E-2;-1.034699917E0
8.516782812E0;1.386099935E0;-5.009999871E-1;-1.244999990E-1
8.536635937E0;1.179499984E0;-3.522999883E-1;4.682999849E-1
8.556489062E0;9.369999766E-1;-2.712999880E-1;1.774999946E-1
8.576342187E0;2.386600018E0;-1.716199994E0;-1.902199984E0
8.596193750E0;4.440400124E0;-2.425499916E0;-2.984200001E0
8.616046875E0;5.047199726E0;-2.099900007E0;-2.885099888E0
8.635900000E0;4.870100021E0;-1.382300019E0;-2.911399841E0
8.655751562E0;6.015899658E0;-2.807999849E-1;-3.374799967E0
8.675604687E0;7.416999817E0;1.688999981E-1;-2.770200014E0
8.695457812E0;6.708600044E0;-1.016099930E0;-1.633399963E0
8.715309375E0;5.018300056E0;-2.339599848E0;-3.486000001E-1
8.735162500E0;1.524699926E0;-4.126899719E0;2.705999911E-1
8.755015625E0;-2.070400000E0;-6.190299988E0;1.915099978E0
8.774873437E0;-3.515199900E0;-7.783699989E0;2.119899988E0
8.794720312E0;-3.312599897E0;-6.326499939E0;1.469099998E0
8.814573437E0;-2.418599844E0;-1.681299925E0;-1.155099988E0
8.834426562E0;-2.006899834E0;1.255599976E0;2.330999970E-1
8.854278125E0;-1.709499955E0;2.624699831E0;1.814299941E0
8.874131250E0;-1.536299944E0;2.827600002E0;2.720799923E0
8.893984375E0;-1.976199985E0;1.901699901E0;3.631899834E0
8.913835937E0;-3.789399862E0;1.465999961E0;3.164700031E0
8.933689062E0;-5.379099846E0;2.101999998E0;2.024899960E0
8.953542187E0;-5.794099808E0;2.885699987E0;2.279999852E-2
8.973393750E0;-6.240799904E0;3.169999838E0;3.674999774E-1
8.993246875E0;-6.186500072E0;3.515999794E0;2.679699898E0
9.013100000E0;-5.986000061E0;3.663499832E0;3.226999998E0
9.032953125E0;-4.748699665E0;3.884999990E0;2.379099846E0
9.052803125E0;-2.993499994E0;4.121699810E0;1.884199977E0
9.072656250E0;-1.008399963E0;3.197999954E0;9.881999493E-1
9.092509375E0;1.489099979E0;-7.015999556E-1;-3.525099993E0
9.112362500E0;7.230299950E0;-4.164899826E0;-1.180480003E1
9.132215625E0;1.312179947E1;-5.958199978E0;-1.799999969E-3
9.152067187E0;1.208990002E1;-4.078999996E0;-2.146100044E0
9.171920312E0;5.649299622E0;-2.443999946E-1;-4.012399673E0
9.191773437E0;-1.879299998E0;-2.665199995E0;2.862499952E0
9.211626562E0;-5.389599800E0;-4.184199810E0;4.101699829E0
9.231478125E0;-5.976999760E0;-3.966199875E0;4.765999794E0
9.251331250E0;-4.807799816E0;-1.865000010E0;2.516700029E0
9.271182812E0;-7.689799786E0;-1.522399902E0;6.042999625E-1
9.291035937E0;-8.146399498E0;1.544999927E-1;1.642399907E0
9.310890625E0;-4.859200001E0;5.192999840E-1;4.286699772E0
9.330740625E0;-1.754899979E0;9.264999628E-1;3.887399912E0
9.350593750E0;-4.811999798E-1;5.302999616E-1;4.795899868E0
9.370446875E0;1.665499926E0;6.055999994E-1;5.195699692E0
9.390298437E0;3.408299923E0;8.775999546E-1;4.768300056E0
9.410151562E0;1.773000002E0;8.309999704E-1;1.001999974E-1
9.430004687E0;-2.987000048E-1;9.985999465E-1;-1.582299948E0
9.449857812E0;-4.933999777E-1;7.340999842E-1;-2.486500025E0
9.469709375E0;-7.869999856E-2;6.807000041E-1;-2.574599981E0
9.489568750E0;1.239099979E0;1.335799932E0;-2.182699919E0
9.509415625E0;1.562099934E0;1.582799911E0;-1.985199928E0
9.529267187E0;1.304299951E0;1.032500029E0;-1.848299980E0
9.549120312E0;1.687199950E0;1.102999970E-1;-1.293099999E0
9.568973437E0;1.446200013E0;-2.660000026E-1;-9.702000022E-1
9.588826562E0;1.946999907E0;-2.035999894E-1;-1.380299926E0
9.608678125E0;4.073299885E0;-3.298999965E-1;-1.782999992E0
9.628531250E0;5.129899979E0;-1.013199925E0;-1.634099960E0
9.648382812E0;6.138400078E0;-1.674600005E0;-1.404799938E0
9.668235937E0;6.930199623E0;-1.877399921E0;-1.893599987E0
9.688089062E0;8.157999992E0;-3.908699989E0;-1.343799949E0
9.707942187E0;6.921999931E0;-8.289999962E0;-4.970999956E-1
9.727793750E0;2.231999874E0;-8.979499817E0;-9.357999563E-1
9.747646875E0;-1.620000005E-1;-3.702299833E0;-2.187099934E0
9.767500000E0;-1.988899946E0;-1.797099948E0;-4.260900021E0
9.787353125E0;-3.498399973E0;-2.732699871E0;-1.417089939E1
9.807204687E0;-2.290499926E0;-3.152499914E0;-9.934999943E-1
9.827057812E0;-2.063699961E0;-2.872499943E0;3.259899855E0
9.846910937E0;-1.560599923E0;-1.610299945E0;2.846899986E0
9.866762500E0;1.452199936E0;1.810899973E0;3.678699970E0
9.886615625E0;3.229499817E0;3.706199884E0;6.686899662E0
9.906468750E0;2.422799826E0;2.888299942E0;9.201199532E0
9.926321875E0;-8.669999838E-1;1.755199909E0;6.612199783E0
9.946173437E0;-4.396699905E0;1.930499911E0;3.334299803E0
9.966028125E0;-7.420799732E0;1.979799986E0;-1.213400006E0
9.985878125E0;-8.874199867E0;1.750999928E0;-1.419899940E0
1.000573125E1;-8.835100174E0;2.534299850E0;2.138599873E0
1.002558438E1;-7.547999859E0;5.132100105E0;5.385699749E0
1.004543750E1;-6.218699932E0;6.836299896E0;3.531299829E0
1.006528906E1;-3.046900034E0;5.435100079E0;9.802999496E-1
1.008514219E1;-1.007200003E0;1.739199996E0;-3.451699972E0
1.010499375E1;7.459899902E0;-2.854699850E0;-1.517249966E1
1.012484688E1;1.289319992E1;-8.800299644E0;1.978699923E0
1.014470000E1;8.593699455E0;-5.535599709E0;2.535599947E0
1.016455156E1;5.179800034E0;2.770499945E0;-3.194599867E0
1.018440625E1;-1.291999966E-1;1.082800031E0;3.245100021E0
1.020425781E1;-3.558599949E0;-2.570099831E0;7.315699577E0
1.022411094E1;-4.287399769E0;-6.216300011E0;4.706099987E0
1.024396406E1;-3.674700022E0;-1.426179981E1;-4.051099777E0
1.026381563E1;-6.379099846E0;-3.943699837E0;2.789099932E0
1.028366875E1;-8.470799446E0;3.109799862E0;2.122799873E0
1.030352188E1;-3.523199797E0;4.912099838E0;3.785399914E0
1.032337344E1;-1.123000026E0;3.438299894E0;3.364099979E0
1.034322500E1;-3.258000016E-1;6.480999589E-1;4.329199791E0
1.036307969E1;2.256700039E0;1.986999959E-1;5.923399925E0
1.038293125E1;2.209800005E0;3.564999998E-1;3.807999849E0
1.040278438E1;2.779999934E-2;7.565000057E-1;1.533899903E0
1.042263750E1;-3.273999989E-1;1.395900011E0;-1.050999984E-1
1.044249063E1;-4.659999907E-2;6.509999633E-1;-1.216499925E0
1.046234219E1;8.481999636E-1;1.714999974E-1;-2.217900038E0
1.048219531E1;2.370300055E0;7.214999795E-1;-2.273799896E0
1.050204688E1;2.863199949E0;1.739199996E0;-1.972799897E0
1.052190000E1;3.191299915E0;1.852099895E0;-1.479399920E0
1.054175313E1;3.248499870E0;7.270999551E-1;-1.083799958E0
1.056160469E1;3.262799978E0;-1.140000001E-1;-1.581699967E0
1.058145781E1;3.637399912E0;2.439000010E-1;-1.820199966E0
1.060131094E1;4.602200031E0;7.529999614E-1;-1.325899959E0
1.062116250E1;6.657799721E0;1.608699918E0;-5.034999847E-1
1.064101563E1;7.575500011E0;1.871199965E0;2.115999907E-1
1.066086875E1;7.619400024E0;1.351199985E0;3.375999928E-1
1.068072031E1;8.071399689E0;4.842000008E-1;-1.519999981E0
1.070057344E1;7.520099640E0;-5.034999847E-1;-2.524499893E0
1.072042656E1;7.431799889E0;-2.140899897E0;-2.408799887E0
1.074027969E1;4.623399734E0;-5.824500084E0;-8.648999929E-1
1.076013125E1;9.477999806E-1;-1.070129967E1;4.585999846E-1
1.077998438E1;-3.646699905E0;-1.645929909E1;2.164099932E0
1.079983750E1;-8.991099358E0;-1.671619987E1;2.302199841E0
1.081970938E1;-9.494400024E0;-8.062999725E0;1.684099913E0
1.083954219E1;-5.555599689E0;4.626999795E-1;-2.359999903E-2
1.085939531E1;-5.372999907E-1;5.401400089E0;-3.366299868E0
1.087924688E1;-5.429999828E-1;5.791399956E0;-5.005999804E-1
1.089910000E1;-1.479900002E0;4.626599789E0;3.731999874E0
1.091895312E1;-3.229599953E0;2.952399969E0;5.495299816E0
1.093880625E1;-5.015500069E0;2.521399975E0;3.786499977E0
1.095865781E1;-7.197799683E0;2.773399830E0;2.260900021E0
1.097851094E1;-8.066699982E0;3.726999998E0;1.313399911E0
1.099836406E1;-8.015299797E0;4.869499683E0;2.497200012E0
1.101821562E1;-6.765599728E0;5.908799648E0;3.563899994E0
1.103806875E1;-3.546099901E0;5.409699917E0;2.616499901E0
1.105792344E1;-2.351000011E-1;3.699299812E0;-2.129999921E-2
1.107777500E1;2.032500029E0;6.149999797E-2;-7.301099777E0
1.109762656E1;9.511199951E0;-4.659899712E0;-1.024020004E1
1.111747969E1;1.472999954E1;-7.527899742E0;2.141900063E0
1.113733125E1;1.002229977E1;-3.414700031E0;-3.892000020E-1
1.115718438E1;5.955899715E0;2.952399969E0;-3.401000023E0
1.117703750E1;1.979699969E0;2.305299997E0;3.393999934E-1
1.119689062E1;-1.482899904E0;-3.615499973E0;4.200200081E0
1.121674219E1;-3.999300003E0;-4.703000069E0;5.701600075E0
1.123659531E1;-4.582499981E0;-1.057639980E1;3.159199953E0
1.125644844E1;-8.816999435E0;-1.260349941E1;-6.482499599E0
1.127630000E1;-1.134589958E1;-6.570000052E-1;5.343400002E0
1.129615312E1;-7.901099682E0;4.503299713E0;5.250000000E0
1.131600469E1;-3.000999928E0;4.898499966E0;5.300099850E0
1.133585781E1;-1.855599999E0;2.071699858E0;5.293900013E0
1.135571094E1;3.303999901E-1;-1.018499970E0;6.291100025E0
1.137556406E1;9.975000024E-1;-1.417899966E0;5.501899719E0
1.139541719E1;1.217000008E0;-5.005999804E-1;7.257199764E0
1.141526875E1;2.629999876E0;5.042999983E-1;2.027099848E0
1.143512188E1;3.290099859E0;1.362999916E0;-3.560699940E0
1.145497500E1;3.683799982E0;1.303499937E0;-5.078700066E0
1.147482656E1;4.349699974E0;1.433899999E0;-6.733999729E0
1.149467969E1;3.894399881E0;2.047399998E0;-5.144299984E0
1.151453281E1;2.148299932E0;2.764199972E0;-1.465099931E0
1.153438438E1;7.515999675E-1;4.137300014E0;-8.139999956E-2
1.155423750E1;2.504999936E-1;4.891599655E0;-1.158999950E-1
1.157409062E1;5.238000154E-1;4.278100014E0;-2.182999998E-1
1.159394219E1;1.408800006E0;1.604099989E0;2.074999958E-1
1.161379531E1;2.005399942E0;-2.560999990E-1;3.579999804E-1
1.163364844E1;2.251199961E0;-1.047299981E0;3.130999804E-1
1.165350000E1;3.669899940E0;-7.692999840E-1;-6.692000031E-1
1.167335469E1;6.059099674E0;-1.140999943E-1;-1.413299918E0
1.169320625E1;6.392399788E0;-5.515999794E-1;-1.040999964E-1
1.171305781E1;7.242799759E0;1.275999993E-1;-2.689999819E0
1.173291094E1;1.047249985E1;8.994999528E-1;-3.462499857E0
1.175276406E1;1.149479961E1;8.517999649E-1;-3.756599903E0
1.177261719E1;9.945300102E0;-1.543200016E0;-7.480999827E-1
1.179246875E1;9.140699387E0;-5.606699944E0;1.730599999E0
1.181232188E1;4.868799686E0;-1.206239986E1;1.836099982E0
1.183217500E1;-2.172899961E0;-2.219289970E1;5.837199688E0
1.185202812E1;-9.209699631E0;-2.275729942E1;5.374399662E0
1.187187969E1;-1.014109993E1;-9.651000023E0;7.019000053E-1
1.189173125E1;-5.927199841E0;6.004999876E-1;-4.310999870E0
1.191158438E1;-2.738499880E0;5.417200089E0;-4.219199657E0
1.193143750E1;-3.213199854E0;5.431299686E0;2.698999941E-1
1.195130781E1;-2.831899881E0;5.295000076E0;2.959800005E0
1.197114219E1;-2.268800020E0;4.888799667E0;5.258899689E0
1.199099531E1;-4.111000061E0;3.689699888E0;6.803799629E0
1.201084844E1;-6.053999901E0;3.684700012E0;5.868299961E0
1.203070156E1;-6.973399639E0;5.097499847E0;4.892600060E0
1.205055625E1;-7.401099682E0;6.639699936E0;3.936800003E0
1.207040625E1;-6.528800011E0;7.573799610E0;4.255799770E0
1.209025938E1;-4.416299820E0;6.807399750E0;4.001500130E0
1.211011094E1;-1.678699970E0;4.045399666E0;8.200000040E-3
1.212996406E1;1.193199992E0;-6.251999736E-1;-1.123779964E1
1.214981719E1;1.031129932E1;-5.050899982E0;-9.698599815E0
1.216966875E1;1.778800011E1;-8.579799652E0;-2.324999869E-1
1.218952188E1;8.316100121E0;-5.067899704E0;1.949999928E-1
1.220937500E1;4.279099941E0;1.697099924E0;-3.229599953E0
1.222922812E1;1.778800011E0;-4.187299728E0;2.620499849E0
1.224907969E1;-4.779999852E-1;-7.624300003E0;6.027800083E0
1.226894062E1;-6.349699974E0;-7.308300018E0;-3.720999956E-1
1.228878594E1;-1.121879959E1;-2.510000020E-2;-3.422899961E0
1.230863750E1;-8.771699905E0;-1.405099988E0;6.358500004E0
1.232849062E1;-5.130899906E0;-4.193200111E0;7.637099743E0
1.234834375E1;-4.347000122E0;-1.964800000E0;5.433899879E0
1.236819531E1;-3.105700016E0;3.998000026E-1;4.457900047E0
1.238804844E1;-1.730899930E0;3.833999932E-1;4.617300034E0
1.240790156E1;2.888999879E-1;7.562999725E-1;5.276999950E0
1.242775312E1;1.679299951E0;1.321099997E0;5.174099922E0
1.244760625E1;1.893599987E0;1.185199976E0;1.992999911E0
1.246745938E1;1.556100011E0;1.711099982E0;-5.385999680E-1
1.248731250E1;2.967200041E0;2.464200020E0;-2.181799889E0
1.250716406E1;3.440399885E0;2.180899858E0;-2.324699879E0
1.252701719E1;2.888499975E0;1.741199970E0;-8.885999918E-1
1.254686875E1;2.822499990E0;1.726599932E0;-3.579999879E-2
1.256672188E1;3.037199974E0;2.322399855E0;-3.471999764E-1
1.258657500E1;2.513399839E0;3.016000032E0;-1.097000003E0
1.260642812E1;1.830799937E0;2.232699871E0;-2.827299833E0
1.262627969E1;1.817299962E0;7.299000025E-1;-3.078199863E0
1.264613281E1;2.029399872E0;6.589999795E-2;-1.752200007E0
1.266598594E1;1.866999984E0;-1.769999973E-2;-3.285000026E-1
1.268583906E1;3.849499941E0;-5.647999644E-1;-4.926999807E-1
1.270569062E1;6.364299774E0;3.731999993E-1;-8.779000044E-1
1.272554375E1;7.010900021E0;1.100999951E0;-3.479999900E-1
1.274539688E1;6.904699802E0;9.113999605E-1;-1.464999914E0
1.276524844E1;8.488299370E0;-8.111999631E-1;-2.899699926E0
1.278510000E1;1.051579952E1;-2.637099981E0;-2.793299913E0
1.280495469E1;9.919099808E0;-4.805399895E0;-8.470999599E-1
1.282480781E1;4.578399658E0;-6.607399940E0;1.245399952E0
1.284465938E1;1.746500015E0;-8.335399628E0;1.578199983E0
1.286451250E1;-1.816699982E0;-1.171609974E1;1.986899972E0
1.288436563E1;-5.517199993E0;-1.441259956E1;4.181799889E0
1.290421719E1;-8.260499954E0;-1.067599964E1;4.297999859E0
1.292407031E1;-6.210499763E0;-2.187999964E0;1.539799929E0
1.294392188E1;-3.232299805E0;3.422999859E0;-1.310500026E0
1.296377500E1;-1.939499974E0;4.900599957E0;-1.579499960E0
1.298362813E1;-2.729399920E0;4.596699715E0;5.049999803E-2
1.300348125E1;-1.499099970E0;5.259299755E0;9.547999501E-1
1.302333281E1;-1.528599977E0;5.003799915E0;4.612800121E0
1.304318594E1;-3.447599888E0;3.277699947E0;4.698800087E0
1.306303906E1;-4.993799686E0;2.593499899E0;5.149300098E0
1.308289063E1;-5.326499939E0;3.429999828E0;5.128299713E0
1.310274375E1;-5.772500038E0;4.284699917E0;4.794600010E0
1.312259688E1;-6.090300083E0;5.187799931E0;4.686999798E0
1.314244844E1;-5.685599804E0;5.090899944E0;4.121099949E0
1.316230156E1;-2.561199903E0;3.434299946E0;1.363999963E0
1.318215469E1;7.813000083E-1;4.582999945E-1;-7.362699986E0
1.320200625E1;1.159989929E1;-1.924799919E0;-1.611159897E1
1.322185938E1;1.910639954E1;-5.243499756E0;4.528999925E-1
1.324171250E1;7.650199890E0;-3.985499859E0;1.048399925E0
1.326156406E1;2.514499903E0;3.518999815E0;-6.187299728E0
1.328141719E1;7.578999996E-1;1.906999946E-1;5.172699928E0
1.330127031E1;-2.095000029E0;-9.310799599E0;6.974599838E0
1.332112188E1;-1.764199972E0;-1.860840034E1;3.899399996E0
1.334097500E1;-6.560899734E0;-5.938099861E0;-3.041100025E0
1.336082813E1;-1.105340004E1;3.383199930E0;-4.889599800E0
1.338068125E1;-6.967299938E0;3.392400026E0;6.918799877E0
1.340053281E1;-2.812099934E0;9.023999572E-1;7.601999760E0
1.342038594E1;-1.272499919E0;-2.623299837E0;6.118499756E0
1.344023906E1;1.481599927E0;-4.219599724E0;6.171700001E0
1.346009063E1;3.438799858E0;-2.658699989E0;5.842700005E0
1.347994375E1;1.488199949E0;2.163999975E-1;9.356999993E-1
1.349979844E1;2.435999960E-1;2.779299974E0;-1.547500014E0
1.351964844E1;-2.391999960E-1;3.210999966E0;-1.356199980E0
1.353950156E1;-7.775999904E-1;2.250000000E0;-5.500000119E-1
1.355935469E1;-7.713999748E-1;1.188499928E0;5.719999671E-1
1.357920781E1;4.705999792E-1;1.807099938E0;-1.048000008E-1
1.359905938E1;1.589699984E0;3.251899958E0;-1.492900014E0
1.361891250E1;2.568599939E0;4.609399796E0;-1.732199907E0
1.363876563E1;3.141799927E0;3.967199802E0;-1.150799990E0
1.365861719E1;3.107899904E0;1.747900009E0;-8.270999789E-1
1.367847031E1;2.715299845E0;5.723999739E-1;-6.798999906E-1
1.369832344E1;2.646699905E0;-2.637999952E-1;-1.289299965E0
1.371817500E1;3.693499804E0;-1.281099916E0;-1.690899968E0
1.373802813E1;5.867300034E0;-3.294999897E-1;-1.407099962E0
1.375787969E1;7.789799690E0;1.254999995E0;-1.345700026E0
1.377773438E1;9.026299477E0;3.671999872E-1;-1.173099995E0
1.379758594E1;9.385799408E0;2.030999959E-1;-2.522599936E0
1.381743906E1;1.193239975E1;2.592000067E-1;-2.126899958E0
1.383729219E1;1.116059971E1;6.638000011E-1;-4.550999999E-1
1.385714375E1;9.547100067E0;-2.397399902E0;9.415999651E-1
1.387699688E1;7.385599613E0;-7.414899826E0;4.032000005E-1
1.389685000E1;2.019000053E0;-1.701739883E1;-2.193000019E-1
1.391670156E1;-5.500899792E0;-2.608020020E1;2.218199968E0
1.393655469E1;-8.739299774E0;-1.766059875E1;1.950099945E0
1.395640781E1;-6.472599983E0;-3.723799944E0;-6.082000136E-1
1.397626094E1;-2.616699934E0;3.670300007E0;-2.419999987E-2
1.399611250E1;-1.210999966E0;5.108399868E0;2.400099993E0
1.401596563E1;-1.181100011E0;4.568099976E0;7.066799641E0
1.403581875E1;-3.262199879E0;3.419600010E0;7.019899845E0
1.405567031E1;-6.880699635E0;2.723999977E0;4.438099861E0
1.407552344E1;-8.585999489E0;3.866499901E0;2.436699867E0
1.409537656E1;-9.571700096E0;5.196499825E0;3.751299858E0
1.411522813E1;-8.911600113E0;7.409499645E0;4.796000004E0
1.413508125E1;-6.394799709E0;8.757399559E0;4.771999836E0
1.415493438E1;-3.881599903E0;6.453299999E0;1.001699924E0
1.417478594E1;-1.912599921E0;2.461099863E0;-7.419099808E0
1.419463906E1;5.491799831E0;-2.391399860E0;-1.165730000E1
1.421449219E1;1.421589947E1;-1.033449936E1;-1.816100001E0
1.423434531E1;1.278259945E1;-1.199380016E1;2.764999866E-1
1.425419688E1;6.045300007E0;5.396000147E-1;-3.707000017E0
1.427405000E1;7.364999652E-1;-7.279999554E-2;1.912299991E0
1.429390156E1;-6.320999861E-1;-3.289499998E0;4.749799728E0
1.431375469E1;-3.442799807E0;-9.041199684E0;4.707200050E0
1.433360781E1;-7.262199879E0;-9.691699982E0;-2.597499847E0
1.435345938E1;-1.179739952E1;-5.097000003E-1;3.136399984E0
1.437331250E1;-1.094110012E1;1.334999919E0;6.280499935E0
1.439316563E1;-5.211400032E0;-1.181900024E0;6.732100010E0
1.441301875E1;-3.931099892E0;-3.741599798E0;4.809499741E0
1.443287031E1;-2.835999966E0;-2.172600031E0;6.091099739E0
1.445272344E1;-2.099999934E-1;2.657999992E-1;5.907499790E0
1.447257656E1;2.591099977E0;1.852899909E0;4.042699814E0
1.449242813E1;4.046999931E0;2.754299879E0;5.619999766E-2
1.451228125E1;2.787999868E0;2.997099876E0;-1.454499960E0
1.453213281E1;3.322099924E0;2.697199821E0;-1.210099936E0
1.455198594E1;1.649699926E0;7.070999742E-1;-8.021999598E-1
1.457183906E1;1.408999920E0;8.341999650E-1;-2.495199919E0
1.459169219E1;3.051800013E0;1.648000002E0;-3.712799788E0
1.461154375E1;3.250799894E0;1.542299986E0;-3.903699875E0
1.463139688E1;3.924199820E0;1.094499946E0;-2.224499941E0
1.465125000E1;4.280999660E0;7.139999866E-1;2.584999800E-1
1.467110156E1;3.801999807E0;-2.126999944E-1;5.329999700E-2
1.469095469E1;3.957999945E0;-1.090600014E0;-1.551199913E0
1.471080781E1;5.961699963E0;-1.162599921E0;-1.108799934E0
1.473066094E1;6.921599865E0;4.030000046E-2;4.189999774E-2
1.475051250E1;7.069299698E0;-5.848000050E-1;9.702999592E-1
1.477036562E1;7.236799717E0;-1.714100003E0;-1.700599909E0
1.479021719E1;8.065599442E0;-1.708199978E0;-4.134599686E0
1.481007031E1;7.039000034E0;-6.279000044E-1;-3.590899944E0
1.482992344E1;5.419699669E0;-1.980399966E0;-2.284399986E0
1.484977656E1;2.941399813E0;-4.389899731E0;-1.905200005E0
1.486962812E1;-5.356999636E-1;-8.246199608E0;-1.096099973E0
1.488948125E1;-4.838699818E0;-1.273479939E1;-2.855599880E0
1.490933281E1;-7.440499783E0;-1.286979961E1;-3.378999829E-1
1.492918750E1;-7.554800034E0;-6.024600029E0;1.415799975E0
1.494903906E1;-5.167699814E0;9.501000047E-1;9.168999791E-1
1.496889219E1;-2.237900019E0;5.116899967E0;1.387799978E0
1.498874531E1;-2.364999950E-1;6.617799759E0;3.464999914E0
1.500859688E1;6.144999862E-1;6.738699913E0;6.687799931E0
1.502845000E1;-1.995799899E0;4.812200069E0;8.407400131E0
1.504830312E1;-4.773799896E0;2.831199884E0;4.676499844E0
1.506815625E1;-6.653999805E0;2.222100019E0;1.076200008E0
1.508800781E1;-8.452400208E0;2.125900030E0;1.059800029E0
1.510786094E1;-8.794099808E0;2.778199911E0;3.453599930E0
1.512771406E1;-7.447599888E0;3.994399786E0;3.992199898E0
1.514756562E1;-4.495299816E0;3.228600025E0;2.580799818E0
1.516741875E1;-5.460000038E-2;3.634999990E-1;-2.601099968E0
1.518727188E1;1.049079990E1;-3.492499828E0;-1.724759865E1
1.520712344E1;2.240129852E1;-8.419300079E0;-7.472899914E0
1.522697656E1;1.137259960E1;-6.991299629E0;3.036700010E0
1.524682969E1;3.465999842E0;8.818999529E-1;-2.748299837E0
1.526668125E1;-9.370999932E-1;-1.057500005E0;1.949199915E0
1.528653438E1;-3.239899874E0;-3.692699909E0;6.363100052E0
1.530638750E1;-4.204100132E0;-8.532899857E0;4.258599758E0
1.532624062E1;-9.096599579E0;-8.109999657E0;-4.100800037E0
1.534609219E1;-1.040299988E1;-4.621999860E-1;4.173999786E0
1.536594531E1;-8.072400093E0;2.210399866E0;5.671700001E0
1.538579844E1;-3.730599880E0;1.924199939E0;5.496299744E0
1.540565000E1;-4.201999664E0;1.829999872E-2;6.161099911E0
1.542550312E1;-3.117799997E0;-2.129999921E-2;5.686999798E0
1.544535469E1;-1.737999916E-1;5.098000169E-1;5.093599796E0
1.546520781E1;1.081599951E0;7.428999543E-1;5.390299797E0
1.548506094E1;2.603199959E0;9.287999868E-1;2.330499887E0
1.550491406E1;3.653100014E0;2.041599989E0;-3.407799959E0
1.552476719E1;4.290899754E0;1.786899924E0;-4.185499668E0
1.554461875E1;3.152499914E0;6.390999556E-1;-1.796099901E0
1.556447188E1;3.054999828E0;7.383999825E-1;-1.521099925E0
1.558432344E1;3.689599991E0;1.090199947E0;-2.397199869E0
1.560417656E1;3.209399939E0;1.395999908E0;-2.380699873E0
1.562402969E1;3.056799889E0;1.497999907E0;-5.924999714E-1
1.564388281E1;2.771499872E0;4.236999750E-1;-3.678999841E-1
1.566373438E1;2.674099922E0;-1.775999963E-1;-3.082999885E-1
1.568358750E1;3.469399929E0;-7.178999782E-1;-8.199999481E-2
1.570344062E1;3.828099966E0;-5.195999742E-1;-2.847999930E-1
1.572329219E1;4.278699875E0;-8.407999873E-1;-3.832999766E-1
1.574314531E1;5.177299976E0;-2.137799978E0;-2.374999970E-1
1.576299844E1;4.619100094E0;-2.273699999E0;-7.648999691E-1
1.578285000E1;5.630399704E0;-1.707799911E0;-3.589799881E0
1.580270312E1;4.622600079E0;9.345999956E-1;-3.353099823E0
1.582255469E1;5.241600037E0;2.185699940E0;-3.218299866E0
1.584240781E1;4.913199902E0;-5.105999708E-1;-2.699699879E0
1.586226094E1;2.731400013E0;-4.946700096E0;-7.681999803E-1
1.588211250E1;-1.177099943E0;-9.281799316E0;-1.283599973E0
1.590196562E1;-4.557099819E0;-1.155830002E1;4.660999775E-1
1.592181875E1;-7.070899963E0;-9.812699318E0;1.187199950E0
1.594167188E1;-6.573799610E0;-2.444799900E0;3.508999944E-1
1.596152344E1;-3.011799812E0;2.820499897E0;2.779999934E-2
1.598137656E1;-5.648999810E-1;5.251899719E0;1.189000010E0
1.600122969E1;-8.100000024E-1;4.654099941E0;3.741799831E0
1.602108125E1;-3.676499844E0;2.500900030E0;6.857299805E0
1.604093438E1;-4.839999676E0;2.090600014E0;3.443499804E0
1.606078750E1;-5.286299706E0;2.903899908E0;-1.428999901E-1
1.608064062E1;-6.568799973E0;3.056200027E0;3.296999931E-1
1.610049219E1;-7.205399990E0;3.343299866E0;3.037099838E0
1.612034531E1;-6.086400032E0;4.329199791E0;3.827600002E0
1.614019844E1;-4.221499920E0;4.412199974E0;2.989799976E0
1.616005000E1;-8.901999593E-1;2.781299829E0;7.522999644E-1
1.617990313E1;4.146999836E0;-1.954699993E0;-6.024099827E0
1.619975625E1;1.721489906E1;-6.787999630E0;-1.441559982E1
1.621960781E1;1.763220024E1;-7.864499569E0;9.460999966E-1
1.623946094E1;6.006099701E0;-1.282999963E-1;-3.254999876E0
1.625931406E1;-1.451999992E-1;3.452000022E-1;3.088999987E-1
1.627916719E1;-1.634199977E0;-3.139299870E0;5.053499699E0
1.629901875E1;-2.550400019E0;-6.830699921E0;7.308899879E0
1.631887188E1;-7.521499634E0;-9.061800003E0;-6.343999863E0
1.633872500E1;-1.056250000E1;-2.051300049E0;3.085999966E0
1.635857656E1;-9.052499771E0;1.423900008E0;6.084199905E0
1.637842969E1;-5.041800022E0;1.752999902E0;5.041299820E0
1.639828281E1;-4.218999863E0;-2.390999943E-1;4.391799927E0
1.641813594E1;-3.799999952E0;-5.029999614E-1;5.186500072E0
1.643798750E1;-1.492299914E0;4.975999892E-1;5.500199795E0
1.645784062E1;1.220399976E0;7.195000052E-1;6.693099976E0
1.647769375E1;2.561599970E0;7.935999632E-1;2.573099852E0
1.649754531E1;1.660599947E0;1.477899909E0;-1.408999920E0
1.651739844E1;2.966099977E0;2.702899933E0;-2.250799894E0
1.653725156E1;2.833600044E0;1.265299916E0;-2.011600018E0
1.655710312E1;2.227200031E0;5.209999681E-1;-2.545599937E0
1.657695625E1;2.933399916E0;1.345499992E0;-3.049199820E0
1.659680938E1;3.129599810E0;1.337700009E0;-2.277499914E0
1.661666094E1;4.028199673E0;4.133999944E-1;-8.036999702E-1
1.663651406E1;3.727899790E0;-5.126999617E-1;-4.853999913E-1
1.665636719E1;3.177399874E0;-7.207999825E-1;-2.437999964E0
1.667622500E1;4.719599724E0;-8.438999653E-1;-1.687099934E0
1.669607188E1;6.019000053E0;-1.671999991E-1;-2.859999835E-1
1.671592500E1;6.315599918E0;4.332999885E-1;2.866999805E-1
1.673577812E1;5.778500080E0;-7.277999520E-1;-1.937000006E-1
1.675562969E1;6.563600063E0;-1.335099936E0;-2.794899940E0
1.677548281E1;6.048299789E0;-9.675999880E-1;-3.230399847E0
1.679533438E1;5.115600109E0;-3.199999779E-2;-2.856299877E0
1.681518906E1;3.620699883E0;-1.245700002E0;-1.708999991E0
1.683504062E1;2.521499872E0;-4.341300011E0;3.723999858E-1
1.685489375E1;-1.296399951E0;-8.656399727E0;8.104000092E-1
1.687474531E1;-4.345200062E0;-1.167589951E1;1.012599945E0
1.689459844E1;-6.752699852E0;-1.106279945E1;1.335699916E0
1.691445781E1;-6.009500027E0;-4.542999744E0;2.162999958E-1
1.693430312E1;-2.733899832E0;1.365000010E0;-2.989999950E-2
1.695415625E1;-1.165400028E0;4.217400074E0;1.904099941E0
1.697400938E1;-3.673000038E-1;5.068599701E0;3.426299810E0
1.699386250E1;-7.918999791E-1;4.870999813E0;4.955800056E0
1.701371406E1;-4.456900120E0;3.302999973E0;4.867799759E0
1.703356719E1;-6.269999981E0;3.195999861E0;2.896699905E0
1.705341875E1;-7.454999924E0;3.447199821E0;1.639599919E0
1.707327188E1;-8.968799591E0;3.588599920E0;2.574899912E0
1.709314062E1;-8.673600197E0;4.438600063E0;3.905599833E0
1.711297656E1;-6.786999702E0;4.454199791E0;3.301699877E0
1.713282969E1;-2.770299911E0;2.737299919E0;7.459999919E-1
1.715268281E1;1.510499954E0;-1.742599964E0;-6.622999668E0
1.717253438E1;1.668610001E1;-6.434700012E0;-1.681939888E1
1.719238750E1;2.180799866E1;-9.457300186E0;3.428999901E0
1.721224062E1;7.585199833E0;-2.194599867E0;-1.828199983E0
1.723209375E1;3.083899975E0;5.363499641E0;-4.040800095E0
1.725194531E1;-6.078999639E-1;-4.204999804E-1;4.648600101E0
1.727179844E1;-3.864599943E0;-4.291800022E0;7.615399837E0
1.729165156E1;-5.391999722E0;-1.203409958E1;-1.491899967E0
1.731150312E1;-7.871299744E0;-1.016489983E1;3.371500015E0
1.733135625E1;-1.001379967E1;-1.590699911E0;6.462599754E0
1.735120938E1;-8.478599548E0;1.308499932E0;5.286799908E0
1.737106094E1;-5.323800087E0;1.490599990E0;3.840899944E0
1.739091406E1;-5.012399673E0;2.185999900E-1;5.216899872E0
1.741076562E1;-2.150799990E0;3.989999741E-2;5.668600082E0
1.743062031E1;1.964999884E-1;-1.059999987E-1;5.067399979E0
1.745047188E1;5.717999935E-1;1.771000028E-1;3.566399813E0
1.747032500E1;3.382000029E-1;1.196599960E0;3.947699785E0
1.749017812E1;2.179800034E0;1.777899981E0;-1.029600024E0
1.751002969E1;3.697099924E0;2.103800058E0;-5.237099648E0
1.752988281E1;3.142799854E0;2.150199890E0;-4.224299908E0
1.754973594E1;2.933199883E0;2.053799868E0;-2.285500050E0
1.756958906E1;3.402499914E0;2.088199854E0;-1.744899988E0
1.758944062E1;3.550400019E0;1.411899924E0;-2.180999964E-1
1.760929375E1;3.491199970E0;6.100000143E-1;9.208999872E-1
1.762914688E1;3.019299984E0;1.326999962E-1;1.035099983E0
1.764899844E1;2.547099829E0;-5.647000074E-1;-1.008199930E0
1.766885156E1;3.619999886E0;-1.067000031E0;-1.857599974E0
1.768870469E1;5.226599693E0;-3.886999786E-1;-1.056999922E0
1.770855625E1;6.085499763E0;-1.011999995E-1;-5.920999646E-1
1.772840938E1;6.752699852E0;-9.344999790E-1;-8.057999611E-1
1.774826094E1;7.136699677E0;-2.426100016E0;-2.722800016E0
1.776811406E1;6.944299698E0;-1.128099918E0;-2.674099922E0
1.778796719E1;6.482100010E0;-1.260000002E-2;-2.295799971E0
1.780782344E1;5.071599960E0;-1.454999924E0;-1.514400005E0
1.782767344E1;3.312999964E0;-3.850299835E0;3.871999979E-1
1.784752500E1;4.309999943E-1;-7.490599632E0;1.057399988E0
1.786737813E1;-3.278299809E0;-1.062889957E1;1.699899912E0
1.788723125E1;-6.839200020E0;-1.109229946E1;3.875799894E0
1.790709375E1;-6.244199753E0;-6.511699677E0;1.456300020E0
1.792693594E1;-3.406099796E0;7.181999683E-1;7.209999859E-2
1.794678750E1;-2.698099852E0;3.983099937E0;2.028300047E0
1.796664062E1;-2.122999907E0;4.717700005E0;3.475899935E0
1.798649375E1;-1.241599917E0;5.082799911E0;3.822799921E0
1.800634688E1;-1.612100005E0;4.718299866E0;4.190000057E0
1.802620000E1;-3.609299898E0;3.470899820E0;2.896899939E0
1.804605156E1;-5.089399815E0;2.910099983E0;2.273599863E0
1.806590469E1;-7.297799587E0;2.455299854E0;2.105799913E0
1.808575781E1;-8.627999306E0;2.970700026E0;3.061300039E0
1.810560938E1;-8.416199684E0;4.173799992E0;4.274399757E0
1.812546250E1;-5.992599964E0;4.252900124E0;4.206900120E0
1.814531563E1;-1.279899955E0;1.924499989E0;1.480799913E0
1.816516719E1;5.042099953E0;-4.279900074E0;-1.259210014E1
1.818502031E1;1.820299911E1;-1.076719952E1;-9.281999588E0
1.820487344E1;1.578279972E1;-8.224900246E0;3.480499983E0
1.822472656E1;6.977799892E0;1.796499968E0;-4.081500053E0
1.824457812E1;2.785699844E0;3.581799984E0;-1.227299929E0
1.826443125E1;6.930999756E-1;-1.708899975E0;6.066799641E0
1.828428438E1;-3.692799807E0;-2.958899975E0;6.613499641E0
1.830413594E1;-6.087999821E0;-7.500799656E0;-2.812099934E0
1.832398906E1;-8.359899521E0;-6.863899708E0;1.148299932E0
1.834384063E1;-8.230699539E0;-8.469999582E-2;6.840499878E0
1.836369375E1;-6.532099724E0;3.360899925E0;5.892600060E0
1.838354688E1;-3.249500036E0;1.608099937E0;3.722599983E0
1.840339844E1;-2.391899824E0;-1.161599994E0;5.502699852E0
1.842325156E1;8.565999866E-1;-1.859499931E0;5.388199806E0
1.844310469E1;2.079400063E0;-1.022499919E0;6.683099747E0
1.846295625E1;8.055999875E-1;6.135999560E-1;7.168599606E0
1.848280938E1;1.642199993E0;1.701299906E0;3.847999871E-1
1.850266250E1;2.358700037E0;2.978899956E0;-2.314699888E0
1.852251406E1;9.607999921E-1;2.216099977E0;-2.591099977E0
1.854236719E1;-3.768000007E-1;6.897000074E-1;-5.777100086E0
1.856222031E1;4.937999845E-1;2.049200058E0;-5.638499737E0
1.858207344E1;1.910899997E0;2.215399981E0;-7.490999699E-1
1.860192500E1;2.641299963E0;1.268899918E0;7.955999970E-1
1.862177813E1;2.467000008E0;-3.280999959E-1;9.413999915E-1
1.864163125E1;3.394099951E0;-1.075199962E0;-3.838000000E-1
1.866148281E1;4.315899849E0;-1.554899931E0;-8.655999899E-1
1.868133594E1;6.598999977E0;-9.344999790E-1;-7.103999853E-1
1.870118906E1;8.048999786E0;1.720999926E-1;3.269999847E-2
1.872104219E1;8.958600044E0;-4.256999791E-1;-8.952999711E-1
1.874089375E1;8.361700058E0;-7.769999653E-2;-3.932099819E0
1.876074688E1;7.105399609E0;8.578999639E-1;-4.127699852E0
1.878060000E1;5.608299732E0;4.393999875E-1;-4.595799923E0
1.880045156E1;5.638999939E0;-1.941899896E0;-1.274500012E0
1.882030469E1;4.264499664E0;-4.081799984E0;1.418499947E0
1.884015781E1;2.297699928E0;-8.129099846E0;2.006000042E0
1.886000938E1;-2.075799942E0;-1.316319942E1;2.052500010E0
1.887986250E1;-6.480899811E0;-1.438140011E1;4.359899998E0
1.889971406E1;-7.964299679E0;-7.678799629E0;1.884400010E0
1.891956875E1;-5.157099724E0;7.824999690E-1;3.008999825E-1
1.893942031E1;-2.704499960E0;4.896100044E0;7.608999610E-1
1.895927344E1;-2.437799931E0;5.905799866E0;1.525200009E0
1.897912656E1;-1.630899906E0;5.916899681E0;2.367599964E0
1.899898281E1;-2.406800032E0;4.930699825E0;5.050999641E0
1.901883125E1;-4.928599834E0;3.227999926E0;6.289999962E0
1.903868438E1;-6.111799717E0;2.617799997E0;2.679899931E0
1.905853594E1;-7.192100048E0;2.665199995E0;2.744199991E0
1.907838906E1;-7.568500042E0;3.379899979E0;3.629499912E0
1.909824219E1;-6.094500065E0;4.548599720E0;3.499399900E0
1.911809375E1;-2.617599964E0;3.786199808E0;1.472800016E0
1.913794688E1;7.079999894E-2;3.720999956E-1;-2.612200022E0
1.915780000E1;9.356599808E0;-3.309999943E0;-1.762259865E1
1.917765313E1;1.858969879E1;-9.035999298E0;-3.933799982E0
1.919750469E1;8.627900124E0;-6.546700001E0;2.043599844E0
1.921735781E1;5.074599743E0;3.870999813E0;-7.107399940E0
1.923721094E1;2.284899950E0;2.076999903E0;1.325500011E0
1.925706250E1;-1.476599932E0;-2.592399836E0;9.557899475E0
1.927691562E1;-4.780399799E0;-5.881999969E0;6.862799644E0
1.929676875E1;-7.774199963E0;-1.302149963E1;-6.941999912E0
1.931662188E1;-9.276299477E0;-8.173999786E0;6.321599960E0
1.933647344E1;-9.434299469E0;-1.966999918E-1;7.272399902E0
1.935632656E1;-5.866399765E0;2.635499954E0;4.362499714E0
1.937617813E1;-3.243599892E0;1.811100006E0;4.468400002E0
1.939603125E1;-1.751699924E0;2.863999903E-1;6.442599773E0
1.941588438E1;-4.260999858E-1;-1.185500026E0;4.969699860E0
1.943573594E1;9.149000049E-1;-5.830000043E-1;4.094900131E0
1.945558906E1;1.562699914E0;1.403499961E0;4.679299831E0
1.947544219E1;2.491199970E0;2.117499828E0;-4.517999887E-1
1.949529375E1;2.651000023E0;2.162999868E0;-4.657000065E0
1.951514688E1;1.696299911E0;2.498899937E0;-6.394299984E0
1.953500000E1;2.212499857E0;2.713099957E0;-4.862400055E0
1.955485312E1;3.556699991E0;1.889999986E0;-2.002799988E0
1.957470469E1;4.551700115E0;6.419000030E-1;-3.892000020E-1
1.959455781E1;4.790199757E0;-2.953000069E-1;7.346000075E-1
1.961440938E1;3.614699841E0;-7.119999826E-2;-1.213899970E0
1.963426250E1;3.360899925E0;-5.489000082E-1;-1.747299910E0
1.965411563E1;5.198499680E0;-1.172999963E-1;-5.588999987E-1
1.967396719E1;7.003299713E0;1.367999911E-1;1.475999951E-1
1.969382031E1;7.434999943E0;-4.721999764E-1;4.935999811E-1
1.971367344E1;7.804699898E0;-1.546700001E0;-2.681299925E0
1.973352656E1;7.191199780E0;-1.529699922E0;-3.342399836E0
1.975337812E1;6.572899818E0;-2.110300064E0;-3.490000010E0
1.977323125E1;4.686299801E0;-3.313499928E0;-2.649699926E0
1.979309375E1;9.038999677E-1;-5.894700050E0;-8.314999938E-1
1.981293594E1;-3.434899807E0;-1.021819973E1;-2.145599842E0
1.983278906E1;-6.530299664E0;-1.298329926E1;-3.419399977E0
1.985264219E1;-8.765799522E0;-1.082019997E1;2.299999893E-1
1.987249375E1;-6.695399761E0;-3.714699984E0;1.314499974E0
1.989234688E1;-3.638599873E0;1.866499901E0;1.440400004E0
1.991220000E1;-2.437399864E0;4.214200020E0;3.316200018E0
1.993205312E1;-9.842000008E-1;5.749300003E0;5.009399891E0
1.995190469E1;1.873600006E0;7.471199989E0;5.582499981E0
1.997175781E1;3.664000034E-1;7.099799633E0;7.145599842E0
1.999161094E1;-3.706499815E0;4.613199711E0;3.928299904E0
2.001146250E1;-5.702099800E0;3.074299812E0;1.332099915E0
2.003131562E1;-7.273699760E0;2.338000059E0;1.361999989E0
2.005116875E1;-8.768400192E0;2.654700041E0;2.522599936E0
2.007102188E1;-8.884900093E0;3.266799927E0;4.225199699E0
2.009087344E1;-5.215499878E0;2.207200050E0;3.945299864E0
2.011072656E1;1.240899920E0;-1.547500014E0;-5.859200001E0
2.013057969E1;1.652269936E1;-6.644000053E0;-2.032559967E1
2.015043125E1;2.012959862E1;-1.107100010E1;2.055000067E0
2.017028438E1;7.100800037E0;-1.988999963E0;-1.560199976E0
2.019013750E1;3.713299990E0;2.763099909E0;-5.420599937E0
2.020998906E1;5.156999826E-1;-3.784199953E0;2.440599918E0
2.022984219E1;-1.930199981E0;-6.342899799E0;8.219499588E0
2.024969531E1;-5.504099846E0;-6.949199677E0;2.387899876E0
2.026954844E1;-1.093789959E1;-3.219499826E0;1.295199990E0
2.028940000E1;-7.651399612E0;6.528999805E-1;7.342499733E0
2.030925312E1;-6.638199806E0;1.095999956E0;6.783299923E0
2.032910625E1;-5.176099777E0;-1.335999966E-1;5.466000080E0
2.034895781E1;-2.450099945E0;-1.019600034E0;5.386199951E0
2.036881094E1;-1.159199953E0;-1.735000014E0;5.171599865E0
2.038866406E1;-2.034999877E-1;-1.439899921E0;5.383999825E0
2.040851562E1;5.891999602E-1;2.480999976E-1;4.687500000E0
2.042836875E1;9.985999465E-1;2.357499838E0;1.655799985E0
2.044822188E1;3.015100002E0;3.462699890E0;-3.763700008E0
2.046807344E1;2.101799965E0;2.731499910E0;-4.760999680E0
2.048792656E1;1.501999974E0;1.079800010E0;-4.965300083E0
2.050777969E1;1.583499908E0;1.779999971E0;-4.191800117E0
2.052763281E1;2.626899958E0;1.795599937E0;-5.604000092E-1
2.054748438E1;3.631899834E0;6.565999985E-1;5.924999714E-1
2.056733750E1;3.705600023E0;-5.769000053E-1;1.235199928E0
2.058719062E1;3.374499798E0;-3.935000002E-1;-1.034600019E0
2.060704531E1;3.435199976E0;-1.172199965E0;-1.792099953E0
2.062689531E1;5.464900017E0;-1.431699991E0;-6.787999868E-1
2.064674844E1;7.180299759E0;-2.653999925E-1;1.889999956E-1
2.066660000E1;8.799900055E0;-5.985999703E-1;-3.712999821E-1
2.068645312E1;8.693499565E0;-1.185199976E0;-2.310199976E0
2.070630625E1;8.506699562E0;-4.029999971E-1;-3.038399935E0
2.072615938E1;6.809399605E0;1.747299910E0;-3.007299900E0
2.074601094E1;6.201399803E0;-5.849999785E-1;-2.117899895E0
2.076586406E1;5.157599926E0;-3.978599787E0;3.173999786E-1
2.078571562E1;2.865999937E0;-8.328499794E0;1.257300019E0
2.080556875E1;-3.848099947E0;-1.465310001E1;7.436999679E-1
2.082542188E1;-8.421099663E0;-1.594429970E1;3.001999855E0
2.084527344E1;-1.040329933E1;-8.971399307E0;9.115999937E-1
2.086512656E1;-5.925899982E0;1.116500020E0;-1.057199955E0
2.088497969E1;-2.332099915E0;5.614299774E0;3.539999947E-2
2.090483281E1;-1.384899974E0;6.352099895E0;1.402400017E0
2.092468438E1;-6.477999687E-1;6.590099812E0;4.373899937E0
2.094453750E1;-1.001999974E0;5.581299782E0;7.961199760E0
2.096439062E1;-3.207199812E0;3.736799955E0;6.488100052E0
2.098424219E1;-5.413499832E0;2.292599916E0;3.799499989E0
2.100409531E1;-7.354499817E0;1.794699907E0;2.122799873E0
2.102394688E1;-9.838500023E0;2.591099977E0;3.315399885E0
2.104380000E1;-9.901599884E0;4.384099960E0;4.875699997E0
2.106365313E1;-5.940499783E0;3.094799995E0;1.590999961E0
2.108350625E1;-1.204999924E0;-3.639999926E-1;-6.898699760E0
2.110335781E1;1.197159958E1;-2.975999832E0;-1.351449966E1
2.112321094E1;2.065789986E1;-1.108519936E1;-4.015599728E0
2.114306406E1;6.088999748E0;-8.184899330E0;-6.604999900E-1
2.116291562E1;4.410900116E0;3.702899933E0;-6.957399845E0
2.118276875E1;1.105399966E0;-2.280000001E-1;7.501999736E-1
2.120262188E1;-5.945999622E-1;-3.071699858E0;9.625299454E0
2.122247500E1;-3.609899998E0;-7.186100006E0;6.941099644E0
2.124232656E1;-6.250899792E0;-9.948399544E0;-1.083400011E0
2.126217969E1;-8.206399918E0;-1.566999912E0;5.051099777E0
2.128203281E1;-6.678499699E0;2.763000011E0;6.481699944E0
2.130188438E1;-4.271899700E0;2.560099840E0;5.422800064E0
2.132173750E1;-2.412600040E0;1.595999897E-1;4.801099777E0
2.134159063E1;-1.429899931E0;-1.197000027E0;5.787399769E0
2.136144219E1;-8.837999701E-1;-1.549099922E0;4.793399811E0
2.138129531E1;-3.484999835E-1;-4.802999794E-1;3.777099848E0
2.140114844E1;-4.256999791E-1;1.862399936E0;3.253199816E0
2.142100156E1;5.521999598E-1;1.607599974E0;-2.023200035E0
2.144085312E1;8.682000041E-1;1.520699978E0;-3.520499945E0
2.146070625E1;1.074499965E0;1.868600011E0;-2.220799923E0
2.148055938E1;1.564000010E0;2.518399954E0;-1.275099993E0
2.150041094E1;2.260299921E0;3.196599960E0;-2.153899908E0
2.152026406E1;3.518999815E0;1.583099961E0;-1.483399987E0
2.154011719E1;3.948899984E0;-8.685999513E-1;1.809999943E-1
2.155996875E1;3.540199995E0;-1.003099918E0;4.089999795E-1
2.157982188E1;2.500399828E0;-4.879999757E-1;-2.518399954E0
2.159967500E1;3.482199907E0;-1.057500005E0;-2.874799967E0
2.161952656E1;6.020199776E0;-9.557999969E-1;-9.498999715E-1
2.163937969E1;7.774199963E0;9.017999768E-1;3.066000044E-1
2.165923281E1;9.071100235E0;1.092100024E0;-3.907999992E-1
2.167908594E1;8.632399559E0;-1.354999989E-1;-2.683199883E0
2.169893750E1;8.053199768E0;-6.028000116E-1;-3.214099884E0
2.171879062E1;6.795599937E0;-8.309999853E-2;-2.257900000E0
2.173864375E1;5.264299870E0;-2.454900026E0;-1.357900023E0
2.175849531E1;2.860499859E0;-5.449399948E0;6.132000089E-1
2.177835469E1;-8.402999640E-1;-1.058469963E1;9.642999768E-1
2.179820156E1;-5.786200047E0;-1.478829956E1;8.879999816E-2
2.181805469E1;-9.152599335E0;-1.254179955E1;2.380899906E0
2.183790625E1;-7.222699642E0;-4.541699886E0;1.903299928E0
2.185775938E1;-3.773699999E0;1.754499912E0;1.313199997E0
2.187761250E1;-6.692999601E-1;4.112499714E0;1.342399955E0
2.189746406E1;4.043999910E-1;5.199399948E0;2.613899946E0
2.191731719E1;1.077099919E0;5.892899990E0;3.868399858E0
2.193717031E1;-1.636699915E0;4.582299709E0;4.545499802E0
2.195702344E1;-5.021299839E0;2.938599825E0;1.884599924E0
2.197687500E1;-5.926499844E0;2.546399832E0;2.023000002E0
2.199672812E1;-7.683899879E0;2.366999865E0;3.506299973E0
2.201657969E1;-9.135700226E0;2.802199841E0;5.071399689E0
2.203643281E1;-9.077699661E0;3.864499807E0;4.822400093E0
2.205628438E1;-7.549899578E0;3.976999998E0;3.886999846E0
2.207613750E1;-3.893499851E0;1.843299985E0;1.032999977E-1
2.209599063E1;2.164700031E0;-2.675499916E0;-9.998099327E0
2.211584375E1;1.784599876E1;-8.006099701E0;-1.423289967E1
2.213569531E1;1.931879997E1;-9.531199455E0;-1.011699915E0
2.215554844E1;7.305199623E0;-9.174999595E-1;-3.728299856E0
2.217540000E1;3.599399805E0;-1.514400005E0;-2.753700018E0
2.219525312E1;8.141999841E-1;-4.950299740E0;1.383799911E0
2.221510625E1;-3.182399988E0;-5.934199810E0;8.170299530E0
2.223495938E1;-6.728199959E0;-3.489300013E0;4.831799984E0
2.225481094E1;-1.107199955E1;2.259999886E-2;-5.381999612E-1
2.227466406E1;-7.904099941E0;-7.860999703E-1;5.887199879E0
2.229451719E1;-5.041800022E0;-1.416899920E0;7.653299809E0
2.231437031E1;-4.390399933E0;-6.362999678E-1;5.802899837E0
2.233422188E1;-1.906999946E0;3.134999871E-1;4.604399681E0
2.235407500E1;-8.139999509E-1;8.919999748E-2;4.079800129E0
2.237392813E1;-1.371999979E-1;-3.556999862E-1;3.159899950E0
2.239377969E1;2.662000060E-1;6.245999932E-1;2.928799868E0
2.241363281E1;1.344200015E0;2.008599997E0;1.501999974E0
2.243348438E1;3.245299816E0;3.099799871E0;-2.109899998E0
2.245333750E1;2.454299927E0;2.647300005E0;-1.354499936E0
2.247319688E1;1.632799983E0;8.950999975E-1;-6.550999880E-1
2.249304375E1;8.859999776E-1;1.318300009E0;-2.286900043E0
2.251289531E1;1.781999946E0;1.810499907E0;-3.271399975E0
2.253274844E1;2.552700043E0;5.720999837E-1;-1.232100010E0
2.255260156E1;3.256199837E0;-3.475999832E-1;7.339999825E-2
2.257245313E1;3.058499813E0;-4.434999824E-1;-1.875000000E-1
2.259230625E1;2.776499987E0;-8.096999526E-1;-1.684499979E0
2.261215938E1;4.455800056E0;-1.143499970E0;-9.183999896E-1
2.263201250E1;5.944499969E0;-3.700999916E-1;-2.946999967E-1
2.265186406E1;6.937199593E0;-5.077999830E-1;1.261999905E-1
2.267171719E1;7.337800026E0;-1.092199922E0;-2.397999913E-1
2.269157031E1;7.884799957E0;-1.069299936E0;-2.765300035E0
2.271142344E1;7.485899925E0;5.920000076E-1;-2.878199816E0
2.273127500E1;5.660500050E0;2.032199860E0;-2.863899946E0
2.275112812E1;5.355400085E0;-1.973000020E-1;-2.242100000E0
2.277098125E1;3.652299881E0;-3.458799839E0;2.809999883E-1
2.279083281E1;2.735999823E-1;-8.299900055E0;3.935999870E-1
2.281068594E1;-3.978299856E0;-1.403289986E1;-5.382999778E-1
2.283053906E1;-8.035499573E0;-1.454229927E1;2.334399939E0
2.285039063E1;-8.229999542E0;-7.141799927E0;2.204299927E0
2.287024375E1;-4.679199696E0;1.091599941E0;5.515999794E-1
2.289009688E1;-1.832399964E0;4.814499855E0;7.699999809E-1
2.290995000E1;-8.931999803E-1;5.779799938E0;1.762599945E0
2.292982031E1;-8.105999827E-1;5.625899792E0;2.258499861E0
2.294965469E1;-2.073999882E0;4.702499866E0;3.889899969E0
2.296950781E1;-4.827199936E0;3.343600035E0;4.452099800E0
2.298935938E1;-5.900199890E0;3.010699987E0;2.600999832E0
2.300921250E1;-7.578199863E0;2.963899851E0;2.393199921E0
2.302906562E1;-8.664699554E0;3.467999935E0;3.321599960E0
2.304891719E1;-8.082200050E0;4.454499722E0;4.150700092E0
2.306877031E1;-5.335999966E0;4.235099792E0;3.021600008E0
2.308862344E1;-1.316599965E0;6.552999616E-1;-1.837099910E0
2.310847500E1;7.853099823E0;-4.481699944E0;-1.413109970E1
2.312832813E1;2.007589912E1;-1.065899944E1;-6.668499947E0
2.314818125E1;1.216969967E1;-7.368599892E0;1.908999920E0
2.316803281E1;6.722399712E0;3.394399881E0;-6.815799713E0
2.318788438E1;3.021899939E0;1.516899943E0;-1.379999965E-1
2.320773906E1;-1.183399916E0;-2.694099903E0;8.587599754E0
2.322759219E1;-4.618499756E0;-3.979099989E0;6.452399731E0
2.324744375E1;-6.283699989E0;-6.318199635E0;-4.829999804E-2
2.326729688E1;-1.018859959E1;-8.675299644E0;7.681999803E-1
2.328715000E1;-8.072999954E0;-2.415199995E0;8.006799698E0
2.330700156E1;-6.206899643E0;1.744699955E0;5.651099682E0
2.332685469E1;-4.954999924E0;2.638399839E0;3.309000015E0
2.334670781E1;-2.929299831E0;1.298399925E0;3.453499794E0
2.336655938E1;-1.134699941E0;-8.709999919E-2;5.160899639E0
2.338641250E1;2.199999988E-2;-9.193999767E-1;4.469399929E0
2.340626406E1;8.486999869E-1;-3.118999898E-1;4.177799702E0
2.342611719E1;8.903999925E-1;1.250599980E0;1.630699992E0
2.344597031E1;2.372099876E0;2.789000034E0;-1.392199993E0
2.346582188E1;2.019099951E0;2.268499851E0;-1.500800014E0
2.348567500E1;1.802899957E0;1.056200027E0;-1.890100002E0
2.350552812E1;1.844699979E0;1.164199948E0;-3.431699991E0
2.352537969E1;2.419199944E0;1.182899952E0;-2.325000048E0
2.354523281E1;2.891899824E0;4.417999983E-1;-2.884999812E-1
2.356508594E1;3.950500011E0;-4.824999869E-1;-6.025999784E-1
2.358493906E1;3.796299934E0;2.279999852E-2;-1.996799946E0
2.360479063E1;4.083399773E0;7.689999789E-2;-1.585399985E0
2.362464375E1;6.260999680E0;-1.846999973E-1;-8.230999708E-1
2.364449688E1;7.745399952E0;2.137999982E-1;-6.629999727E-2
2.366434844E1;7.640599728E0;-5.932999849E-1;6.000999808E-1
2.368420156E1;6.258299828E0;-1.227199912E0;-2.574699879E0
2.370405469E1;7.231499672E0;-9.424999952E-1;-3.695599794E0
2.372390781E1;4.829599857E0;1.046700001E0;-3.350099802E0
2.374375938E1;3.956399918E0;-2.854999900E-1;-2.584100008E0
2.376361250E1;4.241300106E0;-3.977499962E0;4.025000036E-1
2.378346562E1;1.027300000E0;-9.620800018E0;1.361599922E0
2.380331719E1;-4.574299812E0;-1.542449951E1;-1.339599967E0
2.382317031E1;-8.997599602E0;-1.422529984E1;-5.676000118E-1
2.384302344E1;-7.763799667E0;-6.141499996E0;-5.547999740E-1
2.386287656E1;-3.957399845E0;1.736599922E0;-8.249999881E-1
2.388272812E1;-2.097599983E0;4.555900097E0;5.623999834E-1
2.390258125E1;-2.782699823E0;5.048199654E0;2.775699854E0
2.392243438E1;-1.559700012E0;5.702699661E0;3.536000013E0
2.394228594E1;-3.782999814E-1;5.851399899E0;3.562299967E0
2.396214531E1;-2.496899843E0;4.243499756E0;4.203899860E0
2.398199219E1;-4.882199764E0;2.564299822E0;2.914999962E0
2.400184375E1;-6.934899807E0;2.268199921E0;2.406199932E0
2.402169688E1;-8.734499931E0;2.330800056E0;2.712199926E0
2.404155000E1;-8.823599815E0;3.528800011E0;4.065199852E0
2.406140156E1;-6.731400013E0;4.021399975E0;4.621299744E0
2.408125469E1;-2.875299931E0;1.680599928E0;6.484999657E-1
2.410110781E1;1.889199972E0;-2.353499889E0;-6.460799694E0
2.412096094E1;1.587659931E1;-6.766200066E0;-1.275489998E1
2.414081250E1;1.864550018E1;-9.717999458E0;-1.243499994E0
2.416067344E1;7.292399883E0;-2.285500050E0;-3.392899990E0
2.418051875E1;3.674799919E0;2.921999931E0;-6.768000126E-1
2.420037188E1;-8.079999685E-1;-2.249799967E0;2.443199873E0
2.422022344E1;-2.688999891E0;-1.193300009E0;6.491499901E0
2.424007656E1;-3.461699963E0;-2.886600018E0;3.501199961E0
2.425992813E1;-6.840999603E0;-9.810699463E0;-5.791199684E0
2.427978125E1;-7.735499859E0;-5.211699963E0;6.094399929E0
2.429963438E1;-6.400099754E0;1.690299988E0;6.266499996E0
2.431948750E1;-3.890399933E0;3.332700014E0;4.076699734E0
2.433933906E1;-1.676499963E0;1.872699976E0;3.751599789E0
2.435919219E1;-1.230199933E0;5.379999802E-2;4.733099937E0
2.437904531E1;-6.839999557E-2;-4.265999794E-1;5.356299877E0
2.439889688E1;-7.476999760E-1;1.200000010E-2;3.811899900E0
2.441874844E1;-2.489999980E-1;1.157899976E0;-3.465199947E0
2.443860312E1;-6.119999662E-2;2.874799967E0;-2.600899935E0
2.445845469E1;3.761000037E-1;2.548300028E0;7.622999549E-1
2.447830781E1;1.217299938E0;1.291100025E0;1.138100028E0
2.449816094E1;2.201400042E0;1.581699967E0;-5.099999905E-2
2.451801250E1;2.442499876E0;1.574499965E0;-8.215000033E-1
2.453786563E1;1.940400004E0;8.297999501E-1;-1.678399920E0
2.455771875E1;1.969799995E0;-2.985000014E-1;-1.613499999E0
2.457757031E1;2.721199989E0;-6.642999649E-1;-1.780399919E0
2.459742344E1;4.201200008E0;-4.561999738E-1;-1.959499955E0
2.461727656E1;5.757299900E0;9.319999814E-2;-1.039199948E0
2.463712812E1;7.056699753E0;5.652999878E-1;3.458999991E-1
2.465698125E1;8.166699409E0;-2.491999865E-1;-1.349999905E-1
2.467683438E1;9.293899536E0;-1.603999972E0;-1.313699961E0
2.469668750E1;9.698800087E0;-2.416100025E0;-1.518199921E0
2.471653906E1;7.264599800E0;-9.648000002E-1;-1.782699943E0
2.473639219E1;3.320600033E0;-2.559000015E0;-2.012500048E0
2.475624375E1;1.368600011E0;-5.544499874E0;-7.321000099E-1
2.477609688E1;-3.122900009E0;-1.002589989E1;-1.506699920E0
2.479595000E1;-7.463999748E0;-1.338919926E1;-3.860599995E0
2.481580156E1;-9.670800209E0;-9.796699524E0;1.252099991E0
2.483565469E1;-6.329799652E0;-2.229099989E0;3.185299873E0
2.485550781E1;-3.172799826E0;2.566499949E0;2.894399881E0
2.487536094E1;-1.244199991E0;4.601399899E0;3.215899944E0
2.489521250E1;1.638499975E0;6.239299774E0;4.230299950E0
2.491506562E1;2.395499945E0;6.185899734E0;4.913899899E0
2.493491875E1;-1.549299955E0;4.725100040E0;4.750699997E0
2.495477031E1;-3.511399984E0;4.047699928E0;5.739999935E-2
2.497462344E1;-4.942599773E0;3.215399981E0;-1.299600005E0
2.499447656E1;-7.540599823E0;2.258499861E0;1.328599930E0
2.501432813E1;-8.484299660E0;2.694900036E0;3.923699856E0
2.503418125E1;-8.321800232E0;4.002599716E0;5.212999821E0
2.505403438E1;-5.781099796E0;4.102200031E0;4.268599987E0
2.507388750E1;-2.251299858E0;3.057000041E-1;6.333999634E-1
2.509373906E1;5.889299870E0;-5.420599937E0;-1.299029922E1
2.511359219E1;2.072299957E1;-1.029920006E1;-1.093589973E1
2.513344531E1;1.346499920E1;-6.552299976E0;2.276999950E0
2.515329688E1;4.885600090E0;2.574300051E0;-3.002899885E0
2.517315000E1;2.207299948E0;2.030900002E0;-1.876500010E0
2.519300312E1;-1.164499998E0;-6.873999834E-1;8.427100182E0
2.521285469E1;-3.488499880E0;-4.291599751E0;6.336299896E0
2.523270781E1;-3.945599794E0;-6.907599926E0;4.369599819E0
2.525255938E1;-9.352499962E0;-9.418999672E0;2.581699848E0
2.527241250E1;-9.187899590E0;-1.791399956E0;5.686199665E0
2.529226563E1;-4.956099987E0;2.269299984E0;5.140999794E0
2.531212188E1;-4.126699924E0;8.184999824E-1;2.106400013E0
2.533197188E1;-2.732499838E0;-1.722999930E0;3.213699818E0
2.535182344E1;-1.527999997E0;-1.921499968E0;5.873799801E0
2.537167656E1;-1.224900007E0;-6.244999766E-1;5.493000031E0
2.539152969E1;-2.928699970E0;1.283999920E0;2.535799980E0
2.541138125E1;-9.369999766E-1;2.211999893E0;-1.427500010E0
2.543123438E1;7.572999597E-1;2.251399994E0;-1.602399945E0
2.545108750E1;1.177199960E0;1.666499972E0;-4.629999772E-2
2.547094062E1;2.466399908E0;2.444599867E0;-1.456900001E0
2.549079219E1;2.590499878E0;2.700099945E0;-2.074100018E0
2.551064531E1;2.346999884E0;1.565199971E0;-1.008999944E0
2.553049844E1;3.014099836E0;-1.416999996E-1;-1.520099998E0
2.555035000E1;2.908900023E0;-6.769999862E-2;-2.150899887E0
2.557020313E1;3.652499914E0;-3.677999973E-1;-1.020599961E0
2.559005625E1;6.031300068E0;-7.220000029E-1;3.314999938E-1
2.560990938E1;7.239999771E0;-2.964999974E-1;5.952000022E-1
2.562976094E1;7.759299755E0;-1.308200002E0;-1.471000016E-1
2.564961406E1;8.985199928E0;-2.690299988E0;-2.412999868E-1
2.566946562E1;9.866399765E0;-1.294999957E0;-1.636299968E0
2.568931875E1;6.917699814E0;-1.007200003E0;-2.126100063E0
2.570917188E1;2.245599985E0;-2.861500025E0;-2.846799850E0
2.572902500E1;-1.955099940E0;-5.219699860E0;-3.778499842E0
2.574887656E1;-6.723099709E0;-9.367899895E0;-7.888199806E0
2.576872969E1;-9.687500000E0;-1.177199936E1;-5.450500011E0
2.578858125E1;-9.094099998E0;-8.892999649E0;8.574999571E-1
2.580843438E1;-5.880699635E0;-2.168099880E0;2.325799942E0
2.582828750E1;-2.858799934E0;2.370100021E0;2.112499952E0
2.584814063E1;-7.191999555E-1;4.000400066E0;3.833699942E0
2.586799219E1;9.085999727E-1;4.687799931E0;5.056399822E0
2.588784531E1;4.727999866E-1;4.995399952E0;4.723199844E0
2.590769688E1;-1.865999937E0;4.581900120E0;3.737099886E0
2.592755000E1;-3.672399998E0;3.492599964E0;-4.862999916E-1
2.594740469E1;-5.142699718E0;2.690699816E0;-2.336899996E0
2.596725625E1;-7.202299595E0;2.521499872E0;9.059999883E-2
2.598710781E1;-7.627699852E0;3.246699810E0;3.348099947E0
2.600696094E1;-6.634699821E0;4.361899853E0;4.532299995E0
2.602681406E1;-5.609399796E0;4.858200073E0;3.632900000E0
2.604666563E1;-1.738499999E0;3.100499868E0;1.939700007E0
2.606651875E1;2.852599859E0;-1.181399941E0;-3.041599989E0
2.608637188E1;1.461949921E1;-6.452199936E0;-1.670319939E1
2.610622344E1;1.813719940E1;-8.099299431E0;-3.042999983E0
2.612607656E1;7.834299564E0;-5.411999822E-1;-3.419699907E0
2.614592969E1;3.441399813E0;3.527999878E0;-3.573899984E0
2.616578281E1;4.855999947E-1;-2.224200010E0;4.777999818E-1
2.618563438E1;-2.690399885E0;-4.523900032E0;5.234499931E0
2.620548750E1;-5.967199802E0;-8.816800117E0;-4.183599949E0
2.622534062E1;-6.975999832E0;-7.225399971E0;2.074300051E0
2.624519219E1;-8.725600243E0;-1.116599917E0;6.417299747E0
2.626504531E1;-8.612299919E0;1.203299999E0;6.895499706E0
2.628489844E1;-5.605000019E0;-4.399999976E-3;6.066099644E0
2.630475000E1;-3.694999933E0;-2.058399916E0;5.483099937E0
2.632460313E1;-2.481400013E0;-2.490799904E0;5.416399956E0
2.634445625E1;-1.897799969E0;-1.352899909E0;5.231599808E0
2.636430938E1;-8.937999606E-1;5.505999923E-1;4.286299706E0
2.638416094E1;1.612999886E-1;1.979099989E0;-8.517000079E-1
2.640401406E1;1.828199983E0;2.573999882E0;-3.391799927E0
2.642389375E1;1.138100028E0;1.690999985E0;-1.206399918E0
2.644371875E1;7.732999921E-1;1.318799973E0;3.064000010E-1
2.646357188E1;1.060500026E0;1.787799954E0;-1.091899991E0
2.648342500E1;1.415699959E0;1.665799975E0;-8.287000060E-1
2.650327656E1;2.105599880E0;1.173499942E0;-1.136999950E-1
2.652312969E1;2.882400036E0;-7.090000063E-2;-1.163999960E-1
2.654298281E1;3.592099905E0;-1.051699996E0;-3.649999946E-2
2.656283594E1;3.140899897E0;-6.811999679E-1;-1.490999907E-1
2.658268750E1;3.370899916E0;-1.612999886E-1;-2.475499868E0
2.660254063E1;4.603399754E0;-3.012000024E-1;-1.836599946E0
2.662239375E1;5.608900070E0;-1.336999983E-1;-5.077999830E-1
2.664224531E1;7.272099972E0;-4.005999863E-1;3.145000041E-1
2.666209844E1;7.760799885E0;-1.102900028E0;1.239999942E-2
2.668195156E1;8.432399750E0;-1.997999907E0;-2.353600025E0
2.670180469E1;7.224199772E0;-1.850999892E-1;-2.925499916E0
2.672165625E1;4.940499783E0;1.791599989E0;-1.417099953E0
2.674150938E1;3.880800009E0;3.622999787E-1;-1.602299929E0
2.676136094E1;2.981599808E0;-3.645399809E0;-3.023000062E-1
2.678121406E1;3.395999968E-1;-7.601999760E0;1.659199953E0
2.680106719E1;-4.183399677E0;-1.194049931E1;8.561999798E-1
2.682092031E1;-8.280300140E0;-1.232940006E1;2.788599968E0
2.684077188E1;-8.391599655E0;-5.915899754E0;2.341199875E0
2.686062500E1;-4.924099922E0;1.104599953E0;9.995999932E-1
2.688047813E1;-1.388199925E0;5.034299850E0;8.865000010E-1
2.690032969E1;-2.241999954E-1;5.889400005E0;2.195699930E0
2.692018281E1;-2.940999866E-1;5.689599991E0;4.036399841E0
2.694003594E1;-1.832799911E0;4.523200035E0;4.405200005E0
2.695988906E1;-4.387000084E0;2.402499914E0;1.371299982E0
2.697974062E1;-5.946699619E0;1.668699980E0;2.221999913E-1
2.699959375E1;-7.442599773E0;1.782899976E0;2.065399885E0
2.701944688E1;-8.254199982E0;2.267899990E0;3.933099985E0
2.703930625E1;-7.584099770E0;2.952899933E0;4.958299637E0
2.705915156E1;-5.619800091E0;3.394899845E0;3.961799860E0
2.707900469E1;-1.332099915E0;1.830899954E0;1.247799993E0
2.709885625E1;3.770900011E0;-2.400799990E0;-7.853299618E0
2.711870938E1;1.641250038E1;-6.213500023E0;-1.299860001E1
2.713857188E1;1.785569954E1;-6.363599777E0;4.313600063E0
2.715841406E1;7.537699699E0;-1.350999922E-1;-3.206099987E0
2.717826719E1;2.899499893E0;-9.873999953E-1;-2.129299879E0
2.719812031E1;-5.698999763E-1;-4.715099812E0;-1.210699916E0
2.721797344E1;-9.028999805E-1;-6.547299862E0;6.269999981E0
2.723782500E1;-4.569600105E0;-6.992599964E0;2.045899868E0
2.725767812E1;-9.804599762E0;-6.031000018E-1;1.988099933E0
2.727753125E1;-9.958700180E0;2.381799936E0;4.377699852E0
2.729738281E1;-6.040299892E0;8.240999579E-1;5.813600063E0
2.731723594E1;-4.569299698E0;-2.050699949E0;5.455399990E0
2.733708750E1;-3.339999914E0;-1.705899954E0;7.001199722E0
2.735694062E1;-1.325299978E0;1.500000013E-3;6.358900070E0
2.737679375E1;-1.046899915E0;2.096999884E-1;4.313899994E0
2.739664531E1;-9.027000070E-1;6.372999549E-1;3.193300009E0
2.741649844E1;-1.043599963E0;1.764299989E0;1.330600023E0
2.743635156E1;1.343799949E0;2.028599977E0;-2.935899973E0
2.745620313E1;8.205999732E-1;8.798999786E-1;-2.167399883E0
2.747605625E1;2.259700060E0;1.347199917E0;-2.069700003E0
2.749590938E1;2.940599918E0;2.491799831E0;-2.562000036E0
2.751576250E1;3.540599823E0;2.628299952E0;-1.855699897E0
2.753561406E1;3.129099846E0;1.613999963E0;-3.371999860E-1
2.755546719E1;3.519099951E0;2.969999984E-2;8.341000080E-1
2.757532031E1;3.424999952E0;-1.271199942E0;7.872999907E-1
2.759517188E1;2.145499945E0;-1.610199928E0;-1.358299971E0
2.761502500E1;2.385799885E0;-2.093999863E0;-2.183399916E0
2.763487812E1;4.012300014E0;-1.217299938E0;-7.278999686E-1
2.765472969E1;4.867899895E0;-4.881999791E-1;2.377000004E-1
2.767458281E1;5.620399952E0;-1.308499932E0;7.656999826E-1
2.769443594E1;6.392999649E0;-2.238100052E0;-1.084999919E0
2.771428906E1;6.486499786E0;-2.140199900E0;-2.987099886E0
2.773414063E1;5.839699745E0;-2.078999877E-1;-2.842399836E0
2.775399375E1;4.888899803E0;5.906999707E-1;-2.148999929E0
2.777384688E1;3.833199978E0;-8.042999506E-1;-2.117699862E0
2.779369844E1;2.121199846E0;-3.546599865E0;-2.552999854E-1
2.781355156E1;-2.100199938E0;-7.834399700E0;-5.496999621E-1
2.783340469E1;-5.262899876E0;-1.009529972E1;2.926999927E-1
2.785325781E1;-7.430699825E0;-8.244099617E0;2.945400000E0
2.787310938E1;-7.048499584E0;-3.052399874E0;2.002099991E0
2.789296250E1;-4.176099777E0;2.529399872E0;1.387399912E0
2.791281562E1;-1.621999979E0;5.031699657E0;1.954999924E0
2.793266719E1;-2.201000005E-1;5.683499813E0;3.364699841E0
2.795252031E1;1.681899905E0;6.055099964E0;6.291999817E0
2.797237344E1;-5.522999763E-1;4.163300037E0;7.105700016E0
2.799222500E1;-4.925499916E0;1.283999920E0;2.322099924E0
2.801207813E1;-7.064899921E0;6.667000055E-1;-1.360999942E-1
2.803193125E1;-8.421999931E0;1.116999984E0;1.602299929E0
2.805178281E1;-8.454099655E0;2.655400038E0;4.549699783E0
2.807163594E1;-6.536999702E0;3.736500025E0;4.757599831E0
2.809148906E1;-2.366600037E0;2.970899820E0;1.763599992E0
2.811134219E1;1.731400013E0;-6.699999571E-1;-7.467599869E0
2.813119375E1;1.349829960E1;-4.132199764E0;-1.501179981E1
2.815104688E1;1.789959908E1;-8.078100204E0;1.881399989E0
2.817090000E1;8.182700157E0;-3.969299793E0;-7.382000089E-1
2.819075156E1;4.365699768E0;-6.528999805E-1;-4.157999992E0
2.821060469E1;2.351099968E0;-3.955999851E0;-1.115700006E0
2.823045781E1;-3.546999991E-1;-6.519899845E0;8.523599625E0
2.825030938E1;-4.632699966E0;-6.734699726E0;3.951900005E0
2.827016250E1;-1.000799942E1;-7.328999639E-1;5.327000022E-1
2.829001563E1;-9.970600128E0;2.183699846E0;4.475599766E0
2.830986875E1;-7.565799713E0;1.117499948E0;6.587100029E0
2.832972031E1;-6.193399906E0;-1.275200009E0;5.061399937E0
2.834957344E1;-4.877599716E0;-6.728999615E-1;4.381000042E0
2.836942656E1;-2.344399929E0;4.326999784E-1;5.014100075E0
2.838927812E1;-1.292400002E0;2.346999943E-1;3.692299843E0
2.840913125E1;-2.962000072E-1;-4.349999875E-2;3.132499933E0
2.842898438E1;1.766499996E0;1.081300020E0;-9.660999775E-1
2.844883750E1;2.743099928E0;1.790799975E0;-2.820299864E0
2.846868906E1;1.893399954E0;1.192700028E0;-1.210500002E0
2.848854219E1;1.557099938E0;1.215299964E0;-9.720000029E-1
2.850839375E1;1.662699938E0;1.533499956E0;-5.235999823E-1
2.852824688E1;1.701200008E0;1.092199922E0;1.970999986E-1
2.854809844E1;1.794899940E0;6.419999897E-2;8.741999865E-1
2.856795156E1;1.815599918E0;-5.676000118E-1;-7.530999780E-1
2.858780469E1;1.547699928E0;-1.477999985E-1;-2.861599922E0
2.860765781E1;2.807899952E0;3.331999779E-1;-1.080500007E0
2.862750938E1;5.439499855E0;2.593999803E-1;-2.764999866E-1
2.864736250E1;7.236699581E0;8.569999933E-1;3.761999905E-1
2.866721406E1;8.126199722E0;4.796999991E-1;9.458999634E-1
2.868706719E1;7.712499619E0;-1.021000028E0;3.739999831E-1
2.870692031E1;7.213799953E0;-2.197399855E0;-2.851799965E0
2.872677813E1;7.720399857E0;-3.869999945E-1;-3.697099924E0
2.874662656E1;5.831999779E0;1.342199922E0;-2.324300051E0
2.876647813E1;5.109600067E0;-8.544999957E-1;-1.972099900E0
2.878633125E1;4.296299934E0;-3.939399958E0;-3.643999994E-1
2.880618281E1;-4.690000042E-2;-7.341899872E0;-1.208699942E0
2.882603594E1;-3.547099829E0;-9.397099495E0;-2.024100065E0
2.884588906E1;-5.437099934E0;-8.858200073E0;1.768999994E-1
2.886574219E1;-6.976799965E0;-6.229300022E0;1.274699926E0
2.888559375E1;-6.368599892E0;-3.184999824E-1;1.321799994E0
2.890544688E1;-3.761600018E0;4.158800125E0;2.727999926E0
2.892530469E1;-1.183499932E0;5.177999973E0;4.336400032E0
2.894515156E1;-1.370999962E-1;3.903100014E0;5.144199848E0
2.896500469E1;-4.880999923E-1;1.958099961E0;6.095599651E0
2.898485781E1;-3.580299854E0;5.886999965E-1;1.336399913E0
2.900470938E1;-6.223399639E0;7.459999919E-1;-1.920999885E-1
2.902456250E1;-8.308400154E0;9.530999660E-1;1.874399900E0
2.904441563E1;-9.647500038E0;1.375199914E0;4.144700050E0
2.906426875E1;-1.013299942E1;2.546200037E0;5.203199863E0
2.908412031E1;-9.655599594E0;3.159399986E0;2.843699932E0
2.910397344E1;-5.039499760E0;2.325599909E0;5.701000094E-1
2.912382656E1;-4.932999909E-1;-5.889999866E-2;-3.087800026E0
2.914367812E1;7.367099762E0;-2.514099836E0;-1.067999935E1
2.916353125E1;1.777869987E1;-7.501899719E0;-5.036799908E0
2.918338438E1;1.364429951E1;-7.675699711E0;-1.486400008E0
2.920323750E1;1.005579948E1;1.126699924E0;-5.754899979E0
2.922308906E1;5.999899864E0;-4.703999758E-1;-5.728999972E-1
2.924294219E1;9.616999626E-1;-1.683599949E0;8.290999532E-1
2.926279531E1;-1.850299954E0;-2.291800022E0;6.519499779E0
2.928264688E1;-3.725399971E0;-5.763999939E0;4.386399746E0
2.930250000E1;-8.160300255E0;-5.604899883E0;2.916100025E0
2.932235313E1;-9.151899338E0;-1.958999932E-1;5.621699810E0
2.934220469E1;-5.888999939E0;2.151499987E0;6.258999825E0
2.936205781E1;-4.449699879E0;9.942999482E-1;4.345399857E0
2.938191094E1;-4.091099739E0;3.655000031E-1;4.750199795E0
2.940176250E1;-3.377499819E0;2.083999962E-1;6.068599701E0
2.942161562E1;-1.479200006E0;-1.211999953E-1;4.356599808E0
2.944146875E1;3.949999809E-2;3.035999835E-1;3.045599937E0
2.946132188E1;1.726899981E0;1.627499938E0;-5.568799973E0
2.948117344E1;2.789399862E0;2.891299963E0;-4.743599892E0
2.950102656E1;2.969499826E0;1.648199916E0;3.070000000E-2
2.952087969E1;3.005499840E0;4.532999992E-1;5.938999653E-1
2.954073125E1;3.201799870E0;7.752999663E-1;-9.449999928E-1
2.956058438E1;3.375999928E0;1.405900002E0;-1.071099997E0
2.958043750E1;2.887199879E0;1.633899927E0;-2.847999930E-1
2.960029063E1;1.939899921E0;6.283000112E-1;-3.294999897E-1
2.962014219E1;1.597299933E0;-6.592000127E-1;-1.793499947E0
2.963999531E1;2.381899834E0;-9.091999531E-1;-1.513599992E0
2.965984844E1;3.638599873E0;-7.872999907E-1;-1.957999915E-1
2.967970000E1;4.987599850E0;1.559000015E-1;6.089999899E-2
2.969955312E1;6.570399761E0;2.403999865E-1;5.719999671E-1
2.971940625E1;7.436199665E0;-5.740999579E-1;9.927999973E-1
2.973925781E1;8.876999855E0;-1.426699996E0;-1.985299945E0
2.975911094E1;7.619299889E0;-6.759999990E-1;-3.419199944E0
2.977896406E1;5.072299957E0;6.790000200E-2;-2.598999977E0
2.979881719E1;2.916800022E0;-1.236299992E0;-3.047399998E0
2.981866875E1;6.807999611E-1;-4.340699673E0;-1.990799904E0
2.983852188E1;-2.022199869E0;-8.519599915E0;-2.489799976E0
2.985837500E1;-4.883599758E0;-1.050769997E1;-1.030599952E0
2.987822656E1;-6.726899624E0;-9.154500008E0;3.318300009E0
2.989807969E1;-7.245399952E0;-4.749300003E0;3.772499800E0
2.991793281E1;-4.158499718E0;1.503600001E0;2.475800037E0
2.993778594E1;-1.004199982E0;4.865399837E0;2.841300011E0
2.995763750E1;3.836999834E-1;5.332299709E0;3.314999819E0
2.997749062E1;9.549999982E-2;4.694600105E0;4.394400120E0
2.999734375E1;-1.872399926E0;3.260999918E0;4.574699879E0
3.001719531E1;-4.356599808E0;1.783999920E0;1.694099903E0
3.003704844E1;-6.162799835E0;1.615299940E0;2.651000023E-1
3.005690000E1;-7.877099991E0;2.115499973E0;9.670999646E-1
3.007675313E1;-8.162199974E0;2.942699909E0;3.055399895E0
3.009660469E1;-7.307299614E0;3.905699968E0;3.940299988E0
3.011645938E1;-5.355700016E0;4.285999775E0;3.818499804E0
3.013631094E1;-2.048399925E0;2.666499853E0;2.841399908E0
3.015616250E1;2.038899899E0;-1.892699957E0;-5.353300095E0
3.017601562E1;1.570139980E1;-7.984899998E0;-1.924029922E1
3.019586875E1;2.115989876E1;-8.604800224E0;-1.325099945E0
3.021572344E1;9.749300003E0;-9.269999862E-1;-4.491199970E0
3.023557344E1;4.224999905E0;3.171000004E0;-2.599799871E0
3.025542656E1;-4.796999991E-1;-1.857599974E0;3.195999861E0
3.027527969E1;-2.916399956E0;-3.361699820E0;8.810199738E0
3.029513125E1;-5.280699730E0;-7.886600018E0;4.705999792E-1
3.031498438E1;-1.044679928E1;-8.745699883E0;-2.918699980E0
3.033483750E1;-1.053669930E1;-5.992000103E-1;8.351099968E0
3.035469063E1;-8.912799835E0;3.070400000E0;6.474799633E0
3.037454219E1;-6.117199898E0;2.165199995E0;4.347599983E0
3.039439531E1;-4.179399967E0;4.345999956E-1;5.877500057E0
3.041424844E1;-2.266399860E0;-5.636999607E-1;5.706500053E0
3.043410000E1;-4.734999835E-1;-1.412799954E0;3.956399918E0
3.045395312E1;5.737999678E-1;-8.440999985E-1;3.645499945E0
3.047380625E1;2.821799994E0;4.975999892E-1;4.199699879E0
3.049365781E1;4.356599808E0;1.306100011E0;-2.344699860E0
3.051351094E1;2.846499920E0;1.585099936E0;-2.828899860E0
3.053336875E1;1.778999925E0;9.559999704E-1;-1.895900011E0
3.055321719E1;1.524399996E0;1.030499935E0;-3.098599911E0
3.057306875E1;1.776399970E0;2.295300007E0;-2.328500032E0
3.059292188E1;2.387500048E0;2.094899893E0;-7.838000059E-1
3.061277656E1;2.905499935E0;3.955000043E-1;-6.499999762E-1
3.063262656E1;2.708899975E0;-5.805000067E-1;-1.712799907E0
3.065247969E1;2.021100044E0;-3.628999889E-1;-2.348199844E0
3.067233281E1;3.660599947E0;-5.130999684E-1;-1.242100000E0
3.069218438E1;4.792599678E0;-8.739999682E-2;-2.782999873E-1
3.071203750E1;6.460700035E0;6.291999817E-1;-3.079999983E-2
3.073189063E1;7.971499920E0;-4.869999886E-1;8.547999859E-1
3.075174219E1;7.142199993E0;-1.696900010E0;-2.837999821E0
3.077159531E1;6.891399860E0;-5.643000007E-1;-3.949899912E0
3.079144844E1;5.298899651E0;1.774699926E0;-3.728899956E0
3.081130313E1;3.905299902E0;6.171000004E-1;-2.838899851E0
3.083115312E1;3.372200012E0;-3.156100035E0;-9.350999594E-1
3.085100625E1;1.235800028E0;-9.672499657E0;-3.030699968E0
3.087085938E1;-3.263399839E0;-1.404879951E1;-2.163199902E0
3.089071094E1;-7.282999992E0;-1.394889927E1;6.238999963E-1
3.091056406E1;-7.319099903E0;-6.300699711E0;7.379999757E-1
3.093041719E1;-4.279599667E0;1.100199938E0;4.172999859E-1
3.095027031E1;-2.185999870E0;4.642600060E0;1.372299910E0
3.097012188E1;-1.673799992E0;5.797999859E0;2.269199848E0
3.098997500E1;-2.392400026E0;5.532199860E0;3.088999987E0
3.100982813E1;-2.783200026E0;4.796000004E0;5.053699970E0
3.102967969E1;-5.092099667E0;3.226799965E0;4.748600006E0
3.104953281E1;-7.061499596E0;2.843899965E0;2.805899858E0
3.106938594E1;-8.622399330E0;2.883899927E0;2.804899931E0
3.108923750E1;-8.860400200E0;3.606499910E0;3.314199924E0
3.110909375E1;-7.518399715E0;5.022299767E0;4.746900082E0
3.112894219E1;-3.136099815E0;3.753099918E0;4.542500019E0
3.114879531E1;-8.623999953E-1;-1.462700009E0;-1.844900012E0
3.116864844E1;1.221710014E1;-7.544600010E0;-2.813419914E1
3.118850156E1;2.254520035E1;-1.213199997E1;3.919399977E0
3.120835313E1;1.041790009E1;-5.286999702E0;-4.054800034E0
3.122820625E1;5.355299950E0;3.080699921E0;-8.024399757E0
3.124805938E1;8.119999617E-2;-2.399899960E0;2.717200041E0
3.126791250E1;-1.698099971E0;-1.795099974E0;6.777199745E0
3.128776406E1;-4.541500092E0;-1.954999924E0;6.478299618E0
3.130761562E1;-5.871599674E0;-5.323999882E0;9.391999841E-1
3.132746875E1;-9.192599297E0;-5.599599838E0;2.033999920E0
3.134732188E1;-9.036999702E0;-3.244999945E-1;5.481100082E0
3.136717500E1;-6.136600018E0;2.029700041E0;6.176599979E0
3.138702656E1;-4.292799950E0;1.527499914E0;3.830099821E0
3.140687969E1;-3.111599922E0;1.177600026E0;5.880699635E0
3.142673281E1;-2.152799845E0;-1.589999944E-1;5.178999901E0
3.144658438E1;-4.837999940E-1;-7.254999876E-1;4.200500011E0
3.146643750E1;5.627999902E-1;-4.679999873E-2;4.996399879E0
3.148629063E1;1.275200009E0;8.657000065E-1;-4.120000079E-2
3.150614219E1;3.068099976E0;2.027899981E0;-5.892499924E0
3.152599531E1;3.403999805E0;1.839100003E0;-2.779399872E0
3.154584844E1;3.136999846E0;1.460099936E0;-2.006899834E0
3.156570156E1;3.698400021E0;2.653300047E0;-6.748399734E0
3.158555312E1;3.543200016E0;1.467399955E0;-1.634999990E0
3.160540938E1;3.059700012E0;4.165000021E-1;1.329399943E0
3.162525938E1;1.605700016E0;-1.560000032E-1;1.048099995E0
3.164511094E1;-1.209499955E0;1.663599968E0;-8.285999894E-1
3.166496406E1;1.430299997E0;-2.122799873E0;-2.278399944E0
3.168481719E1;4.688299656E0;-1.320099950E0;4.250999987E-1
3.170467031E1;6.737499714E0;-1.562399983E0;-2.399999881E-3
3.172452188E1;7.198199749E0;-1.578999907E-1;-1.517999917E-1
3.174437500E1;4.449399948E0;-1.228000000E-1;-1.460199952E0
3.176422813E1;4.995100021E0;-1.226899981E0;-4.381799698E0
3.178408438E1;3.936699867E0;-1.112200022E0;-4.018700123E0
3.180393438E1;2.184599876E0;-5.766000152E-1;-3.812699795E0
3.182378594E1;3.012300014E0;-1.323499918E0;-1.145200014E0
3.184363906E1;3.566699982E0;-3.057099819E0;1.910299897E0
3.186349062E1;1.786199927E0;-6.572199821E0;2.496700048E0
3.188334375E1;-1.364199996E0;-1.053020000E1;3.163100004E0
3.190319688E1;-5.844399929E0;-1.158629990E1;4.597799778E0
3.192304844E1;-5.653199673E0;-5.794499874E0;4.414499760E0
3.194290156E1;-1.563199997E0;1.814700007E0;2.076400042E0
3.196275469E1;-4.705999792E-1;4.821799755E0;1.621599913E0
3.198260625E1;-1.304000020E-1;5.129199982E0;8.939999938E-1
3.200245938E1;-4.448999763E-1;4.837999821E0;-4.761999846E-1
3.202231250E1;-3.082899809E0;3.613299847E0;7.604999542E-1
3.204216406E1;-5.666699886E0;2.690699816E0;2.701200008E0
3.206201719E1;-6.315700054E0;2.710000038E0;3.848500013E0
3.208187031E1;-7.444499969E0;2.976999998E0;5.106100082E0
3.210172344E1;-7.854300022E0;3.572899818E0;5.086999893E0
3.212157500E1;-7.519499779E0;3.967299938E0;4.716199875E0
3.214142813E1;-5.041899681E0;3.754999876E0;2.853999853E0
3.216128125E1;-9.623000026E-1;1.468199968E0;-9.151999950E-1
3.218113281E1;2.954799891E0;-4.028800011E0;-1.387139988E1
3.220098594E1;1.606459999E1;-8.123000145E0;-7.596599579E0
3.222083906E1;1.674139977E1;-6.638399601E0;4.170199871E0
3.224069062E1;5.665699959E0;3.384000063E-1;-2.839399815E0
3.226054375E1;3.366299868E0;4.325399876E0;-5.053400040E0
3.228039688E1;1.471599936E0;-2.455800056E0;1.923099995E0
3.230025000E1;-2.025899887E0;-4.471899986E0;9.439299583E0
3.232010156E1;-4.483399868E0;-8.100399971E0;6.046199799E0
3.233995469E1;-1.154119968E1;-1.072270012E1;-5.888000011E0
3.235980781E1;-1.147200012E1;-1.450799942E0;6.023200035E0
3.237965938E1;-7.730399609E0;3.242199898E0;6.638499737E0
3.239951719E1;-5.547599792E0;2.246000051E0;3.356299877E0
3.241936406E1;-3.887499809E0;-3.610000014E-2;4.805099964E0
3.243921719E1;-1.669499993E0;-7.166000009E-1;5.084300041E0
3.245907031E1;-3.883999884E-1;-9.023000002E-1;4.811299801E0
3.247892344E1;1.251199961E0;2.405999899E-1;3.939799786E0
3.249877500E1;2.219899893E0;1.469599962E0;2.108799934E0
3.251862812E1;2.894599915E0;2.113600016E0;-2.215399981E0
3.253848125E1;2.501899958E0;2.124799967E0;-2.236700058E0
3.255833281E1;1.548599958E0;9.479999542E-1;-1.358199954E0
3.257818594E1;9.325999618E-1;8.194999695E-1;-2.696799994E0
3.259803750E1;1.435599923E0;1.760599971E0;-4.089099884E0
3.261789062E1;2.255800009E0;1.278100014E0;-2.196300030E0
3.263774375E1;2.988099813E0;-2.854000032E-1;-1.916999966E-1
3.265759531E1;3.397899866E0;-9.304999709E-1;-3.067999780E-1
3.267744844E1;3.209699869E0;-1.114999950E-1;-1.617999911E0
3.269730156E1;4.130799770E0;-4.356999993E-1;-1.730999947E0
3.271715469E1;6.247499943E0;4.617999792E-1;-1.067899942E0
3.273700625E1;7.765199661E0;1.010100007E0;-6.003999710E-1
3.275685938E1;7.878299713E0;-3.421999812E-1;-1.433799982E0
3.277671250E1;7.597599983E0;-1.864399910E0;-3.447199821E0
3.279656406E1;6.735300064E0;-8.806999922E-1;-3.382200003E0
3.281641719E1;5.043399811E0;-7.475000024E-1;-2.645299911E0
3.283627031E1;3.211899996E0;-2.347499847E0;-2.230499983E0
3.285612344E1;2.436199903E0;-4.670700073E0;-2.267999947E-1
3.287597500E1;-3.369999886E0;-9.951600075E0;-8.930999637E-1
3.289582812E1;-7.337299824E0;-1.426079941E1;-2.368199825E0
3.291568125E1;-1.026859951E1;-1.267919922E1;-1.649199963E0
3.293553281E1;-6.986999989E0;-3.368199825E0;-8.319000006E-1
3.295538594E1;-3.353499889E0;2.970000029E0;6.875999570E-1
3.297523906E1;-1.127499938E0;5.319200039E0;1.472999930E0
3.299509062E1;6.960000098E-2;5.965600014E0;3.345499992E0
3.301494375E1;1.336300015E0;5.551699638E0;4.691199780E0
3.303479688E1;-1.490299940E0;3.397199869E0;7.063599586E0
3.305465000E1;-5.320799828E0;1.615499973E0;4.269599915E0
3.307450156E1;-6.460499763E0;1.858799934E0;1.287599921E0
3.309435469E1;-8.734199524E0;1.992299914E0;1.753699899E0
3.311420781E1;-9.015899658E0;3.131099939E0;3.229300022E0
3.313405938E1;-7.221999645E0;4.460299969E0;3.900799990E0
3.315391250E1;-4.126999855E0;3.353999853E0;9.840999842E-1
3.317376562E1;7.129999995E-1;5.981000066E-1;-3.964099884E0
3.319361875E1;9.720399857E0;-2.711199999E0;-1.412919998E1
3.321347031E1;1.668449974E1;-9.061100006E0;-4.343999863E0
3.323332344E1;7.259899616E0;-6.596600056E0;-2.645499945E0
3.325317500E1;4.696000099E0;2.385099888E0;-7.633199692E0
3.327302812E1;4.476999938E-1;2.277999878E0;3.695999980E-1
3.329288125E1;-3.120499849E0;-1.991999984E0;7.328799725E0
3.331273438E1;-5.543799877E0;-1.744099975E0;6.830199718E0
3.333258594E1;-7.145400047E0;-8.893400192E0;-5.157999992E0
3.335243906E1;-6.100399971E0;-1.101539993E1;3.571599960E0
3.337229219E1;-6.563899994E0;-1.770099998E0;7.052499771E0
3.339214375E1;-5.536499977E0;3.691999912E0;5.470599651E0
3.341199688E1;-1.997799993E0;3.878599882E0;4.543299675E0
3.343185000E1;-9.493999481E-1;5.995000005E-1;4.118799686E0
3.345170312E1;7.799999788E-3;-2.105599880E0;4.097899914E0
3.347155469E1;1.100099921E0;-2.209499836E0;4.219299793E0
3.349140781E1;3.615999818E-1;-3.005000055E-1;2.854399920E0
3.351126094E1;-1.479000002E-1;1.648199916E0;-4.038999975E-1
3.353111250E1;-3.037999868E-1;3.258100033E0;-1.064800024E0
3.355096562E1;-3.154000044E-1;2.962999821E0;-9.837999940E-1
3.357081875E1;-6.999999881E-1;7.202000022E-1;-8.736999631E-1
3.359067031E1;3.808999956E-1;4.432999790E-1;-1.799099922E0
3.361052188E1;1.194100022E0;1.171800017E0;-1.727599978E0
3.363037656E1;1.993899941E0;1.327399969E0;-7.610999942E-1
3.365022813E1;2.937099934E0;7.128999829E-1;8.819999546E-2
3.367008125E1;3.249199867E0;4.012999833E-1;3.461000025E-1
3.368993281E1;2.863299847E0;4.393999875E-1;-1.775699973E0
3.370978750E1;3.494999886E0;9.679999948E-2;-2.931699991E0
3.372963906E1;5.934400082E0;-3.290999830E-1;-1.588299990E0
3.374949062E1;7.171700001E0;3.422999978E-1;-5.242999792E-1
3.376934375E1;6.922299862E0;-4.724999964E-1;-9.582999945E-1
3.378919688E1;4.916500092E0;-2.184299946E0;-3.167199850E0
3.380905000E1;5.590399742E0;-3.041199923E0;-4.344099998E0
3.382890313E1;4.919199944E0;-1.034199953E0;-3.884599924E0
3.384875469E1;5.754299641E0;-2.151999921E-1;-1.405300021E0
3.386860781E1;5.633899689E0;-1.254799962E0;1.014199972E0
3.388845938E1;5.228799820E0;-4.056799889E0;2.910599947E0
3.390831250E1;2.077899933E0;-8.156199455E0;4.690099716E0
3.392816563E1;-2.713599920E0;-1.184819984E1;6.007599831E0
3.394801875E1;-6.106899738E0;-1.029860020E1;5.280099869E0
3.396787031E1;-5.798299789E0;-2.882699966E0;3.909999847E0
3.398772656E1;-3.060499907E0;2.832099915E0;9.975000024E-1
3.400757656E1;-2.453599930E0;5.246699810E0;-7.423999906E-1
3.402742812E1;-2.786799908E0;4.890799999E0;-2.144199848E0
3.404728125E1;-3.364499807E0;3.716499805E0;-1.035699964E0
3.406713438E1;-3.704199791E0;2.786700010E0;3.350600004E0
3.408699063E1;-5.041599751E0;2.122499943E0;6.098299980E0
3.410683906E1;-6.244099617E0;2.195600033E0;4.297399998E0
3.412669219E1;-7.806599617E0;2.321199894E0;4.109899998E0
3.414654375E1;-8.044099808E0;2.990299940E0;3.577399969E0
3.416639688E1;-6.346299648E0;3.546099901E0;3.043799877E0
3.418625000E1;-3.398599863E0;2.775399923E0;1.544499993E0
3.420610313E1;1.837999970E-1;5.920000002E-2;-1.753399968E0
3.422595469E1;7.120399952E0;-3.303999901E0;-1.475099945E1
3.424580781E1;1.643529892E1;-7.114999771E0;-3.769599915E0
3.426566094E1;1.093319988E1;-6.007599831E0;3.443300009E0
3.428551250E1;4.723499775E0;1.295699954E0;-3.250499964E0
3.430536562E1;2.188499928E0;2.934399843E0;-1.530399919E0
3.432521875E1;2.965999842E-1;-3.109299898E0;4.101399899E0
3.434507188E1;-2.750499964E0;-4.723000050E0;8.132999420E0
3.436492344E1;-6.129299641E0;-9.135099411E0;-7.044000030E-1
3.438477656E1;-8.123000145E0;-8.385899544E0;-9.785999656E-1
3.440462969E1;-8.833899498E0;4.751999974E-1;6.768099785E0
3.442448125E1;-6.308199883E0;3.920499802E0;5.583699703E0
3.444433438E1;-3.286599874E0;1.824499965E0;4.525199890E0
3.446418750E1;-2.385299921E0;-1.699000001E0;3.746199846E0
3.448403906E1;-9.131000042E-1;-2.724599838E0;3.987399817E0
3.450389219E1;5.972999930E-1;-1.056399941E0;3.106799841E0
3.452374531E1;9.712999463E-1;7.114999890E-1;1.128399968E0
3.454359688E1;1.590999961E-1;1.685099959E0;-6.305999756E-1
3.456345000E1;2.821999788E-1;3.007799864E0;3.799999952E-1
3.458330938E1;1.372699976E0;2.882299900E0;7.066999674E-1
3.460315625E1;1.566900015E0;1.296599984E0;4.739999771E-2
3.462300781E1;1.333299994E0;8.932999969E-1;-3.655000031E-1
3.464286094E1;1.809700012E0;9.623999596E-1;-9.061999917E-1
3.466271406E1;2.283400059E0;1.061299920E0;-1.251899958E0
3.468256562E1;2.320400000E0;4.466999769E-1;-7.335999608E-1
3.470241875E1;2.350299835E0;1.086999997E-1;-6.832999587E-1
3.472227188E1;2.050799847E0;-2.449999936E-2;-2.631199837E0
3.474212344E1;2.876099825E0;-3.646999896E-1;-3.080799818E0
3.476197656E1;4.513499737E0;-2.439999953E-2;-1.171399951E0
3.478182969E1;6.346399784E0;1.140799999E0;-2.838999927E-1
3.480168125E1;7.852099895E0;1.050300002E0;4.377000034E-1
3.482153438E1;8.131699562E0;3.992999792E-1;-2.212800026E0
3.484138750E1;7.859499931E0;-1.245299935E0;-3.767599821E0
3.486124062E1;6.462100029E0;-1.218999997E-1;-2.998399973E0
3.488109219E1;5.451299667E0;-1.177799940E0;-2.447900057E0
3.490094531E1;3.326900005E0;-4.048299789E0;-9.243999720E-1
3.492079844E1;1.761000007E-1;-8.324199677E0;-1.521899939E0
3.494065000E1;-2.953500032E0;-1.097959995E1;-9.053999782E-1
3.496050312E1;-5.922299862E0;-1.047039986E1;1.708199978E0
3.498035469E1;-6.511699677E0;-7.564999580E0;2.756599903E0
3.500020938E1;-3.434399843E0;-1.772300005E0;2.455199957E0
3.502006094E1;-1.765999913E0;1.731799960E0;2.437199831E0
3.503991250E1;-1.963400006E0;3.484299898E0;3.166899920E0
3.505976563E1;-1.632299900E0;4.620800018E0;1.977299929E0
3.507961875E1;-2.276499987E0;4.792500019E0;3.502999842E-1
3.509947031E1;-4.840399742E0;3.572700024E0;1.330500007E0
3.511932500E1;-6.568999767E0;2.437500000E0;1.261199951E0
3.513917656E1;-7.631799698E0;2.152799845E0;2.428699970E0
3.515902969E1;-8.641599655E0;2.404700041E0;3.726399899E0
3.517888125E1;-8.425600052E0;3.550499916E0;3.684999943E0
3.519873438E1;-6.417899609E0;3.551999807E0;2.430199862E0
3.521858750E1;-3.269799948E0;1.371999979E0;-2.728999853E-1
3.523844062E1;1.244099975E0;-2.141299963E0;-7.756399632E0
3.525829375E1;1.417199993E1;-5.638599873E0;-1.046070004E1
3.527814688E1;1.642749977E1;-8.350799561E0;-8.849999905E-1
3.529799688E1;6.352200031E0;-2.187599897E0;-2.797600031E0
3.531785000E1;4.063799858E0;3.764699936E0;-5.492899895E0
3.533770313E1;1.027300000E0;-1.500599980E0;1.368499994E0
3.535755625E1;-1.862800002E0;-2.329900026E0;8.570899963E0
3.537740781E1;-4.988999844E0;-3.763999939E0;5.633199692E0
3.539726094E1;-6.963599682E0;-9.431900024E0;-2.207000017E0
3.541711406E1;-9.561900139E0;-9.412699699E0;4.066100121E0
3.543696562E1;-8.022999763E0;7.476999760E-1;6.644399643E0
3.545681875E1;-5.794099808E0;4.384699821E0;5.068599701E0
3.547667188E1;-3.819199800E0;2.628900051E0;3.914099932E0
3.549652500E1;-3.005599976E0;-3.384000063E-1;3.443199873E0
3.551637656E1;-1.801800013E0;-1.586899996E0;3.452099800E0
3.553622969E1;-3.149999976E-1;-1.223299980E0;3.385499954E0
3.555608281E1;8.097999692E-1;5.667999983E-1;3.373699903E0
3.557593438E1;1.721300006E0;2.043999910E0;-1.017000005E-1
3.559578750E1;2.996799946E0;2.382699966E0;-1.831799984E0
3.561564063E1;2.613800049E0;1.659399986E0;-7.164999843E-1
3.563549219E1;1.690699935E0;1.033299923E0;-3.985999823E-1
3.565534531E1;1.119799972E0;1.072399974E0;-1.855899930E0
3.567519844E1;2.201799870E0;1.781199932E0;-3.047499895E0
3.569505156E1;3.187899828E0;1.304600000E0;-1.623600006E0
3.571490312E1;3.494599819E0;-6.979999691E-2;-5.209000111E-1
3.573475625E1;3.605299950E0;-2.994999886E-1;-1.833299994E0
3.575460938E1;3.328799963E0;-1.845999956E-1;-2.860299826E0
3.577446094E1;4.819200039E0;-2.167999893E-1;-1.625499964E0
3.579431406E1;6.221999645E0;7.999999523E-1;-9.390999675E-1
3.581416719E1;7.259500027E0;9.064999819E-1;-2.290999889E-1
3.583401875E1;6.218499660E0;-5.927000046E-1;-1.853500009E0
3.585387188E1;6.887199879E0;-1.921499968E0;-4.419600010E0
3.587372500E1;6.538099766E0;-7.754999995E-1;-3.612200022E0
3.589357656E1;5.237299919E0;-1.531299949E0;-2.966699839E0
3.591342969E1;4.818299770E0;-2.814599991E0;-8.064000010E-1
3.593328281E1;2.584300041E0;-5.405999660E0;1.165899992E0
3.595313594E1;-1.286999941E0;-1.014900017E1;1.279399991E0
3.597298750E1;-5.185499668E0;-1.277999973E1;2.044100046E0
3.599284062E1;-7.559000015E0;-1.080009937E1;1.905399919E0
3.601269375E1;-5.104399681E0;-3.043999910E0;3.808999956E-1
3.603254531E1;-2.917299986E0;1.983999968E0;4.020999968E-1
3.605239844E1;-2.776700020E0;3.780900002E0;1.168599963E0
3.607225156E1;-2.187799931E0;4.831399918E0;1.479099989E0
3.609210312E1;-1.646799922E0;5.444499969E0;1.539899945E0
3.611195625E1;-3.735699892E0;4.014699936E0;4.707200050E0
3.613180938E1;-6.098700047E0;2.234400034E0;5.168999672E0
3.615166094E1;-7.616699696E0;1.940799952E0;3.755399942E0
3.617151406E1;-9.211400032E0;2.267199993E0;2.924199820E0
3.619136719E1;-9.677700043E0;3.424000025E0;3.482299805E0
3.621121875E1;-7.856499672E0;4.246399879E0;2.849299908E0
3.623107188E1;-3.923599958E0;2.408799887E0;2.151999921E-1
3.625092500E1;1.867999882E-1;-8.922999501E-1;-4.718699932E0
3.627077656E1;1.158329964E1;-4.341499805E0;-1.211419964E1
3.629062969E1;1.718269920E1;-1.093389988E1;-3.242199898E0
3.631048281E1;7.797699928E0;-4.652699947E0;-1.172099948E0
3.633033438E1;5.032899857E0;4.144099712E0;-5.347799778E0
3.635018750E1;2.011999846E0;-1.104599953E0;8.749999851E-2
3.637004062E1;-6.489999592E-2;-3.410199881E0;7.421700001E0
3.638989375E1;-3.755499840E0;-5.644599915E0;6.329999924E0
3.640974531E1;-6.208999634E0;-8.524199486E0;-1.427299976E0
3.642959844E1;-8.308899879E0;-2.937399864E0;4.135699749E0
3.644945156E1;-7.318500042E0;2.630399942E0;6.152999878E0
3.646930312E1;-4.971399784E0;3.427599907E0;4.409800053E0
3.648915625E1;-3.740399837E0;9.323999882E-1;4.233500004E0
3.650900938E1;-3.116799831E0;-1.422799945E0;4.359600067E0
3.652886094E1;-1.901600003E0;-2.359899998E0;4.071700096E0
3.654871406E1;-8.590999842E-1;-1.159600019E0;3.795399904E0
3.656857188E1;-4.466999769E-1;8.575999737E-1;3.911700010E0
3.658841875E1;-2.773999870E-1;2.357800007E0;7.189999521E-2
3.660827188E1;1.307600021E0;2.818199873E0;-1.299199939E0
3.662812500E1;1.862499952E0;1.776899934E0;-4.948999882E-1
3.664798281E1;1.656799912E0;6.489999890E-1;-5.784999728E-1
3.666782969E1;1.608399987E0;9.132999778E-1;-2.121999979E0
3.668768281E1;2.210299969E0;1.366999984E0;-2.921200037E0
3.670753594E1;3.021699905E0;6.787999868E-1;-1.753999949E0
3.672738750E1;3.298599958E0;-4.171999991E-1;-6.686999798E-1
3.674724062E1;2.997299910E0;-9.200000018E-2;-1.626899958E0
3.676709375E1;3.306200027E0;-8.100000024E-2;-1.675399899E0
3.678694531E1;4.862899780E0;7.800000161E-2;-3.879999816E-1
3.680679844E1;5.887199879E0;8.319999576E-1;6.599999964E-2
3.682665156E1;6.673199654E0;3.949999809E-2;1.127999946E-1
3.684650469E1;6.519099712E0;-1.344299912E0;-1.948899984E0
3.686635625E1;6.968999863E0;-2.567600012E0;-3.445499897E0
3.688620938E1;6.122600079E0;-7.899000049E-1;-3.134899855E0
3.690606250E1;5.217700005E0;-5.891999602E-1;-2.607899904E0
3.692591406E1;3.985799789E0;-1.922999978E0;-9.113999605E-1
3.694576719E1;2.657199860E0;-4.494599819E0;9.599999785E-1
3.696562031E1;-1.649899960E0;-8.870999336E0;1.168399930E0
3.698547188E1;-5.504299641E0;-1.231669998E1;1.084399939E0
3.700532500E1;-8.473899841E0;-1.030539989E1;1.819799900E0
3.702517813E1;-5.948800087E0;-2.315000057E0;6.319999695E-1
3.704502969E1;-2.777599812E0;3.262300014E0;2.357999980E-1
3.706488281E1;-1.945400000E0;5.060699940E0;9.796999693E-1
3.708473594E1;-1.046000004E0;5.284599781E0;1.903399944E0
3.710458906E1;-6.638999581E-1;4.512700081E0;3.400399923E0
3.712444063E1;-2.545899868E0;2.854799986E0;5.070499897E0
3.714429375E1;-5.296599865E0;1.590499997E0;2.300899982E0
3.716414688E1;-6.960299969E0;1.561299920E0;1.301100016E0
3.718399844E1;-8.266200066E0;1.517199993E0;2.412099838E0
3.720385156E1;-8.041999817E0;2.181299925E0;3.948799849E0
3.722370469E1;-6.567299843E0;3.673799992E0;4.068999767E0
3.724355781E1;-3.718400002E0;3.927399874E0;2.509799957E0
3.726340938E1;-3.319000006E-1;9.183999896E-1;-1.252999902E-1
3.728326250E1;4.860399723E0;-3.347199917E0;-1.579829979E1
3.730311563E1;1.625300026E1;-6.936100006E0;-5.109699726E0
3.732296719E1;1.454279995E1;-5.663799763E0;3.846499920E0
3.734282031E1;5.556499958E0;1.242100000E0;-4.000499725E0
3.736267344E1;1.883499980E0;1.204900026E0;-2.167500019E0
3.738252500E1;-9.294999838E-1;-3.628399849E0;5.493899822E0
3.740238125E1;-4.380799770E0;-4.523600101E0;7.361899853E0
3.742223125E1;-7.590399742E0;-7.654699802E0;-5.761799812E0
3.744208438E1;-7.372200012E0;-6.480499744E0;2.082799911E0
3.746193594E1;-6.969199657E0;2.990999818E-1;7.677199841E0
3.748178906E1;-5.441499710E0;3.108899832E0;5.469199657E0
3.750164062E1;-2.992799997E0;2.350899935E0;4.184700012E0
3.752149375E1;-2.139099836E0;-6.520999670E-1;5.486899853E0
3.754134688E1;-1.166700006E0;-2.032899857E0;5.738899708E0
3.756120781E1;-4.229999781E-1;-1.763299942E0;5.339099884E0
3.758105313E1;-5.773000121E-1;-5.437999964E-1;4.557399750E0
3.760090469E1;-8.532999754E-1;1.061299920E0;4.847999811E-1
3.762075625E1;3.061999977E-1;2.119799852E0;-1.597299933E0
3.764060938E1;6.341999769E-1;1.787400007E0;-1.346099973E0
3.766046250E1;1.039999947E-1;5.644999743E-1;-1.285899997E0
3.768031406E1;4.897999763E-1;8.249999881E-1;-2.109899998E0
3.770016875E1;1.390900016E0;1.893899918E0;-1.617599964E0
3.772002031E1;2.344199896E0;1.703999996E0;-1.027599931E0
3.773987188E1;3.612999916E0;8.901000023E-1;-2.766000032E-1
3.775972500E1;3.993499994E0;6.250000000E-1;-4.386000037E-1
3.777957812E1;3.621099949E0;4.989999831E-1;-2.034399986E0
3.779942969E1;3.986099958E0;1.609999873E-2;-1.572299957E0
3.781930469E1;5.473399639E0;-1.829999983E-1;-5.726999640E-1
3.783913594E1;6.350399971E0;5.737000108E-1;-7.199999690E-1
3.785898906E1;6.234299660E0;2.229999937E-2;-9.505999684E-1
3.787884062E1;5.494199753E0;-1.522300005E0;-2.054100037E0
3.789869375E1;5.233299732E0;-2.067899942E0;-2.989499807E0
3.791854688E1;5.069999695E0;-1.416800022E0;-2.947000027E0
3.793839844E1;5.297899723E0;-1.869300008E0;-1.003499985E0
3.795825156E1;3.676299810E0;-3.122999907E0;9.546999931E-1
3.797810469E1;1.272300005E0;-5.450900078E0;2.112400055E0
3.799795781E1;-1.854499936E0;-8.741600037E0;3.083799839E0
3.801780938E1;-6.124399662E0;-1.046770000E1;3.469399929E0
3.803766250E1;-7.464499950E0;-7.256599903E0;1.458400011E0
3.805751562E1;-5.529799938E0;-1.275699973E0;-9.218999743E-1
3.807736719E1;-2.859099865E0;2.979300022E0;-2.104199886E0
3.809722031E1;-3.217499971E0;3.617399931E0;-5.615000129E-1
3.811707344E1;-2.319000006E0;3.509599924E0;1.253299952E0
3.813692500E1;-1.147599936E0;3.765799999E0;3.206799984E0
3.815677812E1;-8.549999595E-1;3.388999939E0;6.076799870E0
3.817663125E1;-4.039299965E0;1.505899906E0;5.906199932E0
3.819648438E1;-6.262899876E0;9.435999990E-1;3.931599855E0
3.821633594E1;-8.097499847E0;1.031099916E0;1.938899994E0
3.823618906E1;-8.307099342E0;2.174299955E0;2.487799883E0
3.825604375E1;-6.850199699E0;4.032199860E0;3.705499887E0
3.827589375E1;-4.179199696E0;3.609599829E0;2.836199999E0
3.829574688E1;-1.032299995E0;1.367799997E0;-3.931999803E-1
3.831560000E1;3.461799860E0;-1.955199957E0;-9.328000069E0
3.833545312E1;1.426919937E1;-5.216000080E0;-9.015099525E0
3.835530469E1;1.510139942E1;-6.725599766E0;1.254400015E0
3.837515781E1;7.364899635E0;-5.224999785E-1;-4.516699791E0
3.839500938E1;3.811100006E0;3.768199921E0;-1.496599913E0
3.841486250E1;-1.265499949E0;-1.665799975E0;3.272599936E0
3.843471562E1;-4.333300114E0;-3.082700014E0;6.000799656E0
3.845456875E1;-5.152800083E0;-6.893899918E0;-1.544699907E0
3.847442031E1;-5.253599644E0;-1.122559929E1;-3.305699825E0
3.849427344E1;-7.213799953E0;-2.481199980E0;8.232899666E0
3.851412656E1;-6.996299744E0;3.396999836E0;6.940499783E0
3.853397813E1;-2.793099880E0;4.028500080E0;5.175399780E0
3.855383125E1;-8.141999841E-1;1.692600012E0;6.347199917E0
3.857368438E1;-2.689999938E-1;-4.921999872E-1;6.022099972E0
3.859353750E1;8.003999591E-1;-1.428799987E0;4.706399918E0
3.861338906E1;3.522999883E-1;-6.028999686E-1;4.482800007E0
3.863324219E1;-1.615999937E0;9.554999471E-1;-2.220999897E-1
3.865309375E1;-1.359499931E0;2.228800058E0;-4.090499878E0
3.867294688E1;-2.951000035E-1;2.193300009E0;-1.415199995E0
3.869280000E1;1.997999996E-1;5.950999856E-1;5.922999978E-1
3.871265312E1;2.132599831E0;7.951999903E-1;3.012000024E-1
3.873250469E1;3.089099884E0;1.368799925E0;-1.091599941E0
3.875235781E1;3.659399986E0;1.284699917E0;-3.094300032E0
3.877221094E1;3.711299896E0;7.239999622E-2;-1.411399961E0
3.879206250E1;3.326299906E0;-1.165999994E-1;-1.350999922E-1
3.881191563E1;2.279999971E0;5.250999928E-1;-6.460999846E-1
3.883176875E1;2.236899853E0;6.099999882E-3;-1.995700002E0
3.885162031E1;4.349199772E0;-5.184000134E-1;-9.552999735E-1
3.887147344E1;5.776599884E0;9.839999676E-2;5.029999837E-2
3.889132656E1;7.014599800E0;4.319999740E-2;3.624999821E-1
3.891117969E1;6.448400021E0;-1.251999974E0;-1.555699944E0
3.893103125E1;7.056399822E0;-1.575199962E0;-3.813899994E0
3.895088438E1;6.037600040E0;-4.793999791E-1;-3.635599852E0
3.897073594E1;4.241699696E0;2.644999921E-1;-2.565899849E0
3.899058906E1;3.300599813E0;-1.241400003E0;-1.703199983E0
3.901044219E1;4.235499859E0;-3.377399921E0;1.280399919E0
3.903029531E1;1.127900004E0;-7.495499611E0;1.180299997E0
3.905014688E1;-3.172899961E0;-1.183939934E1;5.284999609E-1
3.907000000E1;-7.423899651E0;-1.231890011E1;2.685499907E0
3.908985313E1;-7.602999687E0;-6.911499977E0;2.022300005E0
3.910970469E1;-4.051899910E0;8.037999868E-1;1.834800005E0
3.912955781E1;-2.225600004E0;4.403999805E0;1.591899991E0
3.914940938E1;-1.908100009E0;5.295599937E0;1.864199996E0
3.916926250E1;-2.054100037E0;5.459399700E0;1.898899913E0
3.918911562E1;-2.341500044E0;4.717400074E0;2.883699894E0
3.920896875E1;-4.393799782E0;2.497900009E0;3.755599976E0
3.922882031E1;-6.091899872E0;1.583899975E0;2.713299990E0
3.924867344E1;-7.810099602E0;1.488499999E0;2.616199970E0
3.926852656E1;-9.018699646E0;1.981899977E0;4.199699879E0
3.928837812E1;-8.221400261E0;3.659299850E0;4.217899799E0
3.930823125E1;-6.192100048E0;2.794399977E0;1.533999920E0
3.932808438E1;-1.436399937E0;1.501299977E0;-1.560099959E0
3.934793750E1;4.061299801E0;-8.718999624E-1;-8.837499619E0
3.936778906E1;1.522089958E1;-5.528399944E0;-9.332799911E0
3.938764219E1;1.754369926E1;-7.984200001E0;-3.084000051E-1
3.940749531E1;6.620499611E0;-3.653999865E-1;-3.189800024E0
3.942734688E1;1.598799944E0;4.228499889E0;-6.067000031E-1
3.944720000E1;-2.180299997E0;-1.713799953E0;4.816099644E0
3.946705312E1;-3.378199816E0;-5.357399940E0;4.107299805E0
3.948690625E1;-4.379300117E0;-1.152740002E1;-8.057000160E0
3.950675781E1;-6.206199646E0;-8.462299347E0;5.193899632E0
3.952661094E1;-8.543299675E0;1.595000029E-1;6.388599873E0
3.954646406E1;-7.280999660E0;3.212899923E0;5.347899914E0
3.956631562E1;-3.628299952E0;1.782199979E0;5.028899670E0
3.958616875E1;-2.511299849E0;-4.210000038E-1;6.466799736E0
3.960602188E1;-1.169299960E0;-1.705699921E0;6.202699661E0
3.962587344E1;-2.662000060E-1;-1.786700010E0;4.547699928E0
3.964572656E1;-1.493999958E-1;-3.010999858E-1;3.507900000E0
3.966557969E1;-8.337999582E-1;1.568899989E0;2.211400032E0
3.968543125E1;3.261999786E-1;2.360399961E0;-3.016899824E0
3.970528438E1;7.688999772E-1;1.968699932E0;-1.907799959E0
3.972513750E1;8.672999740E-1;8.066999912E-1;-7.407000065E-1
3.974499531E1;1.826099992E0;1.828099966E0;-2.608099937E0
3.976484219E1;2.368099928E0;2.701699972E0;-3.416100025E0
3.978469531E1;2.910499811E0;1.885100007E0;-1.928900003E0
3.980454844E1;3.382699966E0;1.278399944E0;0.000000000E0
3.982440000E1;3.562099934E0;1.120700002E0;-1.349000037E-1
3.984425312E1;3.554699898E0;6.197999716E-1;-2.149499893E0
3.986410625E1;4.095699787E0;-6.312999725E-1;-1.518999934E0
3.988395781E1;5.082499981E0;-6.783999801E-1;-1.692999899E-1
3.990381094E1;5.919300079E0;-4.077000022E-1;6.699999794E-3
3.992366406E1;6.138499737E0;-1.811899900E0;-9.746999741E-1
3.994351719E1;6.298500061E0;-3.217199802E0;-3.659899950E0
3.996336875E1;6.546799660E0;-1.122799993E0;-4.017300129E0
3.998322188E1;5.851399899E0;9.943999648E-1;-3.342000008E0
4.000307500E1;4.782299995E0;-9.721999764E-1;-1.626199961E0
4.002292656E1;3.854899883E0;-3.731299877E0;8.374999762E-1
4.004277969E1;8.583999872E-1;-7.082799911E0;9.648000002E-1
4.006263281E1;-3.764400005E0;-1.131820011E1;-2.620000020E-2
4.008248438E1;-6.466599941E0;-1.180420017E1;2.598299980E0
4.010233750E1;-7.276499748E0;-8.420299530E0;3.035300016E0
4.012219062E1;-4.683300018E0;-9.136999846E-1;1.383499980E0
4.014204219E1;-3.574699879E0;2.810799837E0;5.098999739E-1
4.016189531E1;-2.463500023E0;4.166199684E0;2.143999934E-1
4.018174688E1;-2.052799940E0;5.070499897E0;1.251099944E0
4.020160156E1;-1.905299902E0;4.783299923E0;3.140699863E0
4.022145313E1;-2.928099871E0;3.830199957E0;5.658799648E0
4.024130625E1;-5.028399944E0;2.996500015E0;4.567199707E0
4.026115781E1;-7.265799999E0;2.602900028E0;4.668200016E0
4.028101250E1;-9.473099709E0;2.460099936E0;3.754899979E0
4.030086406E1;-9.814499855E0;3.424099922E0;4.116199970E0
4.032071563E1;-6.583499908E0;4.532299995E0;4.192699909E0
4.034056875E1;-2.067800045E0;1.968199968E0;2.716000080E-1
4.036042188E1;4.050199986E0;-2.321799994E0;-1.442469978E1
4.038030156E1;1.560729980E1;-8.220499992E0;-7.262699604E0
4.040012656E1;1.553759956E1;-9.015899658E0;7.139999866E-1
4.041997969E1;7.335099697E0;2.099999934E-1;-3.472100019E0
4.043983125E1;3.927500010E0;1.019799948E0;-4.630599976E0
4.045968438E1;1.497000009E-1;-3.630599976E0;4.604700089E0
4.047953750E1;-4.173099995E0;-4.316299915E0;6.552799702E0
4.049939063E1;-7.720999718E0;-5.223899841E0;-6.665299892E0
4.051924375E1;-8.199999809E0;-4.858399868E0;3.228099823E0
4.053909531E1;-7.071599960E0;-2.971899986E0;7.879199982E0
4.055894844E1;-5.560999870E0;-3.619999886E-1;6.633100033E0
4.057880000E1;-3.803399801E0;3.886999786E-1;4.373499870E0
4.059865469E1;-1.731699944E0;4.779999852E-1;3.622599840E0
4.061850625E1;-9.179999679E-2;-3.720000014E-2;5.075799942E0
4.063835781E1;3.330999911E-1;-4.187999964E-1;7.057600021E0
4.065821250E1;4.607999921E-1;6.949999928E-2;3.354799986E0
4.067806406E1;-6.568999887E-1;9.595999718E-1;1.633999944E-1
4.069791719E1;-1.322700024E0;2.081899881E0;-1.920199990E0
4.071776875E1;-8.519999683E-2;1.786199927E0;-2.969399929E0
4.073762188E1;8.348000050E-1;8.797000051E-1;-1.609499931E0
4.075747500E1;2.017400026E0;1.219699979E0;-1.203400016E0
4.077732656E1;2.899999857E0;2.009500027E0;-1.452700019E0
4.079717969E1;3.608999968E0;2.066799879E0;-1.634499907E0
4.081703281E1;3.638099909E0;1.344299912E0;-1.002900004E0
4.083688594E1;3.745299816E0;1.013700008E0;-8.277999759E-1
4.085673750E1;3.362900019E0;7.353999615E-1;-1.990399957E0
4.087659063E1;3.589699984E0;3.159999847E-2;-2.156299829E0
4.089644375E1;4.573499680E0;2.071999907E-1;-9.980999827E-1
