"Time (s)";"Gyroscope x (rad/s)";"Gyroscope y (rad/s)";"Gyroscope z (rad/s)"
6.131312000E-3;-7.771950960E-2;2.501929402E-1;2.555162087E-2
1.804381200E-2;3.832742944E-2;1.884431988E-1;2.661627159E-2
2.997350000E-2;1.203055456E-1;5.536184460E-2;2.448697016E-2
4.186725000E-2;1.171115935E-1;9.581857361E-3;2.129301662E-3
5.377818700E-2;6.813765317E-2;8.197811246E-2;-1.809906401E-2
6.568912500E-2;-7.452555932E-3;1.437278688E-1;-2.981022373E-2
7.760162500E-2;-7.665485889E-2;7.665485889E-2;-1.384046115E-2
8.951256200E-2;-1.043357849E-1;8.517206647E-3;-5.323254038E-3
1.014250620E-1;-1.373399645E-1;5.536184460E-2;2.981022373E-2
1.133360000E-1;-1.426632106E-1;1.522450745E-1;4.365068302E-2
1.252469370E-1;-1.586329788E-1;2.853264213E-1;2.129301615E-2
1.371594370E-1;-1.565036774E-1;3.609166443E-1;1.384046115E-2
1.490719370E-1;-1.596976221E-1;4.162784815E-1;7.452555932E-3
1.609828750E-1;-1.639562249E-1;4.311835766E-1;-6.387905218E-3
1.728938120E-1;-1.117883399E-1;3.971147537E-1;-1.809906401E-2
1.848047500E-1;-9.581857361E-3;2.831971347E-1;2.129301662E-3
1.967188120E-1;7.239625603E-2;2.044129670E-1;2.235766686E-2
2.086281870E-1;1.298874021E-1;1.266934574E-1;1.171115879E-2
2.205406870E-1;1.288227588E-1;3.087487444E-2;-2.235766686E-2
2.324578750E-1;8.091346174E-2;4.471533373E-2;-2.555162087E-2
2.443625620E-1;-1.916371472E-2;2.022836655E-1;-3.087487444E-2
2.562750620E-1;-1.341460049E-1;3.406882584E-1;-2.981022373E-2
2.681860000E-1;-1.884431988E-1;4.301189482E-1;-2.235766686E-2
2.800985000E-1;-1.852492392E-1;3.513347805E-1;-5.323254038E-3
2.920094370E-1;-1.501157731E-1;6.174974889E-2;2.129301615E-2
3.039203750E-1;-9.262461960E-2;-2.331585288E-1;3.513347730E-2
3.158360000E-1;-4.152138159E-2;-2.927789688E-1;-2.235766686E-2
3.277453750E-1;-4.258603230E-2;-1.703441292E-1;-1.054004356E-1
3.396625620E-1;-8.623671532E-2;2.981022373E-2;-9.581857920E-2
3.515672500E-1;-2.214473784E-1;2.831971347E-1;2.022836544E-2
3.634797500E-1;-5.301961303E-1;9.134704471E-1;1.927018017E-1
3.753906870E-1;-7.569667697E-1;1.464959502E0;2.331585288E-1
3.873016250E-1;-7.058635354E-1;1.608687401E0;1.309520602E-1
3.992172500E-1;-6.281439662E-1;1.635303736E0;-4.577998444E-2
4.111250620E-1;-4.844161272E-1;1.253094077E0;-2.108008713E-1
4.230375620E-1;-2.970375717E-1;7.324797511E-1;-3.417529166E-1
4.349485000E-1;-6.068509817E-2;2.938436270E-1;-3.364296556E-1
4.468610000E-1;1.234994978E-1;-1.373399645E-1;-3.343003690E-1
4.587719370E-1;3.332357109E-1;-4.812221825E-1;-2.672273517E-1
4.706875620E-1;4.460887015E-1;-5.834286809E-1;-1.203055456E-1
4.825953750E-1;4.673817158E-1;-5.323254466E-1;7.771950960E-2
4.945094370E-1;4.237310290E-1;-3.428175747E-1;2.650980651E-1
5.064297500E-1;3.321710527E-1;-2.033483088E-1;2.991668880E-1
5.183297500E-1;1.969604045E-1;-1.075297371E-1;2.033483088E-1
5.302406870E-1;1.863138974E-1;9.581857920E-2;1.320167035E-1
5.421531870E-1;2.587101460E-1;2.619041204E-1;1.309520602E-1
5.540656870E-1;2.416757345E-1;5.003859103E-2;1.394692659E-1
5.659766250E-1;1.990897059E-1;-2.991668880E-1;1.479864717E-1
5.779078750E-1;2.012190074E-1;-5.355193615E-1;1.139176413E-1
5.898000620E-1;2.682920098E-1;-5.919458866E-1;5.962044746E-2
6.017110000E-1;3.885975480E-1;-5.600063205E-1;2.129301615E-2
6.136219370E-1;4.631231129E-1;-4.492826462E-1;-9.581857361E-3
6.255344370E-1;4.780282378E-1;-1.405339092E-1;-5.962044746E-2
6.374453750E-1;4.216017425E-1;2.512575984E-1;-1.362753063E-1
6.493578750E-1;3.321710527E-1;4.013733566E-1;-1.032711342E-1
6.612688120E-1;2.384817898E-1;1.064650831E-3;6.494370103E-2
6.731844370E-1;2.065422684E-1;-9.794788063E-2;3.673045337E-1
6.850922500E-1;1.660855263E-1;-1.224348471E-1;5.451012254E-1
6.970031870E-1;7.665485889E-2;-3.119426966E-1;6.068509817E-1
7.089156870E-1;-2.555162087E-2;-5.546830893E-1;6.781826019E-1
7.208266250E-1;-1.341460049E-1;-9.273108840E-1;7.207686305E-1
7.327453750E-1;-1.809906363E-1;-1.276516318E0;6.441137791E-1
7.446500620E-1;-1.671501845E-1;-1.304197311E0;4.588645101E-1
7.565610000E-1;-1.224348471E-1;-1.168986678E0;3.481408358E-1
7.684735000E-1;-4.045673087E-2;-8.144578934E-1;3.087487519E-1
7.803844370E-1;2.874557301E-2;-3.034254909E-1;3.268478215E-1
7.922953750E-1;4.790928960E-2;4.045673087E-2;3.822096586E-1
8.042078750E-1;2.981022373E-2;1.820552945E-1;3.992440701E-1
8.161188120E-1;-7.452555932E-3;2.267706245E-1;3.917915225E-1
8.280297500E-1;-4.577998444E-2;2.491282970E-1;3.715631366E-1
8.399422500E-1;-5.855579674E-2;2.831971347E-1;3.374943137E-1
8.518547500E-1;-8.517206460E-2;2.768092155E-1;2.938436270E-1
8.637703750E-1;-1.011418328E-1;1.927018017E-1;2.565808594E-1
8.756781870E-1;-7.665485889E-2;1.384046078E-1;1.841845959E-1
8.875891250E-1;-8.517206647E-3;1.277581006E-1;2.182534188E-1
8.995000620E-1;6.174974889E-2;1.405339092E-1;3.130073547E-1
9.114219370E-1;1.916371472E-2;8.730136603E-2;3.268478215E-1
9.233281870E-1;-1.905725002E-1;-1.171115935E-1;2.235766686E-2
9.352375620E-1;-2.959729433E-1;-1.767320335E-1;-2.118655145E-1
9.471469370E-1;-2.672273517E-1;-1.203055456E-1;-2.981022298E-1
9.590594370E-1;-1.809906363E-1;-5.110324174E-2;-3.247185051E-1
9.709703750E-1;-1.096590385E-1;-7.559020817E-2;-3.289771080E-1
9.828828750E-1;2.022836544E-2;-2.161241174E-1;-3.300417662E-1
9.947938120E-1;2.225120217E-1;-4.460887015E-1;-3.854036033E-1
1.006704750E0;3.917915225E-1;-6.334672570E-1;-5.376486778E-1
1.018617250E0;5.099677444E-1;-7.495141625E-1;-6.728593111E-1
1.030536000E0;5.557477474E-1;-8.400095105E-1;-7.207686305E-1
1.042439125E0;5.248728395E-1;-8.889834285E-1;-7.037342191E-1
1.054351625E0;4.492826462E-1;-8.687551022E-1;-6.526309848E-1
1.066262562E0;3.300417662E-1;-7.963588238E-1;-5.876872540E-1
1.078175062E0;1.916371584E-1;-7.058635354E-1;-5.174202919E-1
1.090087562E0;7.346090674E-2;-6.590188742E-1;-4.173431396E-1
1.102004750E0;4.045673087E-2;-6.675360799E-1;-3.311064243E-1
1.113909437E0;1.107236892E-1;-7.367383838E-1;-3.108780384E-1
1.125820375E0;2.427403927E-1;-8.176518679E-1;-3.098133802E-1
1.137732875E0;3.715631366E-1;-8.964360356E-1;-3.012961745E-1
1.149646937E0;4.673817158E-1;-1.011418343E0;-2.831971347E-1
1.161554750E0;5.067738295E-1;-1.045487165E0;-2.895850241E-1
1.173467250E0;5.323254466E-1;-9.336987734E-1;-2.746799290E-1
1.185378187E0;5.663942695E-1;-7.718718648E-1;-1.916371584E-1
1.197290687E0;5.610709786E-1;-6.707300544E-1;-6.600835174E-2
1.209201625E0;4.950626493E-1;-5.844933391E-1;4.790928960E-2
1.221112562E0;4.514119625E-1;-5.025151968E-1;2.012190074E-1
1.233025062E0;4.322482347E-1;-4.428947568E-1;4.184077680E-1
1.244936000E0;4.418300986E-1;-3.534640670E-1;6.174975038E-1
1.256848500E0;4.567352235E-1;-2.576455176E-1;7.612253428E-1
1.268764125E0;4.152138233E-1;-1.714087874E-1;8.666257858E-1
1.280670375E0;2.991668880E-1;-9.475392103E-2;8.953713775E-1
1.292581312E0;1.192408949E-1;3.406882659E-2;9.283755422E-1
1.304493812E0;-5.003859103E-2;1.213701963E-1;1.054004312E0
1.316407875E0;-2.619041204E-1;1.203055456E-1;1.239253521E0
1.328317250E0;-4.375714958E-1;4.577998444E-2;1.358494520E0
1.340228187E0;-4.897393882E-1;-6.174974889E-2;1.411727071E0
1.352140687E0;-3.609166443E-1;-1.841845959E-1;1.406403780E0
1.364051625E0;-1.224348471E-1;-2.672273517E-1;1.307391286E0
1.375964125E0;2.065422684E-1;-2.959729433E-1;1.063586235E0
1.387882875E0;4.205370843E-1;-1.511804163E-1;7.899709344E-1
1.399787562E0;4.577998519E-1;6.174974889E-2;5.930105448E-1
1.411698500E0;3.385589719E-1;2.991668880E-1;4.343775511E-1
1.423609437E0;1.373399645E-1;3.257831633E-1;4.141491652E-1
1.435521937E0;8.517206647E-3;6.600835174E-2;5.152910352E-1
1.447432875E0;-7.452555932E-3;-2.831971347E-1;6.590188742E-1
1.459345375E0;7.133160532E-2;-5.397779942E-1;7.495141625E-1
1.471256312E0;2.299645841E-1;-6.909583807E-1;7.516434789E-1
1.483168812E0;3.747570813E-1;-6.494370103E-1;6.749886274E-1
1.495079750E0;4.258603454E-1;-3.641105890E-1;6.121742129E-1
1.507009437E0;3.449468613E-1;-4.152138159E-2;5.536184311E-1
1.518903187E0;1.746027321E-1;2.523222566E-1;4.524766207E-1
1.530814125E0;4.790928960E-2;3.428175747E-1;3.747570813E-1
1.542726625E0;1.703441329E-2;1.873785406E-1;3.907268643E-1
1.554637562E0;1.032711342E-1;-1.181762442E-1;4.695110321E-1
1.566550062E0;2.469989955E-1;-3.619812727E-1;4.865454435E-1
1.578461000E0;3.758217394E-1;-5.770407319E-1;3.992440701E-1
1.590371937E0;4.471533597E-1;-5.951398015E-1;3.012961745E-1
1.602284437E0;4.801575243E-1;-2.810678184E-1;2.331585288E-1
1.614195375E0;4.886747301E-1;2.682920098E-1;1.873785406E-1
1.626112562E0;4.279896319E-1;6.600835323E-1;1.884431988E-1
1.638018812E0;3.172659576E-1;7.601606846E-1;2.438050359E-1
1.649929750E0;2.022836655E-1;6.217560768E-1;2.853264213E-1
1.661842250E0;1.192408949E-1;4.194724262E-1;2.938436270E-1
1.673753187E0;-9.581857361E-3;8.091346174E-2;2.842617631E-1
1.685671937E0;-1.543743759E-1;-2.278352827E-1;2.150594741E-1
1.697576625E0;-2.523222566E-1;-3.311064243E-1;1.309520602E-1
1.709487562E0;-2.842617631E-1;-2.129301727E-1;8.410741389E-2
1.721400062E0;-2.714859545E-1;-3.619812801E-2;1.075297371E-1
1.733311000E0;-1.703441292E-1;2.853264213E-1;1.341460049E-1
1.745226625E0;-9.049531817E-2;5.025151968E-1;1.639562249E-1
1.757134437E0;-3.619812801E-2;5.898165703E-1;2.342231870E-1
1.769045375E0;-2.342231758E-2;4.641877711E-1;2.906496823E-1
1.780959437E0;-2.874557301E-2;2.331585288E-1;2.725506127E-1
1.792868812E0;-4.365068302E-2;2.235766686E-2;1.820552945E-1
1.804781312E0;-6.920230389E-2;4.365068302E-2;1.171115935E-1
1.816692250E0;-1.203055456E-1;1.533097178E-1;9.155996889E-2
1.828603187E0;-1.575683206E-1;2.448696941E-1;1.458571702E-1
1.840515687E0;-1.501157731E-1;3.374943137E-1;2.810678184E-1
1.852428187E0;-1.384046078E-1;3.758217394E-1;3.715631366E-1
1.864339125E0;-1.469218135E-1;2.970375717E-1;3.822096586E-1
1.876250062E0;-1.415985674E-1;1.607622802E-1;3.374943137E-1
1.888162562E0;-1.522450745E-1;-1.171115879E-2;3.162012994E-1
1.900073500E0;-2.150594741E-1;-2.193180770E-1;3.130073547E-1
1.911986000E0;-3.364296556E-1;-2.981022298E-1;3.066194355E-1
1.923903187E0;-4.939979911E-1;-3.609166443E-1;3.428175747E-1
1.935812562E0;-6.025923491E-1;-3.609166443E-1;4.514119625E-1
1.947720375E0;-6.057863235E-1;-2.757445574E-1;5.387133360E-1
1.959631312E0;-5.131617188E-1;-1.724734306E-1;5.568124056E-1
1.971543812E0;-3.715631366E-1;-1.479864717E-1;5.067738295E-1
1.983454750E0;-2.150594741E-1;-1.927018017E-1;4.386361539E-1
1.995367250E0;-1.096590385E-1;-3.023608327E-1;3.779510558E-1
2.007278187E0;-4.258603230E-2;-4.567352235E-1;3.183306158E-1
2.019195375E0;-1.064650808E-2;-5.940751433E-1;2.278352827E-1
2.031101625E0;-4.365068302E-2;-7.047988772E-1;1.341460049E-1
2.043014125E0;-1.341460049E-1;-7.197039723E-1;2.448697016E-2
2.054925062E0;-2.427403927E-1;-5.387133360E-1;-7.878416032E-2
2.066836000E0;-2.757445574E-1;-1.352106631E-1;-7.346090674E-2
2.078746937E0;-2.320938855E-1;9.581857920E-2;2.342231758E-2
2.090659437E0;-1.234994978E-1;2.384817898E-1;1.032711342E-1
2.102571937E0;-9.581857361E-3;2.065422684E-1;1.405339092E-1
2.114482875E0;9.901253134E-2;1.277581044E-2;1.703441292E-1
2.126395375E0;2.331585288E-1;-2.203827202E-1;1.916371584E-1
2.138304750E0;3.502701223E-1;-3.098133802E-1;2.001543641E-1
2.150217250E0;4.450240433E-1;-2.949082851E-1;2.086715698E-1
2.162128187E0;4.748342633E-1;-2.225120217E-1;1.905725002E-1
2.174039125E0;4.503473043E-1;-6.387905031E-2;1.703441292E-1
2.185951625E0;3.981794119E-1;2.012190074E-1;1.990897059E-1
2.197862562E0;3.438822329E-1;3.896622062E-1;2.778738737E-1
2.209775062E0;2.672273517E-1;4.173431396E-1;3.300417662E-1
2.221686000E0;2.001543641E-1;3.385589719E-1;3.279124498E-1
2.233598500E0;1.596976221E-1;2.363524884E-1;2.970375717E-1
2.245509437E0;1.692794859E-1;1.863138974E-1;2.565808594E-1
2.257420375E0;1.884431988E-1;1.596976221E-1;2.108008713E-1
2.269332875E0;1.809906363E-1;1.596976221E-1;2.352878302E-1
2.281243812E0;1.660855263E-1;1.873785406E-1;2.906496823E-1
2.293156312E0;1.618269235E-1;3.353650272E-1;3.087487519E-1
2.305067250E0;1.511804163E-1;4.418300986E-1;2.768092155E-1
2.316978187E0;9.368927032E-2;4.556705654E-1;2.139948159E-1
2.328890687E0;-4.258603230E-2;3.662398756E-1;1.245641485E-1
2.340803187E0;-2.225120217E-1;2.267706245E-1;7.239625603E-2
2.352714125E0;-3.651752472E-1;7.452555746E-2;1.149822921E-1
2.364625062E0;-4.460887015E-1;-3.939208016E-2;1.980250627E-1
2.376537562E0;-4.641877711E-1;-6.813765317E-2;2.959729433E-1
2.388448500E0;-4.301189482E-1;-1.628915817E-1;4.141491652E-1
2.400359437E0;-4.066966176E-1;-2.885203660E-1;4.993212521E-1
2.412278187E0;-3.864682615E-1;-2.235766798E-1;5.035798550E-1
2.424192250E0;-3.822096586E-1;-1.288227588E-1;5.120970607E-1
2.436104750E0;-4.514119625E-1;-1.330813617E-1;5.482951999E-1
2.448006312E0;-5.887519121E-1;-2.214473784E-1;6.654067636E-1
2.459918812E0;-6.707300544E-1;-4.705756605E-1;7.899709344E-1
2.471829750E0;-7.069281340E-1;-7.505788207E-1;8.932420611E-1
2.483742250E0;-6.345319152E-1;-9.294402003E-1;9.890606403E-1
2.495653187E0;-4.993212521E-1;-8.581085801E-1;1.072103381E0
2.507564125E0;-3.704984784E-1;-6.270793676E-1;1.190279603E0
2.519504750E0;-3.534640670E-1;-4.577998519E-1;1.264805198E0
2.531392250E0;-4.066966176E-1;-2.054776102E-1;1.276516318E0
2.543300062E0;-5.365840197E-1;8.410741389E-2;1.244576812E0
2.555211000E0;-7.069281340E-1;1.884431988E-1;1.217960596E0
2.567123500E0;-8.825955391E-1;2.448697016E-2;1.187085629E0
2.579034437E0;-9.635090232E-1;-1.607622802E-1;1.159404755E0
2.590945375E0;-9.688322544E-1;-2.001543641E-1;1.147693634E0
2.602857875E0;-9.411513209E-1;-1.586329788E-1;1.124271274E0
2.614768812E0;-9.134704471E-1;-1.192408949E-1;1.061456919E0
2.626681312E0;-8.591732383E-1;1.596976258E-2;1.001836419E0
2.638595375E0;-7.803890705E-1;2.022836655E-1;9.400866628E-1
2.650509437E0;-7.026695609E-1;3.800803423E-1;8.368155360E-1
2.662415687E0;-6.643421054E-1;3.928561509E-1;7.303504944E-1
2.674326625E0;-6.856351495E-1;3.162012994E-1;5.983337760E-1
2.686237562E0;-7.228979468E-1;1.543743759E-1;4.908040464E-1
2.698150062E0;-7.197039723E-1;-5.003859103E-2;4.450240433E-1
2.710062562E0;-6.760532856E-1;-1.405339092E-1;4.695110321E-1
2.721973500E0;-5.919458866E-1;-5.323254038E-3;5.919458866E-1
2.733886000E0;-5.025151968E-1;2.512575984E-1;8.027467132E-1
2.745796937E0;-4.343775511E-1;4.141491652E-1;9.869313240E-1
2.757707875E0;-3.928561509E-1;5.770407319E-1;1.044422507E0
2.769618812E0;-3.768863976E-1;7.644193172E-1;1.041228533E0
2.781531312E0;-4.194724262E-1;9.581857324E-1;1.026323438E0
2.793442250E0;-5.003858805E-1;1.059327602E0;9.336987734E-1
2.805353187E0;-5.727821589E-1;8.730136752E-1;7.644193172E-1
2.817265687E0;-6.121742129E-1;5.834286809E-1;6.036570072E-1
2.829176625E0;-5.993984342E-1;4.269249737E-1;5.355193615E-1
2.841089125E0;-5.823640227E-1;3.513347805E-1;5.770407319E-1
2.853000062E0;-5.930105448E-1;3.513347805E-1;6.654067636E-1
2.864912562E0;-5.844933391E-1;3.928561509E-1;7.378030419E-1
2.876823500E0;-5.419072509E-1;4.503473043E-1;7.644193172E-1
2.888740687E0;-5.663942695E-1;2.448696941E-1;8.006174564E-1
2.900646937E0;-6.547602415E-1;-1.990897059E-1;7.793244123E-1
2.912559437E0;-5.940751433E-1;-2.150594741E-1;5.440365672E-1
2.924470375E0;-5.057091713E-1;-6.387905031E-2;2.310292274E-1
2.936381312E0;-5.067738295E-1;-2.597748041E-1;9.688322991E-2
2.948293812E0;-5.727821589E-1;-3.353650272E-1;4.258603323E-3
2.960204750E0;-5.674588680E-1;-1.937664598E-1;-1.064650808E-2
2.972117250E0;-4.801575243E-1;7.133160532E-2;3.726277873E-2
2.984028187E0;-3.555933833E-1;5.184849501E-1;1.213701963E-1
2.995940687E0;-1.458571702E-1;7.175746560E-1;1.841845959E-1
3.007851625E0;5.003859103E-2;5.600063205E-1;1.426632106E-1
3.019762562E0;8.730136603E-2;1.990897059E-1;-5.323254317E-2
3.031675062E0;1.809906401E-2;-1.064650808E-2;-2.693566680E-1
3.043586000E0;1.596976258E-2;-1.054004356E-1;-3.417529166E-1
3.055496937E0;-1.288227588E-1;7.452555746E-2;-2.118655145E-1
3.067409437E0;-3.193952441E-1;4.290542901E-1;9.581857361E-3
3.079320375E0;-4.939979911E-1;6.994755864E-1;2.885203660E-1
3.091232875E0;-6.249500513E-1;8.325569630E-1;5.621356368E-1
3.103143812E0;-6.792472601E-1;8.815308809E-1;6.632774472E-1
3.115059437E0;-6.579542160E-1;8.453327417E-1;5.919458866E-1
3.126967250E0;-5.834286809E-1;5.589416623E-1;4.056319594E-1
3.138878187E0;-5.323254466E-1;2.352878302E-1;1.469218135E-1
3.150790687E0;-5.301961303E-1;1.117883399E-1;-1.288227588E-1
3.162701625E0;-4.727049768E-1;1.586329788E-1;-2.438050359E-1
3.174612562E0;-4.024380147E-1;2.768092155E-1;-1.533097178E-1
3.186525062E0;-3.204599023E-1;3.374943137E-1;-2.129301662E-3
3.198439125E0;-1.916371584E-1;5.451012254E-1;5.323254317E-2
3.210348500E0;-2.022836544E-2;6.707300544E-1;-2.235766686E-2
3.222259437E0;1.575683206E-1;7.005402446E-1;-1.905725002E-1
3.234171937E0;2.480636388E-1;6.536956429E-1;-4.801575243E-1
3.246082875E0;2.193180770E-1;3.992440701E-1;-7.335444093E-1
3.258000062E0;1.905725002E-1;2.672273517E-1;-8.070053458E-1
3.269906312E0;2.097362131E-1;3.076840937E-1;-7.260918617E-1
3.281817250E0;2.288999259E-1;4.024380147E-1;-3.800803423E-1
3.293729750E0;1.980250627E-1;4.386361539E-1;6.387905031E-2
3.305640687E0;1.724734306E-1;5.525537729E-1;5.866225958E-1
3.317551625E0;1.405339092E-1;4.162784815E-1;7.420616150E-1
3.329464125E0;4.897394031E-2;3.406882584E-1;4.524766207E-1
3.341376625E0;2.768092230E-2;1.756673902E-1;-2.768092230E-2
3.353293812E0;5.323254038E-3;-1.032711342E-1;-1.692794859E-1
3.365198500E0;-2.661627159E-2;-4.173431396E-1;-4.258603230E-2
3.377111000E0;-2.342231758E-2;-3.843389452E-1;2.012190074E-1
3.389021937E0;-5.962044746E-2;-1.543743759E-1;5.067738295E-1
3.400932875E0;-1.117883399E-1;5.323254038E-3;7.207686305E-1
3.412845375E0;-1.692794859E-1;-5.323254038E-3;8.219104409E-1
3.424757875E0;-3.438822329E-1;-5.855579674E-2;8.996299505E-1
3.436670375E0;-5.951398015E-1;-2.810678184E-1;9.475392699E-1
3.448579750E0;-8.655611277E-1;-7.399323583E-1;8.953713775E-1
3.460492250E0;-1.122141957E0;-1.227542400E0;8.038113713E-1
3.472403187E0;-1.414920926E0;-1.617204666E0;7.910355926E-1
3.484314125E0;-1.599105597E0;-1.658725977E0;8.740783334E-1
3.496226625E0;-1.550131679E0;-1.508610249E0;9.560564756E-1
3.508137562E0;-1.272257805E0;-1.008224368E0;1.042293191E0
3.520051625E0;-7.974234819E-1;-5.812993646E-1;1.192408919E0
3.531962562E0;-2.267706245E-1;-2.917143404E-1;1.400015831E0
3.543875062E0;2.257059813E-1;-1.405339092E-1;1.610816717E0
3.555784437E0;5.887519121E-1;-2.203827202E-1;1.842910647E0
3.567695375E0;9.805434346E-1;-3.492054641E-1;2.075004578E0
3.579607875E0;1.471347451E0;-3.704984784E-1;2.097362041E0
3.591518812E0;1.941923141E0;-3.513347805E-1;1.917436123E0
3.603431312E0;2.229378939E0;-2.352878302E-1;1.656596661E0
3.615342250E0;2.382688522E0;-1.309520602E-1;1.376593590E0
3.627253187E0;2.373106718E0;3.832742944E-2;1.172180533E0
3.639165687E0;2.226184845E0;3.726277873E-2;1.143435001E0
3.651076625E0;2.056905508E0;-5.802347064E-1;1.472412109E0
3.662989125E0;1.897207856E0;-1.308455825E0;1.882302642E0
3.674900062E0;1.692794800E0;-1.554390192E0;2.132495642E0
3.686811000E0;1.361688375E0;-1.349977255E0;2.176146269E0
3.698723500E0;4.748342633E-1;-1.559713483E0;1.916371465E0
3.710640687E0;-7.388677001E-1;-2.104814768E0;1.067844748E0
3.722545375E0;-2.116525888E0;-2.869234085E0;8.517206647E-3
3.734457875E0;-2.789385319E0;-2.696760654E0;-9.730908871E-1
3.746368812E0;-2.577519655E0;-1.930212021E0;-1.506480932E0
3.758281312E0;-2.137818813E0;-1.280774951E0;-1.470282793E0
3.770192250E0;-1.934470534E0;-1.092331767E0;-7.420616150E-1
3.782106312E0;-2.188922167E0;-7.303504944E-1;5.642649531E-1
3.794015687E0;-2.300710440E0;-1.927018017E-1;2.042000294E0
3.805926625E0;-1.356365204E0;3.470761776E-1;3.219504118E0
3.817839125E0;-6.888290644E-1;1.595911622E0;3.767799377E0
3.829756312E0;-4.705756605E-1;1.460700989E0;3.868941069E0
3.841662562E0;-5.419072509E-1;4.727049768E-1;3.306805611E0
3.853573500E0;-6.930876970E-1;-6.089802980E-1;2.270900249E0
3.865486000E0;-9.539271593E-1;-1.928082705E0;7.005402446E-1
3.877396937E0;-1.404274464E0;-2.210215092E0;-7.782597542E-1
3.889315687E0;-1.714087844E0;-1.189214945E0;-8.687551022E-1
3.901220375E0;-1.519256711E0;-7.803890705E-1;2.438050359E-1
3.913131312E0;-1.581006527E0;7.133160532E-2;1.489446521E0
3.925043812E0;-1.770514369E0;6.728593111E-1;2.483830452E0
3.936954750E0;-1.957892895E0;8.644964695E-1;2.857522964E0
3.948873500E0;-1.919565439E0;1.002901077E0;2.886268377E0
3.960779750E0;-1.848233819E0;6.728593111E-1;3.021479130E0
3.972689125E0;-1.629980445E0;-5.216789246E-2;3.382395744E0
3.984601625E0;-1.285033584E0;-1.124271274E0;3.603843212E0
3.996512562E0;-9.155997038E-1;-2.344361067E0;3.931755543E0
4.008429750E0;-8.091346622E-1;-2.727635384E0;4.273508549E0
4.020336000E0;-5.823640227E-1;-3.286577225E0;4.519443035E0
4.032246937E0;-4.375714958E-1;-2.464666605E0;4.862260342E0
4.044159437E0;-3.353650272E-1;-1.193473577E0;5.407361507E0
4.056070375E0;-2.438050359E-1;-5.003859103E-2;6.312314987E0
4.067982875E0;-3.981794119E-1;8.549146056E-1;6.527374268E0
4.079901625E0;-9.762848020E-1;1.960022211E0;6.245241642E0
4.091804750E0;-1.834393382E0;2.926725149E0;5.670330524E0
4.103717250E0;-1.864203572E0;2.451890945E0;5.379680634E0
4.115628187E0;-1.874850154E0;2.161241293E0;5.007052898E0
4.127546937E0;-2.274094105E0;2.281546831E0;4.683399200E0
4.139454750E0;-2.547709465E0;2.014319420E0;4.477921486E0
4.151364125E0;-2.477442503E0;1.302067995E0;4.226664066E0
4.163275062E0;-1.716217160E0;-2.108008713E-1;3.726277828E0
4.175187562E0;-5.770407319E-1;-1.085943818E0;2.902238131E0
4.187098500E0;7.665486336E-1;-2.785126686E0;1.865268230E0
4.199009437E0;2.722312212E0;-5.465917587E0;6.366612315E-1
4.210920375E0;4.575869083E0;-8.902610779E0;-2.044129670E-1
4.222832875E0;3.332357168E0;-6.180298328E0;-6.345319152E-1
4.234743812E0;1.957892895E0;-2.928854465E0;-8.964360356E-1
4.246656312E0;1.229671717E0;-5.333900452E-1;-8.740783334E-1
4.258567250E0;7.665486336E-1;1.181762457E0;-9.709615707E-1
4.270481312E0;5.962044597E-1;1.901466370E0;-1.533097267E0
4.282390687E0;5.887519121E-1;1.965345502E0;-2.229378939E0
4.294301625E0;6.111095548E-1;1.937664509E0;-2.189986706E0
4.306220375E0;4.727049768E-1;1.422373533E0;-2.016448736E0
4.318125062E0;1.256287992E-1;6.345319152E-1;-1.947246432E0
4.330036000E0;-1.873785406E-1;-1.213701963E-1;-1.819488287E0
4.341948500E0;-1.096590385E-1;-6.281439960E-2;-1.636368394E0
4.353861000E0;-5.962044746E-2;2.363524884E-1;-1.401080489E0
4.365771937E0;-4.045673087E-2;2.342231870E-1;-1.145564318E0
4.377684437E0;1.171115879E-2;2.650980651E-1;-9.124057889E-1
4.389595375E0;1.809906401E-2;4.258603454E-1;-8.432034850E-1
4.401506312E0;2.235766686E-2;5.312607884E-1;-9.336987734E-1
4.413418812E0;1.043357849E-1;6.462430358E-1;-1.132788539E0
4.425329750E0;2.331585288E-1;7.814537287E-1;-1.316973090E0
4.437245375E0;4.066966176E-1;7.228979468E-1;-1.487317204E0
4.449154750E0;6.781826019E-1;6.654067636E-1;-1.610816717E0
4.461065687E0;8.538499475E-1;7.633546591E-1;-1.667243242E0
4.472976625E0;1.030582070E0;1.000771761E0;-1.825876236E0
4.484892250E0;1.186021090E0;1.283968925E0;-1.941923141E0
4.496800062E0;1.330813527E0;1.446860433E0;-2.012190104E0
4.508711000E0;1.519256711E0;1.520321369E0;-2.015383959E0
4.520623500E0;1.457507014E0;1.790742755E0;-1.922759414E0
4.532534437E0;1.502222300E0;2.136754274E0;-1.883367300E0
4.544445375E0;1.441537261E0;2.328391314E0;-1.830134749E0
4.556364125E0;1.386175394E0;2.268770933E0;-1.766255736E0
4.568268812E0;1.305261970E0;2.134624958E0;-1.684277654E0
4.580181312E0;1.217960596E0;1.963216186E0;-1.579941869E0
4.592092250E0;1.138111711E0;1.887625933E0;-1.549067020E0
4.604009437E0;1.068909407E0;1.913177609E0;-1.540549755E0
4.615915687E0;1.015676856E0;2.003672838E0;-1.604428768E0
4.627826625E0;9.688322544E-1;2.032418489E0;-1.648079515E0
4.639737562E0;9.241169095E-1;1.955763578E0;-1.722605109E0
4.651650062E0;9.358280897E-1;1.898272395E0;-1.777966857E0
4.663561000E0;9.475392699E-1;1.852492452E0;-1.814164996E0
4.675473500E0;9.443452954E-1;1.832264066E0;-1.876979470E0
4.687384437E0;9.624443650E-1;1.885496616E0;-1.916371465E0
4.699295375E0;9.454099536E-1;1.955763578E0;-1.971733332E0
4.711207875E0;9.198583364E-1;2.068616629E0;-2.006866932E0
4.723121937E0;9.475392699E-1;2.183598757E0;-2.086715698E0
4.735036000E0;9.698969126E-1;2.150594711E0;-2.148465395E0
4.746942250E0;9.933192134E-1;2.000478983E0;-2.219796896E0
4.758854750E0;1.027388096E0;1.956828237E0;-2.290063858E0
4.770767250E0;9.922545552E-1;1.931276679E0;-2.375236034E0
4.782676625E0;9.486039281E-1;1.983444571E0;-2.456149578E0
4.794589125E0;9.347634315E-1;2.021771908E0;-2.557291269E0
4.806500062E0;9.454099536E-1;2.035612345E0;-2.676532269E0
4.818412562E0;1.010353684E0;2.083521605E0;-2.821324825E0
4.830323500E0;1.099784374E0;2.279417515E0;-2.946953535E0
4.842256312E0;1.243512154E0;2.497670889E0;-3.041707516E0
4.854146937E0;1.408533096E0;2.708471775E0;-3.137526035E0
4.866057875E0;1.618269324E0;3.066194534E0;-3.208857536E0
4.877970375E0;1.809906483E0;3.444145441E0;-3.240797043E0
4.889881312E0;2.070745945E0;4.009475231E0;-3.253572941E0
4.901806312E0;2.367783546E0;4.690851688E0;-3.229085922E0
4.913704750E0;2.664821148E0;5.410555363E0;-3.210986853E0
4.925617250E0;2.876686573E0;6.041893482E0;-3.287641764E0
4.937528187E0;3.037448883E0;6.514598370E0;-3.461179972E0
4.949439125E0;3.252508402E0;6.900002003E0;-3.574032784E0
4.961351625E0;3.417529106E0;7.062893867E0;-3.597455263E0
4.973262562E0;3.562321663E0;6.637033463E0;-3.590002537E0
4.985175062E0;4.993212223E0;1.941923141E0;-3.072582245E0
4.997086000E0;4.470468998E0;-2.523222446E0;-2.517899275E0
5.008998500E0;-1.064650808E-2;-1.264805198E0;-1.615075350E0
5.020911000E0;-1.601234913E0;1.508610249E0;-5.589416623E-1
5.032820375E0;-7.271565199E-1;9.081471562E-1;1.873785406E-1
5.044732875E0;-3.736924529E-1;-3.683691919E-1;4.854807854E-1
5.056643812E0;-3.332357109E-1;-5.695881844E-1;3.641105890E-1
5.068554750E0;2.076069117E-1;0.000000000E0;1.767320335E-1
5.080476625E0;4.567352235E-1;2.448697016E-2;-2.342231758E-2
5.092378187E0;1.139176413E-1;-1.096590385E-1;-2.022836544E-2
5.104290687E0;-1.298874021E-1;9.794788063E-2;5.216789246E-2
5.116218812E0;-2.022836655E-1;7.452555746E-2;1.256287992E-1
5.128114125E0;-1.554390192E-1;-5.642649531E-2;2.012190074E-1
5.140025062E0;-7.133160532E-2;-1.596976258E-2;2.491282970E-1
5.151943812E0;4.152138159E-2;-5.323254038E-3;2.629687488E-1
5.163848500E0;1.277581006E-1;-3.619812801E-2;2.800031602E-1
5.175759437E0;1.660855263E-1;-7.771950960E-2;2.693566680E-1
5.187670375E0;1.533097178E-1;-5.962044746E-2;2.565808594E-1
5.199589125E0;1.479864717E-1;-3.513347730E-2;2.299645841E-1
5.211493812E0;1.107236892E-1;9.581857361E-3;1.841845959E-1
5.223406312E0;8.623671532E-2;2.129301615E-2;1.373399645E-1
5.235320375E0;7.239625603E-2;1.490511186E-2;8.517206460E-2
5.247229750E0;5.429719388E-2;3.406882659E-2;3.087487444E-2
5.259140687E0;5.323254317E-2;3.087487444E-2;4.258603323E-3
5.271057875E0;5.216789246E-2;2.022836544E-2;-1.064650831E-3
5.282964125E0;5.642649531E-2;1.277581044E-2;2.129301662E-3
5.294875062E0;5.536184460E-2;4.258603323E-3;4.258603323E-3
5.306787562E0;4.471533373E-2;-2.129301662E-3;-2.129301662E-3
5.318698500E0;3.832742944E-2;4.258603323E-3;-7.452555932E-3
5.330611000E0;3.193952516E-2;7.452555932E-3;-8.517206647E-3
5.342521937E0;2.555162087E-2;1.064650808E-2;-1.064650808E-2
5.354432875E0;1.703441329E-2;8.517206647E-3;-8.517206647E-3
5.366345375E0;2.129301662E-3;3.193952609E-3;-5.323254038E-3
5.378256312E0;-6.387905218E-3;-1.064650808E-2;0.000000000E0
5.390168812E0;-7.452555932E-3;-1.277581044E-2;1.064650808E-2
5.402079750E0;-5.323254038E-3;-2.555162087E-2;1.703441329E-2
5.413990687E0;-8.517206647E-3;-4.152138159E-2;2.129301615E-2
5.425903187E0;-1.277581044E-2;-5.536184460E-2;3.087487444E-2
5.437818812E0;-1.596976258E-2;-7.771950960E-2;4.258603230E-2
5.449729750E0;-1.064650808E-2;-7.239625603E-2;4.897394031E-2
5.461643812E0;-5.323254038E-3;-4.471533373E-2;4.045673087E-2
5.473550062E0;-6.387905218E-3;-1.171115879E-2;3.087487444E-2
5.485468812E0;-1.064650808E-2;-6.387905218E-3;2.342231758E-2
5.497375062E0;-1.916371472E-2;8.517206647E-3;2.342231758E-2
5.509286000E0;-3.300417587E-2;1.490511186E-2;1.596976258E-2
5.521195375E0;-4.897394031E-2;1.277581044E-2;3.193952609E-3
5.533107875E0;-5.642649531E-2;-2.129301662E-3;-3.193952609E-3
5.545020375E0;-6.707300246E-2;-6.387905218E-3;-1.064650831E-3
5.556931312E0;-7.559020817E-2;7.452555932E-3;-6.387905218E-3
5.568842250E0;-1.054004356E-1;-5.429719388E-2;-7.452555932E-3
5.580754750E0;-1.671501845E-1;-1.256287992E-1;-1.916371472E-2
5.592667250E0;-2.012190074E-1;-6.174974889E-2;-1.384046115E-2
5.604576625E0;-2.171887755E-1;4.258603323E-3;4.258603323E-3
5.616489125E0;-2.257059813E-1;-1.596976258E-2;2.448697016E-2
5.628400062E0;-2.395464331E-1;-5.003859103E-2;3.619812801E-2
5.640318812E0;-2.587101460E-1;-6.920230389E-2;3.300417587E-2
5.652223500E0;-2.842617631E-1;-7.026695460E-2;1.916371472E-2
5.664134437E0;-3.130073547E-1;-7.346090674E-2;-1.171115879E-2
5.676046937E0;-3.311064243E-1;-6.600835174E-2;-3.300417587E-2
5.687957875E0;-3.523994386E-1;-5.536184460E-2;-5.323254317E-2
5.699868812E0;-3.747570813E-1;-6.813765317E-2;-6.281439960E-2
5.711781312E0;-3.811450005E-1;-7.665485889E-2;-6.600835174E-2
5.723692250E0;-3.662398756E-1;-7.346090674E-2;-6.813765317E-2
5.735606312E0;-3.108780384E-1;-4.471533373E-2;-7.026695460E-2
5.747515687E0;-2.278352827E-1;-2.342231758E-2;-7.452555746E-2
5.759426625E0;-1.437278688E-1;-6.387905218E-3;-7.452555746E-2
5.771339125E0;-6.494370103E-2;6.387905218E-3;-8.197811246E-2
5.783250062E0;-3.193952516E-2;5.323254038E-3;-9.368927032E-2
5.795168812E0;-2.129301615E-2;-6.387905218E-3;-1.000771821E-1
5.807073500E0;-1.703441329E-2;3.193952609E-3;-1.000771821E-1
5.818984437E0;9.581857361E-3;4.684463516E-2;-9.581857920E-2
5.830896937E0;4.365068302E-2;3.087487444E-2;-9.155996889E-2
5.842809437E0;8.730136603E-2;2.022836544E-2;-1.011418328E-1
5.854720375E0;1.245641485E-1;2.981022373E-2;-1.277581006E-1
5.866631312E0;1.501157731E-1;6.068509817E-2;-1.650208831E-1
5.878543812E0;1.927018017E-1;9.049531817E-2;-1.905725002E-1
5.890454750E0;2.342231870E-1;9.155996889E-2;-2.022836655E-1
5.902365687E0;2.906496823E-1;1.171115935E-1;-1.969604045E-1
5.914286000E0;3.215245605E-1;1.330813617E-1;-1.863138974E-1
5.926189125E0;3.268478215E-1;1.277581006E-1;-1.671501845E-1
5.938101625E0;3.023608327E-1;1.075297371E-1;-1.426632106E-1
5.950012562E0;2.438050359E-1;8.623671532E-2;-1.192408949E-1
5.961925062E0;1.767320335E-1;7.239625603E-2;-7.771950960E-2
5.973836000E0;1.362753063E-1;7.771950960E-2;-3.193952516E-2
5.985746937E0;1.384046078E-1;6.281439960E-2;9.581857361E-3
5.997659437E0;1.501157731E-1;4.045673087E-2;2.874557301E-2
6.009570375E0;1.682148278E-1;3.406882659E-2;1.490511186E-2
6.021482875E0;1.735380888E-1;3.619812801E-2;-4.258603323E-3
6.033393812E0;1.565036774E-1;3.406882659E-2;-1.064650808E-2
6.045306312E0;1.384046078E-1;4.471533373E-2;-5.323254038E-3
6.057217250E0;1.256287992E-1;3.939208016E-2;-1.064650831E-3
6.069132875E0;1.245641485E-1;3.087487444E-2;2.129301662E-3
6.081059437E0;1.256287992E-1;3.300417587E-2;4.258603323E-3
6.092951625E0;1.224348471E-1;5.003859103E-2;3.193952609E-3
6.104862562E0;1.107236892E-1;3.939208016E-2;6.387905218E-3
6.116775062E0;1.022064835E-1;3.832742944E-2;9.581857361E-3
6.128686000E0;8.197811246E-2;4.471533373E-2;8.517206647E-3
6.140598500E0;7.026695460E-2;4.897394031E-2;8.517206647E-3
6.152509437E0;5.642649531E-2;1.703441329E-2;6.387905218E-3
6.164420375E0;4.684463516E-2;3.193952609E-3;1.064650831E-3
6.176332875E0;2.342231758E-2;-1.171115879E-2;-4.258603323E-3
6.188243812E0;1.809906401E-2;-2.661627159E-2;-1.064650831E-3
6.200156312E0;1.809906401E-2;-3.193952516E-2;-3.193952609E-3
6.212067250E0;2.342231758E-2;-2.342231758E-2;-2.129301662E-3
6.223978187E0;4.897394031E-2;6.387905218E-3;1.064650831E-3
6.235890687E0;5.642649531E-2;-1.064650831E-3;1.064650831E-3
6.247801625E0;6.494370103E-2;1.064650831E-3;1.064650831E-3
6.259714125E0;5.962044746E-2;2.235766686E-2;0.000000000E0
6.271625062E0;5.110324174E-2;1.171115879E-2;2.129301662E-3
6.283542250E0;3.832742944E-2;1.171115879E-2;1.064650831E-3
6.295448500E0;2.981022373E-2;2.555162087E-2;0.000000000E0
6.307359437E0;3.939208016E-2;-1.384046115E-2;4.258603323E-3
6.319271937E0;4.471533373E-2;-1.703441329E-2;1.064650831E-3
6.331187562E0;2.661627159E-2;9.581857361E-3;-2.129301662E-3
6.343098500E0;2.129301615E-2;6.387905218E-3;1.064650831E-3
6.355006312E0;2.555162087E-2;-1.596976258E-2;-2.129301662E-3
6.366918812E0;2.022836544E-2;-1.809906401E-2;-2.129301662E-3
6.378829750E0;2.022836544E-2;-1.596976258E-2;-5.323254038E-3
6.390748500E0;2.342231758E-2;-9.581857361E-3;-4.258603323E-3
6.402653187E0;3.087487444E-2;-1.064650808E-2;0.000000000E0
6.414564125E0;4.152138159E-2;-4.790928960E-2;8.517206647E-3
6.426476625E0;5.323254317E-2;-1.277581044E-2;6.387905218E-3
6.438387562E0;5.642649531E-2;5.323254038E-3;9.581857361E-3
6.450300062E0;5.323254317E-2;6.387905218E-3;1.064650808E-2
6.462211000E0;4.897394031E-2;1.171115879E-2;1.064650808E-2
6.474123500E0;5.216789246E-2;1.703441329E-2;9.581857361E-3
6.486034437E0;5.003859103E-2;1.703441329E-2;1.384046115E-2
6.497945375E0;4.045673087E-2;2.129301615E-2;9.581857361E-3
6.509859437E0;3.300417587E-2;2.235766686E-2;1.490511186E-2
6.521768812E0;3.513347730E-2;2.555162087E-2;2.022836544E-2
6.533679750E0;3.939208016E-2;1.703441329E-2;2.448697016E-2
6.545592250E0;3.939208016E-2;2.874557301E-2;2.129301615E-2
6.557503187E0;2.981022373E-2;9.581857361E-3;2.874557301E-2
6.569417250E0;3.087487444E-2;-1.064650831E-3;3.193952516E-2
6.581331312E0;2.235766686E-2;1.703441329E-2;2.874557301E-2
6.593237562E0;1.703441329E-2;1.703441329E-2;2.981022373E-2
6.605150062E0;2.661627159E-2;-8.517206647E-3;4.152138159E-2
6.617061000E0;2.661627159E-2;1.064650831E-3;4.471533373E-2
6.628973500E0;2.768092230E-2;2.129301662E-3;4.365068302E-2
6.640890687E0;2.448697016E-2;-9.581857361E-3;4.152138159E-2
6.652796937E0;1.809906401E-2;-6.387905218E-3;3.832742944E-2
6.664707875E0;2.129301615E-2;1.064650831E-3;3.193952516E-2
6.676618812E0;3.300417587E-2;-1.064650831E-3;3.087487444E-2
6.688531312E0;3.726277873E-2;1.064650831E-3;3.406882659E-2
6.700446937E0;3.939208016E-2;-8.517206647E-3;3.513347730E-2
6.712362562E0;4.258603230E-2;1.064650831E-3;3.087487444E-2
6.724273500E0;4.258603230E-2;1.064650831E-3;2.768092230E-2
6.736176625E0;4.897394031E-2;-1.277581044E-2;1.809906401E-2
6.748093812E0;5.962044746E-2;-1.596976258E-2;5.323254038E-3
6.760000062E0;7.559020817E-2;-9.581857361E-3;-1.596976258E-2
6.771920375E0;8.197811246E-2;7.452555932E-3;-2.129301615E-2
6.783823500E0;7.239625603E-2;7.452555932E-3;-2.555162087E-2
6.795734437E0;7.452555932E-3;-1.916371472E-2;-2.129301615E-2
6.807646937E0;-7.665485889E-2;-9.794788063E-2;1.171115879E-2
6.819557875E0;-9.368927032E-2;-7.984881103E-2;5.429719388E-2
6.831470375E0;4.258603323E-3;3.513347730E-2;2.448697016E-2
6.843381312E0;-1.171115879E-2;-3.513347730E-2;-1.064650831E-3
6.855293812E0;-2.981022373E-2;-2.448697016E-2;2.129301662E-3
6.867211000E0;-4.258603323E-3;-2.022836544E-2;1.064650831E-3
6.879117250E0;7.452555932E-3;1.490511186E-2;3.193952609E-3
6.891028187E0;-8.517206647E-3;9.581857361E-3;5.323254038E-3
6.902939125E0;-1.703441329E-2;-1.596976258E-2;4.258603323E-3
6.914851625E0;-9.581857361E-3;2.129301662E-3;1.064650808E-2
6.926764125E0;-3.406882659E-2;-9.581857361E-3;1.703441329E-2
6.938675062E0;-3.300417587E-2;-1.490511186E-2;1.809906401E-2
6.950586000E0;-3.087487444E-2;-5.429719388E-2;2.129301615E-2
6.962498500E0;-1.596976258E-2;-1.596976258E-2;1.703441329E-2
6.974409437E0;-3.726277873E-2;-4.258603323E-3;2.235766686E-2
6.986328187E0;-7.771950960E-2;-6.387905031E-2;2.768092230E-2
6.998239125E0;1.490511186E-2;-1.490511186E-2;2.022836544E-2
7.010143812E0;3.513347730E-2;3.619812801E-2;8.517206647E-3
7.022056312E0;-1.809906401E-2;-1.703441329E-2;1.064650808E-2
7.033967250E0;1.277581044E-2;8.517206647E-3;1.171115879E-2
7.045886000E0;1.064650808E-2;8.517206647E-3;1.171115879E-2
7.057790687E0;7.452555932E-3;0.000000000E0;1.277581044E-2
7.069701625E0;8.517206647E-3;1.064650808E-2;1.596976258E-2
7.081614125E0;2.129301662E-3;4.258603323E-3;1.809906401E-2
7.093525062E0;4.258603323E-3;-1.916371472E-2;1.596976258E-2
7.105436000E0;4.258603323E-3;-8.517206647E-3;1.596976258E-2
7.117348500E0;4.258603323E-3;1.064650831E-3;1.809906401E-2
7.129261000E0;2.129301662E-3;-3.193952609E-3;2.129301615E-2
7.141171937E0;1.064650831E-3;-1.064650808E-2;2.661627159E-2
7.153082875E0;3.193952609E-3;-5.323254038E-3;2.768092230E-2
7.164993812E0;4.258603323E-3;1.064650831E-3;2.874557301E-2
7.176906312E0;5.323254038E-3;-5.323254038E-3;3.087487444E-2
7.188817250E0;5.323254038E-3;0.000000000E0;2.874557301E-2
7.200728187E0;3.193952609E-3;-2.129301662E-3;2.874557301E-2
7.212640687E0;3.193952609E-3;-3.193952609E-3;2.874557301E-2
7.224557875E0;1.064650831E-3;-8.517206647E-3;3.193952516E-2
7.236464125E0;-1.064650831E-3;-8.517206647E-3;2.768092230E-2
7.248375062E0;-2.129301662E-3;-1.490511186E-2;2.981022373E-2
7.260293812E0;2.129301662E-3;-9.581857361E-3;2.448697016E-2
7.272198500E0;2.129301662E-3;-8.517206647E-3;2.129301615E-2
7.284112562E0;2.129301662E-3;-9.581857361E-3;2.448697016E-2
7.296021937E0;9.581857361E-3;2.129301662E-3;2.235766686E-2
7.307932875E0;1.064650808E-2;2.129301662E-3;2.129301615E-2
7.319845375E0;2.448697016E-2;9.581857361E-3;2.235766686E-2
7.331756312E0;3.619812801E-2;2.661627159E-2;2.342231758E-2
7.343675062E0;4.045673087E-2;5.003859103E-2;1.064650831E-3
7.355586000E0;2.555162087E-2;-1.596976258E-2;3.193952609E-3
7.367490687E0;-2.129301662E-3;-3.619812801E-2;5.323254038E-3
7.379403187E0;-1.703441329E-2;0.000000000E0;1.171115879E-2
7.391314125E0;-2.022836544E-2;-1.490511186E-2;1.064650808E-2
7.403228187E0;-2.022836544E-2;-4.365068302E-2;2.129301615E-2
7.415137562E0;-1.064650808E-2;2.129301662E-3;1.490511186E-2
7.427050062E0;-2.235766686E-2;-2.022836544E-2;1.171115879E-2
7.438961000E0;-8.517206647E-3;-1.916371472E-2;1.064650808E-2
7.450873500E0;-3.193952609E-3;0.000000000E0;9.581857361E-3
7.462784437E0;4.258603323E-3;-3.193952609E-3;8.517206647E-3
7.474695375E0;8.517206647E-3;-4.258603323E-3;1.064650808E-2
7.486607875E0;3.193952609E-3;6.387905218E-3;1.384046115E-2
7.498518812E0;6.387905218E-3;3.193952609E-3;1.384046115E-2
7.510431312E0;3.193952609E-3;-3.193952609E-3;1.703441329E-2
7.522345375E0;-1.064650831E-3;-2.129301662E-3;1.809906401E-2
7.534254750E0;-3.193952609E-3;-1.384046115E-2;1.596976258E-2
7.546165687E0;-7.452555932E-3;-1.490511186E-2;1.916371472E-2
7.558076625E0;-1.171115879E-2;-1.916371472E-2;2.022836544E-2
7.569989125E0;-1.703441329E-2;1.064650831E-3;2.768092230E-2
7.581900062E0;-2.342231758E-2;-1.596976258E-2;9.581857361E-3
7.593811000E0;-7.452555932E-3;-2.448697016E-2;9.581857361E-3
7.605723500E0;-8.517206647E-3;1.384046115E-2;1.171115879E-2
7.617634437E0;-5.323254038E-3;-4.258603323E-3;3.193952609E-3
7.629546937E0;2.129301662E-3;-1.809906401E-2;3.193952609E-3
7.641457875E0;-5.323254038E-3;-5.323254038E-3;6.387905218E-3
7.653368812E0;-4.258603323E-3;1.171115879E-2;5.323254038E-3
7.665282875E0;4.258603323E-3;1.171115879E-2;3.193952609E-3
7.677192250E0;-5.323254038E-3;-1.703441329E-2;3.193952609E-3
7.689104750E0;-4.258603323E-3;-1.916371472E-2;2.129301662E-3
7.701021937E0;-2.129301662E-3;-2.129301662E-3;-2.129301662E-3
7.712926625E0;-2.129301662E-3;-1.596976258E-2;-3.193952609E-3
7.724848500E0;-4.258603323E-3;-2.022836544E-2;-3.193952609E-3
7.736750062E0;-1.064650808E-2;-2.768092230E-2;-1.064650831E-3
7.748662562E0;-8.517206647E-3;-2.555162087E-2;-6.387905218E-3
7.760573500E0;-9.581857361E-3;-2.235766686E-2;-2.129301662E-3
7.772484437E0;-1.064650808E-2;-1.809906401E-2;-4.258603323E-3
7.784396937E0;-5.323254038E-3;-8.517206647E-3;-4.258603323E-3
7.796307875E0;-2.129301662E-3;-5.323254038E-3;-4.258603323E-3
7.808220375E0;-4.258603323E-3;-9.581857361E-3;-5.323254038E-3
7.820131312E0;-4.258603323E-3;-1.064650808E-2;-3.193952609E-3
7.832045375E0;-6.387905218E-3;-5.323254038E-3;-3.193952609E-3
7.843954750E0;-8.517206647E-3;-6.387905218E-3;-5.323254038E-3
7.855867250E0;-7.452555932E-3;-4.258603323E-3;-4.258603323E-3
7.867781312E0;-1.064650831E-3;-2.129301662E-3;-4.258603323E-3
7.879696937E0;-5.323254038E-3;-5.323254038E-3;-6.387905218E-3
7.891603187E0;-3.193952609E-3;-8.517206647E-3;-7.452555932E-3
7.903512562E0;-4.258603323E-3;-6.387905218E-3;-7.452555932E-3
7.915425062E0;-3.193952609E-3;-4.258603323E-3;-6.387905218E-3
7.927336000E0;-1.064650831E-3;-1.064650808E-2;-5.323254038E-3
7.939254750E0;2.129301662E-3;-9.581857361E-3;-6.387905218E-3
7.951159437E0;1.064650831E-3;-8.517206647E-3;-5.323254038E-3
7.963070375E0;5.323254038E-3;-8.517206647E-3;-5.323254038E-3
7.974982875E0;2.129301662E-3;-6.387905218E-3;-6.387905218E-3
7.986893812E0;4.258603323E-3;-3.193952609E-3;-2.129301662E-3
7.998812562E0;5.323254038E-3;0.000000000E0;-1.064650831E-3
8.010723500E0;2.129301662E-3;1.064650831E-3;-4.258603323E-3
8.022628187E0;-3.193952609E-3;-5.323254038E-3;-4.258603323E-3
8.034540687E0;-4.258603323E-3;-9.581857361E-3;-4.258603323E-3
8.046451625E0;-6.387905218E-3;-1.490511186E-2;-4.258603323E-3
8.058364125E0;-7.452555932E-3;-1.596976258E-2;-2.129301662E-3
8.070282875E0;-7.452555932E-3;-1.384046115E-2;-8.517206647E-3
8.082186000E0;-7.452555932E-3;-1.703441329E-2;-5.323254038E-3
8.094098500E0;-6.387905218E-3;-1.916371472E-2;-5.323254038E-3
8.106009437E0;-7.452555932E-3;-2.874557301E-2;0.000000000E0
8.117928187E0;-4.258603323E-3;-2.874557301E-2;-2.129301662E-3
8.129840687E0;-8.517206647E-3;-2.661627159E-2;-9.581857361E-3
8.141743812E0;-4.258603323E-3;-3.406882659E-2;-1.277581044E-2
8.153656312E0;-5.323254038E-3;-4.365068302E-2;-2.342231758E-2
8.165567250E0;-1.277581044E-2;-7.239625603E-2;-3.726277873E-2
8.177486000E0;-1.384046115E-2;-4.790928960E-2;-4.152138159E-2
8.189390687E0;-7.452555932E-3;-2.874557301E-2;-4.258603230E-2
8.201307875E0;-3.193952609E-3;-1.809906401E-2;-3.193952516E-2
8.213214125E0;-4.258603323E-3;-8.517206647E-3;-2.342231758E-2
8.225125062E0;-3.193952609E-3;-1.277581044E-2;-1.596976258E-2
8.237037562E0;-2.129301662E-3;-6.387905218E-3;-1.171115879E-2
8.248957875E0;-6.387905218E-3;0.000000000E0;-6.387905218E-3
8.260859437E0;-5.323254038E-3;2.129301662E-3;-2.129301662E-3
8.272771937E0;-2.129301662E-3;4.258603323E-3;1.064650831E-3
8.284682875E0;-4.258603323E-3;1.384046115E-2;4.258603323E-3
8.296593812E0;-3.193952609E-3;2.022836544E-2;6.387905218E-3
8.308507875E0;-3.193952609E-3;2.342231758E-2;7.452555932E-3
8.320417250E0;-2.129301662E-3;2.129301615E-2;6.387905218E-3
8.332329750E0;-3.193952609E-3;1.916371472E-2;4.258603323E-3
8.344242250E0;-4.258603323E-3;9.581857361E-3;3.193952609E-3
8.356153187E0;-1.171115879E-2;2.129301662E-3;3.193952609E-3
8.368065687E0;-9.581857361E-3;3.193952609E-3;3.193952609E-3
8.379976625E0;-6.387905218E-3;6.387905218E-3;1.064650831E-3
8.391887562E0;-1.064650831E-3;1.596976258E-2;4.258603323E-3
8.403800062E0;-1.064650831E-3;1.596976258E-2;6.387905218E-3
8.415711000E0;2.129301662E-3;1.809906401E-2;6.387905218E-3
8.427623500E0;7.452555932E-3;2.129301615E-2;4.258603323E-3
8.439534437E0;6.387905218E-3;1.809906401E-2;4.258603323E-3
8.451445375E0;1.064650831E-3;1.916371472E-2;6.387905218E-3
8.463357875E0;-7.452555932E-3;3.193952609E-3;7.452555932E-3
8.475275062E0;-1.171115879E-2;-4.258603323E-3;0.000000000E0
8.487186000E0;-2.129301615E-2;-2.342231758E-2;-8.517206647E-3
8.499092250E0;-1.703441329E-2;-6.281439960E-2;-7.452555932E-3
8.511003187E0;-4.577998444E-2;2.129301662E-3;-1.596976258E-2
8.522915687E0;-2.448697016E-2;-6.174974889E-2;-3.406882659E-2
8.534826625E0;-1.703441329E-2;-3.087487444E-2;-4.790928960E-2
8.546737562E0;-2.555162087E-2;-4.471533373E-2;-6.813765317E-2
8.558650062E0;-2.555162087E-2;-4.790928960E-2;-9.581857920E-2
8.570562562E0;-2.768092230E-2;-4.684463516E-2;-1.352106631E-1
8.582473500E0;-1.384046115E-2;-2.981022373E-2;-1.948311031E-1
8.594384437E0;1.064650831E-3;-8.517206647E-3;-2.725506127E-1
8.606295375E0;2.235766686E-2;4.258603323E-3;-3.374943137E-1
8.618217250E0;3.300417587E-2;1.596976258E-2;-4.109552205E-1
8.630118812E0;3.939208016E-2;4.790928960E-2;-5.046445131E-1
8.642031312E0;5.536184460E-2;1.128529906E-1;-6.164328456E-1
8.653942250E0;5.216789246E-2;1.586329788E-1;-6.132388711E-1
8.665853187E0;9.901253134E-2;2.438050359E-1;-5.653296113E-1
8.677773500E0;1.522450745E-1;3.694338500E-1;-4.333128929E-1
8.689676625E0;1.266934574E-1;3.492054641E-1;-2.693566680E-1
8.701589125E0;8.091346174E-2;2.746799290E-1;-9.262461960E-2
8.713506312E0;3.939208016E-2;1.298874021E-1;4.045673087E-2
8.725411000E0;5.323254317E-2;-3.193952609E-3;9.049531817E-2
8.737323500E0;-1.384046115E-2;5.323254038E-3;2.555162087E-2
8.749234437E0;-5.749114603E-2;7.452555932E-3;6.068509817E-2
8.761146937E0;-4.790928960E-2;-8.197811246E-2;8.410741389E-2
8.773064125E0;-7.026695460E-2;-3.406882659E-2;8.943066746E-2
8.784978187E0;-6.068509817E-2;-3.726277873E-2;1.011418328E-1
8.796881312E0;-2.874557301E-2;-3.513347730E-2;1.181762442E-1
8.808792250E0;-2.555162087E-2;-1.809906401E-2;1.171115935E-1
8.820704750E0;-2.448697016E-2;-2.768092230E-2;1.192408949E-1
8.832617250E0;-1.171115879E-2;-2.768092230E-2;1.192408949E-1
8.844531312E0;-6.387905218E-3;-2.661627159E-2;1.032711342E-1
8.856439125E0;-1.809906401E-2;-4.152138159E-2;9.475392103E-2
8.868351625E0;-2.235766686E-2;-4.365068302E-2;9.155996889E-2
8.880262562E0;-2.235766686E-2;-3.939208016E-2;8.623671532E-2
8.892173500E0;-1.809906401E-2;-3.619812801E-2;8.623671532E-2
8.904086000E0;-1.490511186E-2;-3.300417587E-2;8.091346174E-2
8.915998500E0;-1.171115879E-2;-1.809906401E-2;7.452555746E-2
8.927909437E0;-9.581857361E-3;-2.342231758E-2;6.920230389E-2
8.939820375E0;-6.387905218E-3;-2.661627159E-2;6.387905031E-2
8.951732875E0;1.809906401E-2;1.490511186E-2;5.536184460E-2
8.963643812E0;1.064650808E-2;-1.064650808E-2;5.536184460E-2
8.975556312E0;9.581857361E-3;-2.448697016E-2;5.110324174E-2
8.987467250E0;1.064650808E-2;-9.581857361E-3;4.471533373E-2
8.999378187E0;7.452555932E-3;-2.555162087E-2;2.661627159E-2
9.011295375E0;5.323254038E-3;-3.193952516E-2;3.193952609E-3
9.023201625E0;1.064650831E-3;-2.235766686E-2;-1.277581044E-2
9.035114125E0;1.064650831E-3;-1.384046115E-2;-1.809906401E-2
9.047025062E0;1.277581044E-2;-8.517206647E-3;-2.022836544E-2
9.058936000E0;1.277581044E-2;-1.596976258E-2;-1.916371472E-2
9.070851625E0;1.064650808E-2;4.258603323E-3;-1.703441329E-2
9.082764125E0;7.452555932E-3;-4.258603323E-3;-1.490511186E-2
9.094671937E0;5.323254038E-3;-1.277581044E-2;-1.277581044E-2
9.106586000E0;7.452555932E-3;0.000000000E0;-9.581857361E-3
9.118493812E0;4.258603323E-3;-6.387905218E-3;-6.387905218E-3
9.130406312E0;4.258603323E-3;-1.064650831E-3;-5.323254038E-3
9.142340687E0;0.000000000E0;-2.129301662E-3;-2.129301662E-3
9.154237562E0;0.000000000E0;2.129301662E-3;-2.129301662E-3
9.166140687E0;0.000000000E0;4.258603323E-3;-2.129301662E-3
9.178053187E0;1.064650831E-3;4.258603323E-3;-2.129301662E-3
9.189967250E0;1.064650831E-3;4.258603323E-3;1.064650831E-3
9.201875062E0;4.258603323E-3;1.171115879E-2;-1.064650831E-3
9.213787562E0;6.387905218E-3;8.517206647E-3;0.000000000E0
9.225698500E0;2.129301662E-3;6.387905218E-3;1.064650831E-3
9.237609437E0;4.258603323E-3;6.387905218E-3;1.064650831E-3
9.249521937E0;4.258603323E-3;7.452555932E-3;-1.064650831E-3
9.261446937E0;3.193952609E-3;1.064650831E-3;-3.193952609E-3
9.273343812E0;1.064650831E-3;-4.258603323E-3;-2.129301662E-3
9.285256312E0;1.064650831E-3;-6.387905218E-3;-2.129301662E-3
9.297167250E0;-1.064650831E-3;-3.193952609E-3;-1.064650831E-3
9.309079750E0;0.000000000E0;-4.258603323E-3;0.000000000E0
9.320992250E0;1.064650831E-3;-1.064650831E-3;-2.129301662E-3
9.332903187E0;1.064650831E-3;-2.129301662E-3;-1.064650831E-3
9.344814125E0;2.129301662E-3;-1.064650831E-3;-2.129301662E-3
9.356726625E0;3.193952609E-3;0.000000000E0;-3.193952609E-3
9.368642250E0;3.193952609E-3;1.064650831E-3;-2.129301662E-3
9.380550062E0;5.323254038E-3;4.258603323E-3;0.000000000E0
9.392461000E0;6.387905218E-3;5.323254038E-3;-1.064650831E-3
9.404373500E0;4.258603323E-3;9.581857361E-3;0.000000000E0
9.416284437E0;5.323254038E-3;7.452555932E-3;-2.129301662E-3
9.428195375E0;7.452555932E-3;1.064650808E-2;-1.064650831E-3
9.440115687E0;6.387905218E-3;1.171115879E-2;0.000000000E0
9.452037562E0;7.452555932E-3;1.064650808E-2;0.000000000E0
9.463931312E0;7.452555932E-3;1.384046115E-2;-1.064650831E-3
9.475842250E0;3.193952609E-3;7.452555932E-3;1.064650831E-3
9.487756312E0;-2.129301662E-3;2.129301662E-3;0.000000000E0
9.499665687E0;2.129301662E-3;1.064650831E-3;1.064650831E-3
9.511576625E0;0.000000000E0;-1.064650831E-3;0.000000000E0
9.523489125E0;0.000000000E0;-3.193952609E-3;0.000000000E0
9.535400062E0;-1.064650831E-3;-4.258603323E-3;-1.064650831E-3
9.547312562E0;-2.129301662E-3;-4.258603323E-3;1.064650831E-3
9.559223500E0;-3.193952609E-3;-5.323254038E-3;0.000000000E0
9.571140687E0;-4.258603323E-3;-5.323254038E-3;-2.129301662E-3
9.583050062E0;1.064650831E-3;-6.387905218E-3;-1.064650831E-3
9.594957875E0;-2.129301662E-3;-7.452555932E-3;-1.064650831E-3
9.606868812E0;-1.064650831E-3;-5.323254038E-3;0.000000000E0
9.618781312E0;-1.064650831E-3;-3.193952609E-3;-1.064650831E-3
9.630692250E0;-1.064650831E-3;-2.129301662E-3;-1.064650831E-3
9.642604750E0;0.000000000E0;0.000000000E0;0.000000000E0
9.654515687E0;0.000000000E0;2.129301662E-3;0.000000000E0
9.666432875E0;0.000000000E0;1.277581044E-2;2.129301662E-3
9.678339125E0;5.323254038E-3;8.517206647E-3;4.258603323E-3
9.690250062E0;2.129301662E-3;8.517206647E-3;3.193952609E-3
9.702162562E0;3.193952609E-3;8.517206647E-3;4.258603323E-3
9.714073500E0;4.258603323E-3;6.387905218E-3;1.064650831E-3
9.725984437E0;7.452555932E-3;0.000000000E0;0.000000000E0
9.737896937E0;4.258603323E-3;0.000000000E0;-2.129301662E-3
9.749809437E0;1.064650831E-3;2.129301662E-3;0.000000000E0
9.761720375E0;5.323254038E-3;3.193952609E-3;0.000000000E0
9.773631312E0;3.193952609E-3;2.129301662E-3;1.064650831E-3
9.785545375E0;1.064650831E-3;2.129301662E-3;-1.064650831E-3
9.797454750E0;0.000000000E0;-3.193952609E-3;-2.129301662E-3
9.809365687E0;2.129301662E-3;-8.517206647E-3;-2.129301662E-3
9.821278187E0;0.000000000E0;-8.517206647E-3;-2.129301662E-3
9.833189125E0;1.064650831E-3;-5.323254038E-3;-3.193952609E-3
9.845106312E0;2.129301662E-3;0.000000000E0;-2.129301662E-3
9.857012562E0;0.000000000E0;-2.129301662E-3;-1.064650831E-3
9.868925062E0;2.129301662E-3;1.064650831E-3;-1.064650831E-3
9.880836000E0;0.000000000E0;0.000000000E0;-1.064650831E-3
9.892746937E0;2.129301662E-3;0.000000000E0;0.000000000E0
9.904659437E0;4.258603323E-3;2.129301662E-3;2.129301662E-3
9.916576625E0;3.193952609E-3;8.517206647E-3;1.064650831E-3
9.928482875E0;1.064650831E-3;1.277581044E-2;2.129301662E-3
9.940393812E0;4.258603323E-3;8.517206647E-3;0.000000000E0
9.952306312E0;2.129301662E-3;4.258603323E-3;0.000000000E0
9.964218812E0;2.129301662E-3;6.387905218E-3;-1.064650831E-3
9.976129750E0;1.064650831E-3;2.129301662E-3;-1.064650831E-3
9.988040687E0;1.064650831E-3;-1.064650831E-3;0.000000000E0
9.999951625E0;0.000000000E0;-5.323254038E-3;0.000000000E0
1.001186412E1;2.129301662E-3;-3.193952609E-3;-2.129301662E-3
1.002378131E1;2.129301662E-3;-4.258603323E-3;-1.064650831E-3
1.003569225E1;3.193952609E-3;-3.193952609E-3;-1.064650831E-3
1.004759850E1;0.000000000E0;-6.387905218E-3;-3.193952609E-3
1.005950944E1;-2.129301662E-3;-4.258603323E-3;-3.193952609E-3
1.007142194E1;-2.129301662E-3;-8.517206647E-3;-3.193952609E-3
1.008333288E1;0.000000000E0;-3.193952609E-3;-3.193952609E-3
1.009524381E1;-2.129301662E-3;-2.129301662E-3;-2.129301662E-3
1.010715631E1;-2.129301662E-3;-1.064650831E-3;0.000000000E0
1.011906725E1;0.000000000E0;2.129301662E-3;2.129301662E-3
1.013097975E1;1.064650831E-3;0.000000000E0;-2.129301662E-3
1.014289069E1;1.064650831E-3;0.000000000E0;0.000000000E0
1.015480631E1;-2.129301662E-3;-2.129301662E-3;-3.193952609E-3
1.016671412E1;-1.064650831E-3;0.000000000E0;-1.064650831E-3
1.017862506E1;0.000000000E0;0.000000000E0;-1.064650831E-3
1.019053756E1;-2.129301662E-3;-5.323254038E-3;-4.258603323E-3
1.020244850E1;1.064650831E-3;0.000000000E0;-3.193952609E-3
1.021435944E1;0.000000000E0;0.000000000E0;-1.064650831E-3
1.022627194E1;-2.129301662E-3;-4.258603323E-3;-2.129301662E-3
1.023818288E1;-3.193952609E-3;-3.193952609E-3;-1.064650831E-3
1.025009381E1;-1.064650831E-3;-3.193952609E-3;0.000000000E0
1.026201256E1;-2.129301662E-3;-4.258603323E-3;-1.064650831E-3
1.027392350E1;-1.064650831E-3;-2.129301662E-3;-1.064650831E-3
1.028582975E1;-2.129301662E-3;-4.258603323E-3;0.000000000E0
1.029774069E1;-2.129301662E-3;-3.193952609E-3;-3.193952609E-3
1.030965319E1;-1.064650831E-3;-6.387905218E-3;0.000000000E0
1.032156412E1;-2.129301662E-3;-3.193952609E-3;0.000000000E0
1.033347663E1;-4.258603323E-3;-4.258603323E-3;0.000000000E0
1.034538756E1;-2.129301662E-3;0.000000000E0;0.000000000E0
1.035730475E1;-4.258603323E-3;-1.064650831E-3;-2.129301662E-3
1.036921100E1;-2.129301662E-3;-1.064650831E-3;-1.064650831E-3
1.038112350E1;-2.129301662E-3;2.129301662E-3;0.000000000E0
1.039304225E1;-2.129301662E-3;4.258603323E-3;0.000000000E0
1.040495319E1;1.064650831E-3;4.258603323E-3;0.000000000E0
1.041685788E1;2.129301662E-3;4.258603323E-3;1.064650831E-3
1.042876881E1;1.064650831E-3;1.064650831E-3;-1.064650831E-3
1.044068131E1;0.000000000E0;-1.064650831E-3;-1.064650831E-3
1.045259225E1;-1.064650831E-3;-4.258603323E-3;0.000000000E0
1.046450319E1;-1.064650831E-3;-3.193952609E-3;0.000000000E0
1.047641569E1;-1.064650831E-3;0.000000000E0;3.193952609E-3
1.048832663E1;0.000000000E0;-1.064650831E-3;2.129301662E-3
1.050024069E1;-2.129301662E-3;-2.129301662E-3;0.000000000E0
1.051215006E1;-2.129301662E-3;-4.258603323E-3;-1.064650831E-3
1.052406256E1;-1.064650831E-3;-2.129301662E-3;-2.129301662E-3
1.053597350E1;-1.064650831E-3;-5.323254038E-3;-3.193952609E-3
1.054788444E1;-1.064650831E-3;4.258603323E-3;0.000000000E0
1.055979850E1;-4.258603323E-3;-7.452555932E-3;-3.193952609E-3
1.057171100E1;-2.129301662E-3;0.000000000E0;-1.064650831E-3
1.058361881E1;-2.129301662E-3;-1.064650831E-3;-1.064650831E-3
1.059553131E1;0.000000000E0;3.193952609E-3;0.000000000E0
1.060744225E1;-2.129301662E-3;1.064650831E-3;0.000000000E0
1.061935475E1;0.000000000E0;1.064650831E-3;-1.064650831E-3
1.063126569E1;-2.129301662E-3;1.064650831E-3;-1.064650831E-3
1.064317662E1;-2.129301662E-3;0.000000000E0;0.000000000E0
1.065510631E1;-1.064650831E-3;-1.064650831E-3;0.000000000E0
1.066700006E1;-1.064650831E-3;0.000000000E0;-1.064650831E-3
1.067891256E1;-1.064650831E-3;-1.064650831E-3;-1.064650831E-3
1.069082350E1;-2.129301662E-3;0.000000000E0;-2.129301662E-3
1.070273444E1;-1.064650831E-3;-1.064650831E-3;1.064650831E-3
1.071464694E1;-2.129301662E-3;-4.258603323E-3;0.000000000E0
1.072655788E1;-1.064650831E-3;2.129301662E-3;1.064650831E-3
1.073847038E1;-2.129301662E-3;-3.193952609E-3;0.000000000E0
1.075038131E1;-2.129301662E-3;-3.193952609E-3;-1.064650831E-3
1.076229225E1;-3.193952609E-3;-3.193952609E-3;1.064650831E-3
1.077422038E1;-2.129301662E-3;1.064650831E-3;0.000000000E0
1.078611569E1;-5.323254038E-3;-2.129301662E-3;-1.064650831E-3
1.079802819E1;-3.193952609E-3;-2.129301662E-3;-3.193952609E-3
1.080993913E1;-2.129301662E-3;0.000000000E0;-1.064650831E-3
1.082185162E1;-3.193952609E-3;1.064650831E-3;0.000000000E0
1.083376256E1;-3.193952609E-3;-1.064650831E-3;0.000000000E0
1.084567506E1;-2.129301662E-3;0.000000000E0;1.064650831E-3
1.085759381E1;-1.064650831E-3;-2.129301662E-3;-1.064650831E-3
1.086950162E1;0.000000000E0;-1.064650831E-3;-1.064650831E-3
1.088140944E1;-2.129301662E-3;-3.193952609E-3;0.000000000E0
1.089332038E1;-1.064650831E-3;-1.064650831E-3;0.000000000E0
1.090523288E1;-2.129301662E-3;-3.193952609E-3;-1.064650831E-3
1.091714381E1;-3.193952609E-3;0.000000000E0;0.000000000E0
1.092905475E1;-2.129301662E-3;-2.129301662E-3;-1.064650831E-3
1.094096725E1;-2.129301662E-3;-2.129301662E-3;1.064650831E-3
1.095287819E1;1.064650831E-3;3.193952609E-3;0.000000000E0
1.096479069E1;1.064650831E-3;5.323254038E-3;0.000000000E0
1.097672350E1;-1.064650831E-3;1.064650831E-3;-1.064650831E-3
1.098861256E1;2.129301662E-3;3.193952609E-3;1.064650831E-3
1.100052506E1;-1.064650831E-3;0.000000000E0;-2.129301662E-3
1.101244069E1;2.129301662E-3;-2.129301662E-3;0.000000000E0
1.102434850E1;-1.064650831E-3;1.064650831E-3;0.000000000E0
1.103627194E1;-3.193952609E-3;2.129301662E-3;1.064650831E-3
1.104817194E1;0.000000000E0;2.129301662E-3;0.000000000E0
1.106009069E1;2.129301662E-3;4.258603323E-3;1.064650831E-3
1.107199381E1;3.193952609E-3;5.323254038E-3;1.064650831E-3
1.108390631E1;6.387905218E-3;7.452555932E-3;1.064650831E-3
1.109581725E1;6.387905218E-3;1.064650831E-3;1.064650831E-3
1.110772975E1;4.258603323E-3;3.193952609E-3;1.064650831E-3
1.111965163E1;2.129301662E-3;0.000000000E0;0.000000000E0
1.113155162E1;0.000000000E0;1.064650831E-3;0.000000000E0
1.114346413E1;0.000000000E0;1.064650831E-3;1.064650831E-3
1.115538288E1;-1.064650831E-3;1.064650831E-3;0.000000000E0
1.116728600E1;5.323254038E-3;2.129301662E-3;-1.064650831E-3
1.117919850E1;3.193952609E-3;4.258603323E-3;0.000000000E0
1.119110944E1;5.323254038E-3;4.258603323E-3;0.000000000E0
1.120302194E1;6.387905218E-3;5.323254038E-3;0.000000000E0
1.121493288E1;3.193952609E-3;6.387905218E-3;1.064650831E-3
1.122685319E1;4.258603323E-3;1.064650831E-3;-1.064650831E-3
1.123875631E1;3.193952609E-3;2.129301662E-3;0.000000000E0
1.125066725E1;3.193952609E-3;2.129301662E-3;0.000000000E0
1.126257975E1;0.000000000E0;1.064650831E-3;0.000000000E0
1.127449069E1;0.000000000E0;1.064650831E-3;-1.064650831E-3
1.128640319E1;-1.064650831E-3;0.000000000E0;0.000000000E0
1.129831413E1;3.193952609E-3;1.064650831E-3;-1.064650831E-3
1.131022506E1;2.129301662E-3;2.129301662E-3;1.064650831E-3
1.132213756E1;4.258603323E-3;1.064650831E-3;-1.064650831E-3
1.133405006E1;2.129301662E-3;0.000000000E0;-1.064650831E-3
1.134596100E1;2.129301662E-3;3.193952609E-3;0.000000000E0
1.135787819E1;0.000000000E0;3.193952609E-3;1.064650831E-3
1.136978444E1;3.193952609E-3;4.258603323E-3;-1.064650831E-3
1.138169538E1;3.193952609E-3;3.193952609E-3;0.000000000E0
1.139360631E1;3.193952609E-3;5.323254038E-3;0.000000000E0
1.140551881E1;4.258603323E-3;-1.064650831E-3;-2.129301662E-3
1.141743131E1;3.193952609E-3;-1.064650831E-3;0.000000000E0
1.142934225E1;3.193952609E-3;2.129301662E-3;0.000000000E0
1.144125319E1;0.000000000E0;5.323254038E-3;2.129301662E-3
1.145317194E1;2.129301662E-3;6.387905218E-3;-1.064650831E-3
1.146507662E1;3.193952609E-3;7.452555932E-3;0.000000000E0
1.147698913E1;4.258603323E-3;0.000000000E0;-1.064650831E-3
1.148890006E1;3.193952609E-3;0.000000000E0;-1.064650831E-3
1.150081256E1;2.129301662E-3;0.000000000E0;-1.064650831E-3
1.151272350E1;0.000000000E0;3.193952609E-3;0.000000000E0
1.152463444E1;1.064650831E-3;2.129301662E-3;-1.064650831E-3
1.153654850E1;0.000000000E0;0.000000000E0;0.000000000E0
1.154845788E1;-1.064650831E-3;-2.129301662E-3;1.064650831E-3
1.156037038E1;2.129301662E-3;1.064650831E-3;-1.064650831E-3
1.157228131E1;1.064650831E-3;3.193952609E-3;-1.064650831E-3
1.158419225E1;3.193952609E-3;1.064650831E-3;1.064650831E-3
1.159610475E1;1.064650831E-3;-1.064650831E-3;-2.129301662E-3
1.160801569E1;1.064650831E-3;-2.129301662E-3;-1.064650831E-3
1.161992663E1;-1.064650831E-3;0.000000000E0;0.000000000E0
1.163183912E1;-1.064650831E-3;-5.323254038E-3;-1.064650831E-3
1.164375006E1;-1.064650831E-3;-1.064650831E-3;-1.064650831E-3
1.165566256E1;0.000000000E0;-1.064650831E-3;-1.064650831E-3
1.166757350E1;0.000000000E0;2.129301662E-3;0.000000000E0
1.167948444E1;3.193952609E-3;1.064650831E-3;0.000000000E0
1.169139694E1;2.129301662E-3;2.129301662E-3;-2.129301662E-3
1.170331412E1;4.258603323E-3;-1.064650831E-3;0.000000000E0
1.171522038E1;1.064650831E-3;4.258603323E-3;1.064650831E-3
1.172713131E1;2.129301662E-3;2.129301662E-3;0.000000000E0
1.173905006E1;-1.064650831E-3;1.064650831E-3;1.064650831E-3
1.175095944E1;-1.064650831E-3;0.000000000E0;-1.064650831E-3
1.176286569E1;0.000000000E0;-3.193952609E-3;-1.064650831E-3
1.177477819E1;1.064650831E-3;1.064650831E-3;1.064650831E-3
1.178668912E1;1.064650831E-3;3.193952609E-3;2.129301662E-3
1.179860006E1;0.000000000E0;7.452555932E-3;1.064650831E-3
1.181051256E1;2.129301662E-3;3.193952609E-3;-2.129301662E-3
1.182243288E1;0.000000000E0;5.323254038E-3;0.000000000E0
1.183433600E1;3.193952609E-3;3.193952609E-3;0.000000000E0
1.184624694E1;1.064650831E-3;-1.064650831E-3;0.000000000E0
1.185815944E1;-1.064650831E-3;2.129301662E-3;1.064650831E-3
1.187007038E1;0.000000000E0;4.258603323E-3;1.064650831E-3
1.188198288E1;2.129301662E-3;2.129301662E-3;0.000000000E0
1.189389381E1;1.064650831E-3;2.129301662E-3;1.064650831E-3
1.190580631E1;1.064650831E-3;0.000000000E0;2.129301662E-3
1.191771725E1;1.064650831E-3;1.064650831E-3;1.064650831E-3
1.192962975E1;-1.064650831E-3;1.064650831E-3;1.064650831E-3
1.194154069E1;2.129301662E-3;-3.193952609E-3;0.000000000E0
1.195345319E1;0.000000000E0;-1.064650831E-3;1.064650831E-3
1.196536412E1;0.000000000E0;-1.064650831E-3;1.064650831E-3
1.197727506E1;0.000000000E0;-1.064650831E-3;-1.064650831E-3
1.198918913E1;0.000000000E0;1.064650831E-3;0.000000000E0
1.200109850E1;2.129301662E-3;3.193952609E-3;-1.064650831E-3
1.201301569E1;2.129301662E-3;2.129301662E-3;-1.064650831E-3
1.202492194E1;2.129301662E-3;2.129301662E-3;1.064650831E-3
1.203683288E1;1.064650831E-3;-2.129301662E-3;-1.064650831E-3
1.204875006E1;0.000000000E0;0.000000000E0;0.000000000E0
1.206065631E1;0.000000000E0;-1.064650831E-3;1.064650831E-3
1.207256725E1;-3.193952609E-3;-4.258603323E-3;-2.129301662E-3
1.208447975E1;-1.064650831E-3;-3.193952609E-3;-1.064650831E-3
1.209639069E1;-2.129301662E-3;-2.129301662E-3;0.000000000E0
1.210831100E1;-2.129301662E-3;1.064650831E-3;-1.064650831E-3
1.212021412E1;-3.193952609E-3;-4.258603323E-3;1.064650831E-3
1.213212506E1;0.000000000E0;6.387905218E-3;1.064650831E-3
1.214403756E1;-2.129301662E-3;6.387905218E-3;0.000000000E0
1.215594850E1;-4.258603323E-3;6.387905218E-3;0.000000000E0
1.216785944E1;-4.258603323E-3;1.064650831E-3;2.129301662E-3
1.217977194E1;-5.323254038E-3;6.387905218E-3;3.193952609E-3
1.219168288E1;-6.387905218E-3;3.193952609E-3;2.129301662E-3
1.220359538E1;-5.323254038E-3;4.258603323E-3;2.129301662E-3
1.221550631E1;-4.258603323E-3;8.517206647E-3;0.000000000E0
1.222742350E1;-1.064650831E-3;5.323254038E-3;2.129301662E-3
1.223932975E1;-5.323254038E-3;-1.064650831E-3;0.000000000E0
1.225124069E1;-3.193952609E-3;-5.323254038E-3;0.000000000E0
1.226315319E1;-3.193952609E-3;2.129301662E-3;0.000000000E0
1.227506412E1;-4.258603323E-3;-1.064650831E-3;-1.064650831E-3
1.228697506E1;-1.064650831E-3;7.452555932E-3;0.000000000E0
1.229888756E1;-2.129301662E-3;-2.129301662E-3;0.000000000E0
1.231080006E1;0.000000000E0;5.323254038E-3;-2.129301662E-3
1.232271100E1;2.129301662E-3;7.452555932E-3;0.000000000E0
1.233462194E1;1.064650831E-3;9.581857361E-3;0.000000000E0
1.234654225E1;1.064650831E-3;8.517206647E-3;0.000000000E0
1.235845162E1;-2.129301662E-3;3.193952609E-3;0.000000000E0
1.237035788E1;-1.064650831E-3;-4.258603323E-3;0.000000000E0
1.238226881E1;1.064650831E-3;-2.129301662E-3;-1.064650831E-3
1.239417975E1;1.064650831E-3;7.452555932E-3;0.000000000E0
1.240609225E1;5.323254038E-3;1.277581044E-2;2.129301662E-3
1.241800319E1;6.387905218E-3;1.490511186E-2;3.193952609E-3
1.242991569E1;8.517206647E-3;1.171115879E-2;3.193952609E-3
1.244182663E1;5.323254038E-3;4.258603323E-3;2.129301662E-3
1.245373912E1;3.193952609E-3;5.323254038E-3;0.000000000E0
1.246565631E1;3.193952609E-3;4.258603323E-3;1.064650831E-3
1.247756412E1;1.064650831E-3;7.452555932E-3;3.193952609E-3
1.248948131E1;-1.064650831E-3;6.387905218E-3;3.193952609E-3
1.250138444E1;1.064650831E-3;1.064650831E-3;3.193952609E-3
1.251329694E1;2.129301662E-3;3.193952609E-3;1.064650831E-3
1.252520788E1;2.129301662E-3;3.193952609E-3;0.000000000E0
1.253712350E1;1.064650831E-3;-1.064650831E-3;0.000000000E0
1.254903131E1;-1.064650831E-3;-9.581857361E-3;-2.129301662E-3
1.256094225E1;2.129301662E-3;-3.193952609E-3;-1.064650831E-3
1.257285475E1;2.129301662E-3;-4.258603323E-3;0.000000000E0
1.258476569E1;-1.064650831E-3;-8.517206647E-3;-3.193952609E-3
1.259667819E1;2.129301662E-3;-6.387905218E-3;-4.258603323E-3
1.260858912E1;-2.129301662E-3;-1.596976258E-2;-5.323254038E-3
1.262050006E1;-3.193952609E-3;-1.596976258E-2;-6.387905218E-3
1.263241256E1;0.000000000E0;-9.581857361E-3;-8.517206647E-3
1.264432975E1;6.387905218E-3;-5.323254038E-3;-7.452555932E-3
1.265624225E1;4.258603323E-3;-3.193952609E-3;-1.171115879E-2
1.266814694E1;2.129301662E-3;-5.323254038E-3;-8.517206647E-3
1.268005788E1;0.000000000E0;0.000000000E0;-5.323254038E-3
1.269197038E1;0.000000000E0;-5.323254038E-3;-3.193952609E-3
1.270388131E1;-3.193952609E-3;1.064650831E-3;0.000000000E0
1.271579381E1;-5.323254038E-3;-3.193952609E-3;1.064650831E-3
1.272770475E1;-6.387905218E-3;-1.064650831E-3;1.064650831E-3
1.273961569E1;-1.064650831E-3;5.323254038E-3;0.000000000E0
1.275152819E1;0.000000000E0;6.387905218E-3;0.000000000E0
1.276344225E1;7.452555932E-3;1.490511186E-2;0.000000000E0
1.277535631E1;3.193952609E-3;9.581857361E-3;-1.064650831E-3
1.278726256E1;5.323254038E-3;2.129301662E-3;1.064650831E-3
1.279917350E1;1.064650831E-3;-7.452555932E-3;-3.193952609E-3
1.281108600E1;2.129301662E-3;-4.258603323E-3;-6.387905218E-3
1.282299694E1;2.129301662E-3;3.193952609E-3;-1.064650808E-2
1.283490944E1;5.323254038E-3;-7.452555932E-3;-1.277581044E-2
1.284682038E1;2.129301662E-3;-8.517206647E-3;-8.517206647E-3
1.285873131E1;0.000000000E0;4.258603323E-3;-7.452555932E-3
1.287065006E1;-2.129301662E-3;-5.323254038E-3;-3.193952609E-3
1.288255631E1;2.129301662E-3;1.064650808E-2;-2.129301662E-3
1.289446881E1;-6.387905218E-3;-7.452555932E-3;0.000000000E0
1.290637819E1;-1.064650831E-3;4.258603323E-3;0.000000000E0
1.291829069E1;0.000000000E0;9.581857361E-3;1.064650831E-3
1.293020162E1;0.000000000E0;1.384046115E-2;1.064650831E-3
1.294212038E1;4.258603323E-3;3.193952609E-3;0.000000000E0
1.295402506E1;2.129301662E-3;1.064650831E-3;-1.064650831E-3
1.296593756E1;4.258603323E-3;0.000000000E0;-2.129301662E-3
1.297784850E1;2.129301662E-3;5.323254038E-3;-3.193952609E-3
1.298975944E1;4.258603323E-3;-6.387905218E-3;-2.129301662E-3
1.300167194E1;3.193952609E-3;6.387905218E-3;-5.323254038E-3
1.301358288E1;2.129301662E-3;-2.129301662E-3;-3.193952609E-3
1.302549538E1;4.258603323E-3;6.387905218E-3;-7.452555932E-3
1.303740631E1;2.129301662E-3;-7.452555932E-3;-6.387905218E-3
1.304931725E1;1.064650831E-3;-3.193952609E-3;-7.452555932E-3
1.306123756E1;-2.129301662E-3;-7.452555932E-3;-4.258603323E-3
1.307314069E1;3.193952609E-3;3.193952609E-3;-2.129301662E-3
1.308505162E1;1.064650831E-3;3.193952609E-3;-3.193952609E-3
1.309696413E1;-1.064650831E-3;-4.258603323E-3;-3.193952609E-3
1.310887506E1;1.064650831E-3;4.258603323E-3;-6.387905218E-3
1.312079381E1;2.129301662E-3;-3.193952609E-3;-5.323254038E-3
1.313269850E1;1.064650831E-3;-2.129301662E-3;-8.517206647E-3
1.314460944E1;0.000000000E0;0.000000000E0;-8.517206647E-3
1.315652194E1;1.064650831E-3;2.129301662E-3;-7.452555932E-3
1.316843288E1;2.129301662E-3;5.323254038E-3;-8.517206647E-3
1.318034538E1;1.064650831E-3;6.387905218E-3;-4.258603323E-3
1.319225631E1;0.000000000E0;1.064650831E-3;-2.129301662E-3
1.320416725E1;-3.193952609E-3;6.387905218E-3;-1.064650831E-3
1.321608131E1;-6.387905218E-3;-5.323254038E-3;-2.129301662E-3
1.322799069E1;-6.387905218E-3;4.258603323E-3;1.064650831E-3
1.323990944E1;-1.064650808E-2;4.258603323E-3;0.000000000E0
1.325181413E1;-6.387905218E-3;6.387905218E-3;1.064650831E-3
1.326372506E1;-3.193952609E-3;1.703441329E-2;3.193952609E-3
1.327563756E1;-4.258603323E-3;1.384046115E-2;5.323254038E-3
1.328754850E1;-2.129301662E-3;9.581857361E-3;7.452555932E-3
1.329946100E1;-3.193952609E-3;8.517206647E-3;7.452555932E-3
1.331137350E1;-1.064650831E-3;4.258603323E-3;6.387905218E-3
1.332328444E1;-1.064650831E-3;4.258603323E-3;3.193952609E-3
1.333519538E1;-1.064650831E-3;1.064650831E-3;3.193952609E-3
1.334710788E1;-3.193952609E-3;-7.452555932E-3;0.000000000E0
1.335901881E1;-2.129301662E-3;-4.258603323E-3;-3.193952609E-3
1.337093600E1;-3.193952609E-3;-7.452555932E-3;-3.193952609E-3
1.338284225E1;-4.258603323E-3;-1.064650831E-3;2.129301662E-3
1.339475788E1;-3.193952609E-3;-6.387905218E-3;1.064650831E-3
1.340666569E1;-6.387905218E-3;-6.387905218E-3;0.000000000E0
1.341857819E1;-6.387905218E-3;-1.277581044E-2;-1.064650831E-3
1.343048913E1;-6.387905218E-3;-1.596976258E-2;-5.323254038E-3
1.344240006E1;-2.129301662E-3;-1.277581044E-2;-5.323254038E-3
1.345431100E1;-1.064650831E-3;-8.517206647E-3;-5.323254038E-3
1.346622350E1;3.193952609E-3;2.129301662E-3;-3.193952609E-3
1.347813600E1;7.452555932E-3;9.581857361E-3;0.000000000E0
1.349005319E1;9.581857361E-3;1.064650808E-2;3.193952609E-3
1.350195788E1;9.581857361E-3;1.277581044E-2;1.064650831E-3
1.351386881E1;5.323254038E-3;3.193952609E-3;1.064650831E-3
1.352578131E1;5.323254038E-3;0.000000000E0;0.000000000E0
1.353770006E1;0.000000000E0;-8.517206647E-3;0.000000000E0
1.354960475E1;-2.129301662E-3;-5.323254038E-3;-2.129301662E-3
1.356151569E1;0.000000000E0;-2.129301662E-3;-1.064650831E-3
1.357342819E1;2.129301662E-3;1.064650831E-3;-2.129301662E-3
1.358533912E1;7.452555932E-3;3.193952609E-3;-3.193952609E-3
1.359725006E1;5.323254038E-3;4.258603323E-3;-2.129301662E-3
1.360916256E1;3.193952609E-3;3.193952609E-3;-1.064650831E-3
1.362107662E1;1.064650831E-3;5.323254038E-3;0.000000000E0
1.363298444E1;0.000000000E0;6.387905218E-3;2.129301662E-3
1.364489694E1;-3.193952609E-3;3.193952609E-3;1.064650831E-3
1.365681100E1;-1.064650831E-3;0.000000000E0;-1.064650831E-3
1.366872038E1;2.129301662E-3;1.064650831E-3;-2.129301662E-3
1.368063131E1;2.129301662E-3;4.258603323E-3;0.000000000E0
1.369254381E1;1.064650831E-3;2.129301662E-3;-1.064650831E-3
1.370445475E1;-3.193952609E-3;-5.323254038E-3;-2.129301662E-3
1.371636725E1;-6.387905218E-3;-5.323254038E-3;-1.064650831E-3
1.372828131E1;-4.258603323E-3;-3.193952609E-3;-1.064650831E-3
1.374018912E1;-3.193952609E-3;-3.193952609E-3;-1.064650831E-3
1.375210006E1;0.000000000E0;-3.193952609E-3;-1.064650831E-3
1.376401256E1;2.129301662E-3;1.064650831E-3;-1.064650831E-3
1.377592975E1;1.064650831E-3;0.000000000E0;-1.064650831E-3
1.378783600E1;2.129301662E-3;2.129301662E-3;-1.064650831E-3
1.379974694E1;1.064650831E-3;3.193952609E-3;-2.129301662E-3
1.381165944E1;-3.193952609E-3;6.387905218E-3;-2.129301662E-3
1.382357038E1;-4.258603323E-3;-1.064650808E-2;-1.064650831E-3
1.383548288E1;0.000000000E0;2.129301662E-3;-4.258603323E-3
1.384739381E1;0.000000000E0;-5.323254038E-3;-5.323254038E-3
1.385931256E1;3.193952609E-3;-2.129301662E-3;-6.387905218E-3
1.387121725E1;0.000000000E0;-5.323254038E-3;-6.387905218E-3
1.388312819E1;-1.064650831E-3;-6.387905218E-3;-5.323254038E-3
1.389504069E1;2.129301662E-3;-4.258603323E-3;-5.323254038E-3
1.390695163E1;2.129301662E-3;2.129301662E-3;-4.258603323E-3
1.391886569E1;2.129301662E-3;3.193952609E-3;0.000000000E0
1.393077506E1;4.258603323E-3;0.000000000E0;-3.193952609E-3
1.394268756E1;1.064650831E-3;4.258603323E-3;-3.193952609E-3
1.395460475E1;4.258603323E-3;-1.064650831E-3;-5.323254038E-3
1.396651413E1;6.387905218E-3;6.387905218E-3;-6.387905218E-3
1.397842194E1;6.387905218E-3;7.452555932E-3;-3.193952609E-3
1.399033288E1;-2.129301662E-3;-9.581857361E-3;-4.258603323E-3
1.400224538E1;-4.258603323E-3;-4.258603323E-3;-8.517206647E-3
1.401415631E1;-6.387905218E-3;-1.171115879E-2;-1.064650808E-2
1.402607038E1;-6.387905218E-3;-6.387905218E-3;-9.581857361E-3
1.403797975E1;-3.193952609E-3;1.064650831E-3;-6.387905218E-3
1.404989069E1;3.193952609E-3;7.452555932E-3;-3.193952609E-3
1.406180319E1;5.323254038E-3;1.171115879E-2;-3.193952609E-3
1.407371412E1;1.064650808E-2;9.581857361E-3;-4.258603323E-3
1.408563756E1;1.277581044E-2;1.064650808E-2;-4.258603323E-3
1.409753756E1;8.517206647E-3;-3.193952609E-3;-4.258603323E-3
1.410944850E1;1.277581044E-2;1.384046115E-2;-4.258603323E-3
1.412135944E1;5.323254038E-3;2.129301662E-3;-3.193952609E-3
1.413327506E1;1.064650831E-3;-2.129301662E-3;-2.129301662E-3
1.414518288E1;-6.387905218E-3;-1.171115879E-2;-3.193952609E-3
1.415709538E1;-4.258603323E-3;5.323254038E-3;-1.064650831E-3
1.416900631E1;3.193952609E-3;1.703441329E-2;2.129301662E-3
1.418091881E1;2.129301662E-3;3.300417587E-2;6.387905218E-3
1.419282975E1;1.064650831E-3;3.832742944E-2;1.171115879E-2
1.420474069E1;3.193952609E-3;4.045673087E-2;2.022836544E-2
1.421665319E1;-3.193952609E-3;2.555162087E-2;2.129301615E-2
1.422856412E1;-1.064650831E-3;8.517206647E-3;1.490511186E-2
1.424047663E1;-5.323254038E-3;3.193952609E-3;1.064650808E-2
1.425239069E1;-4.258603323E-3;-2.129301662E-3;8.517206647E-3
1.426430163E1;-4.258603323E-3;-9.581857361E-3;1.064650831E-3
1.427623131E1;-6.387905218E-3;-2.981022373E-2;-5.323254038E-3
1.428812194E1;0.000000000E0;-2.448697016E-2;-6.387905218E-3
1.430003288E1;2.129301662E-3;-9.581857361E-3;-5.323254038E-3
1.431194538E1;7.452555932E-3;7.452555932E-3;-1.064650831E-3
1.432385788E1;1.277581044E-2;1.384046115E-2;4.258603323E-3
1.433576881E1;1.809906401E-2;1.809906401E-2;2.129301662E-3
1.434767975E1;1.596976258E-2;4.258603323E-3;1.064650831E-3
1.435959225E1;1.171115879E-2;-1.596976258E-2;-5.323254038E-3
1.437150319E1;1.171115879E-2;-1.064650808E-2;-1.384046115E-2
1.438341569E1;1.384046115E-2;-1.171115879E-2;-1.277581044E-2
1.439533756E1;1.064650808E-2;2.129301662E-3;-7.452555932E-3
1.440724069E1;4.258603323E-3;1.384046115E-2;3.193952609E-3
1.441915006E1;3.193952609E-3;1.703441329E-2;6.387905218E-3
1.443106256E1;3.193952609E-3;2.129301615E-2;4.258603323E-3
1.444297975E1;3.193952609E-3;1.277581044E-2;5.323254038E-3
1.445490163E1;1.064650831E-3;7.452555932E-3;2.129301662E-3
1.446679694E1;4.258603323E-3;5.323254038E-3;3.193952609E-3
1.447870788E1;7.452555932E-3;0.000000000E0;-1.064650831E-3
1.449062350E1;3.193952609E-3;-8.517206647E-3;0.000000000E0
1.450253756E1;2.129301662E-3;-1.064650831E-3;0.000000000E0
1.451444225E1;1.064650831E-3;1.064650831E-3;4.258603323E-3
1.452635475E1;2.129301662E-3;4.258603323E-3;4.258603323E-3
1.453826569E1;7.452555932E-3;3.193952609E-3;-1.064650831E-3
1.455017662E1;8.517206647E-3;1.064650831E-3;-1.064650831E-3
1.456209538E1;7.452555932E-3;1.064650831E-3;-2.129301662E-3
1.457400006E1;5.323254038E-3;3.193952609E-3;-2.129301662E-3
1.458591256E1;3.193952609E-3;4.258603323E-3;0.000000000E0
1.459782350E1;2.129301662E-3;9.581857361E-3;3.193952609E-3
1.460973444E1;-1.064650831E-3;1.277581044E-2;3.193952609E-3
1.462164694E1;0.000000000E0;1.384046115E-2;4.258603323E-3
1.463355788E1;2.129301662E-3;1.171115879E-2;2.129301662E-3
1.464547038E1;0.000000000E0;9.581857361E-3;4.258603323E-3
1.465738131E1;3.193952609E-3;8.517206647E-3;5.323254038E-3
1.466930006E1;4.258603323E-3;1.064650808E-2;4.258603323E-3
1.468120944E1;5.323254038E-3;7.452555932E-3;-1.064650831E-3
1.469311569E1;5.323254038E-3;0.000000000E0;0.000000000E0
1.470502819E1;-1.064650831E-3;-1.703441329E-2;-3.193952609E-3
1.471693913E1;-2.129301662E-3;-2.768092230E-2;-4.258603323E-3
1.472886100E1;-2.129301662E-3;-1.916371472E-2;-3.193952609E-3
1.474076256E1;0.000000000E0;-9.581857361E-3;-2.129301662E-3
1.475267350E1;-2.129301662E-3;1.064650831E-3;0.000000000E0
1.476458600E1;-6.387905218E-3;3.193952609E-3;2.129301662E-3
1.477649694E1;-2.129301662E-3;3.193952609E-3;1.064650831E-3
1.478840944E1;1.064650831E-3;7.452555932E-3;5.323254038E-3
1.480032662E1;2.129301662E-3;4.258603323E-3;3.193952609E-3
1.481224850E1;1.064650831E-3;-3.193952609E-3;-1.064650831E-3
1.482414381E1;-2.129301662E-3;-2.022836544E-2;-3.193952609E-3
1.483605631E1;-5.323254038E-3;-2.235766686E-2;-2.129301662E-3
1.484797350E1;-8.517206647E-3;-1.809906401E-2;-3.193952609E-3
1.485987819E1;-9.581857361E-3;-9.581857361E-3;-2.129301662E-3
1.487179694E1;-4.258603323E-3;1.064650831E-3;1.064650831E-3
1.488370162E1;-6.387905218E-3;6.387905218E-3;2.129301662E-3
1.489561413E1;-3.193952609E-3;7.452555932E-3;2.129301662E-3
1.490753131E1;-4.258603323E-3;7.452555932E-3;0.000000000E0
1.491943600E1;-3.193952609E-3;3.193952609E-3;3.193952609E-3
1.493134850E1;-6.387905218E-3;0.000000000E0;2.129301662E-3
1.494326256E1;-7.452555932E-3;-1.064650831E-3;2.129301662E-3
1.495517194E1;-7.452555932E-3;1.064650831E-3;1.064650831E-3
1.496708288E1;-7.452555932E-3;-3.193952609E-3;1.064650831E-3
1.497899381E1;-6.387905218E-3;0.000000000E0;0.000000000E0
1.499090631E1;-6.387905218E-3;7.452555932E-3;2.129301662E-3
1.500281725E1;-4.258603323E-3;6.387905218E-3;5.323254038E-3
1.501472975E1;-5.323254038E-3;5.323254038E-3;6.387905218E-3
1.502664694E1;-7.452555932E-3;7.452555932E-3;5.323254038E-3
1.503855162E1;-1.064650808E-2;3.193952609E-3;4.258603323E-3
1.505046413E1;-9.581857361E-3;6.387905218E-3;7.452555932E-3
1.506237506E1;-1.064650808E-2;0.000000000E0;8.517206647E-3
1.507428756E1;-1.064650808E-2;2.129301662E-3;6.387905218E-3
1.508619850E1;-7.452555932E-3;2.129301662E-3;5.323254038E-3
1.509811100E1;0.000000000E0;4.258603323E-3;2.129301662E-3
1.511002194E1;1.064650831E-3;1.064650831E-3;2.129301662E-3
1.512193288E1;2.129301662E-3;-4.258603323E-3;-2.129301662E-3
1.513384538E1;-1.064650831E-3;-8.517206647E-3;-3.193952609E-3
1.514576256E1;-1.064650831E-3;-1.064650808E-2;-3.193952609E-3
1.515767506E1;0.000000000E0;-3.193952609E-3;-1.064650831E-3
1.516957975E1;-1.064650831E-3;2.129301662E-3;1.064650831E-3
1.518149069E1;1.064650831E-3;2.129301662E-3;1.064650831E-3
1.519340319E1;0.000000000E0;-1.064650831E-3;-2.129301662E-3
1.520532194E1;0.000000000E0;-3.193952609E-3;-1.064650831E-3
1.521722662E1;-1.064650831E-3;-9.581857361E-3;-3.193952609E-3
1.522913756E1;-3.193952609E-3;-8.517206647E-3;-1.064650831E-3
1.524104850E1;-3.193952609E-3;-1.171115879E-2;-4.258603323E-3
1.525296100E1;-2.129301662E-3;-1.277581044E-2;-5.323254038E-3
1.526487194E1;-1.064650831E-3;-7.452555932E-3;-4.258603323E-3
1.527678288E1;-1.064650831E-3;-6.387905218E-3;-4.258603323E-3
1.528869538E1;-1.064650831E-3;-4.258603323E-3;-3.193952609E-3
1.530060631E1;-1.064650831E-3;-6.387905218E-3;0.000000000E0
1.531251881E1;-2.129301662E-3;-1.064650831E-3;-1.064650831E-3
1.532443756E1;-3.193952609E-3;0.000000000E0;0.000000000E0
1.533634225E1;-1.064650831E-3;3.193952609E-3;0.000000000E0
1.534826256E1;0.000000000E0;3.193952609E-3;1.064650831E-3
1.536016725E1;2.129301662E-3;4.258603323E-3;0.000000000E0
1.537207663E1;1.064650831E-3;4.258603323E-3;-1.064650831E-3
1.538400944E1;0.000000000E0;2.129301662E-3;-1.064650831E-3
1.539590944E1;1.064650831E-3;-3.193952609E-3;0.000000000E0
1.540781256E1;2.129301662E-3;-1.064650831E-3;-3.193952609E-3
1.541972350E1;-2.129301662E-3;-1.064650831E-3;-4.258603323E-3
1.543163444E1;0.000000000E0;1.064650831E-3;-2.129301662E-3
1.544355163E1;-3.193952609E-3;-3.193952609E-3;-1.064650831E-3
1.545546412E1;-2.129301662E-3;-8.517206647E-3;-3.193952609E-3
1.546737038E1;-3.193952609E-3;-8.517206647E-3;-3.193952609E-3
1.547928131E1;-2.129301662E-3;-6.387905218E-3;-6.387905218E-3
1.549119225E1;-5.323254038E-3;-5.323254038E-3;-3.193952609E-3
1.550310475E1;-2.129301662E-3;-1.064650831E-3;-2.129301662E-3
1.551501569E1;-2.129301662E-3;-2.129301662E-3;-2.129301662E-3
1.552692663E1;-1.064650831E-3;-1.064650831E-3;0.000000000E0
1.553883912E1;-2.129301662E-3;5.323254038E-3;0.000000000E0
1.555075006E1;-2.129301662E-3;5.323254038E-3;0.000000000E0
1.556266256E1;-4.258603323E-3;4.258603323E-3;2.129301662E-3
1.557457350E1;-4.258603323E-3;3.193952609E-3;1.064650831E-3
1.558648600E1;-4.258603323E-3;3.193952609E-3;2.129301662E-3
1.559839694E1;-2.129301662E-3;4.258603323E-3;-1.064650831E-3
1.561030788E1;-1.064650831E-3;7.452555932E-3;-1.064650831E-3
1.562222819E1;1.064650831E-3;4.258603323E-3;0.000000000E0
1.563413288E1;2.129301662E-3;2.129301662E-3;1.064650831E-3
1.564604225E1;1.064650831E-3;4.258603323E-3;-2.129301662E-3
1.565795475E1;1.064650831E-3;3.193952609E-3;2.129301662E-3
1.566986569E1;-2.129301662E-3;0.000000000E0;-1.064650831E-3
1.568177819E1;-1.064650831E-3;-2.129301662E-3;-1.064650831E-3
1.569368912E1;-1.064650831E-3;-3.193952609E-3;0.000000000E0
1.570560163E1;0.000000000E0;-3.193952609E-3;-1.064650831E-3
1.571751256E1;-2.129301662E-3;-5.323254038E-3;0.000000000E0
1.572943131E1;-1.064650831E-3;-4.258603323E-3;0.000000000E0
1.574133600E1;-2.129301662E-3;-4.258603323E-3;1.064650831E-3
1.575324694E1;-1.064650831E-3;-1.064650831E-3;0.000000000E0
1.576517975E1;1.064650831E-3;-2.129301662E-3;-1.064650831E-3
1.577707038E1;1.064650831E-3;0.000000000E0;-3.193952609E-3
1.578898131E1;3.193952609E-3;-1.064650831E-3;-3.193952609E-3
1.580090006E1;6.387905218E-3;3.193952609E-3;-5.323254038E-3
1.581280631E1;7.452555932E-3;1.064650808E-2;-3.193952609E-3
1.582472819E1;5.323254038E-3;2.129301662E-3;-2.129301662E-3
1.583662819E1;4.258603323E-3;6.387905218E-3;-1.064650831E-3
1.584854069E1;4.258603323E-3;5.323254038E-3;1.064650831E-3
1.586045163E1;5.323254038E-3;6.387905218E-3;0.000000000E0
1.587236256E1;7.452555932E-3;1.064650808E-2;1.064650831E-3
1.588427506E1;1.064650808E-2;1.277581044E-2;-1.064650831E-3
1.589618600E1;1.277581044E-2;1.916371472E-2;-1.064650831E-3
1.590809850E1;1.916371472E-2;2.661627159E-2;0.000000000E0
1.592000944E1;1.916371472E-2;2.768092230E-2;0.000000000E0
1.593192194E1;1.916371472E-2;3.087487444E-2;3.193952609E-3
1.594383288E1;1.809906401E-2;2.448697016E-2;3.193952609E-3
1.595574381E1;1.277581044E-2;1.703441329E-2;2.129301662E-3
1.596765631E1;8.517206647E-3;1.384046115E-2;2.129301662E-3
1.597956725E1;4.258603323E-3;6.387905218E-3;0.000000000E0
1.599148288E1;5.323254038E-3;6.387905218E-3;0.000000000E0
1.600339069E1;3.193952609E-3;1.064650831E-3;-1.064650831E-3
1.601530319E1;3.193952609E-3;-1.064650831E-3;-2.129301662E-3
1.602721412E1;5.323254038E-3;3.193952609E-3;0.000000000E0
1.603912506E1;5.323254038E-3;4.258603323E-3;2.129301662E-3
1.605103756E1;3.193952609E-3;5.323254038E-3;2.129301662E-3
1.606294850E1;5.323254038E-3;4.258603323E-3;3.193952609E-3
1.607485944E1;4.258603323E-3;1.064650831E-3;2.129301662E-3
1.608677194E1;3.193952609E-3;0.000000000E0;-1.064650831E-3
1.609868444E1;3.193952609E-3;0.000000000E0;0.000000000E0
1.611060475E1;2.129301662E-3;-1.064650831E-3;0.000000000E0
1.612250631E1;0.000000000E0;0.000000000E0;-1.064650831E-3
1.613441881E1;0.000000000E0;0.000000000E0;0.000000000E0
1.614632975E1;-1.064650831E-3;3.193952609E-3;-1.064650831E-3
1.615824069E1;3.193952609E-3;4.258603323E-3;2.129301662E-3
1.617015319E1;4.258603323E-3;1.064650831E-3;-1.064650831E-3
1.618206412E1;6.387905218E-3;0.000000000E0;1.064650831E-3
1.619397662E1;3.193952609E-3;-4.258603323E-3;-1.064650831E-3
1.620588756E1;3.193952609E-3;-2.129301662E-3;-1.064650831E-3
1.621780006E1;2.129301662E-3;-1.064650831E-3;1.064650831E-3
1.622971725E1;3.193952609E-3;7.452555932E-3;-1.064650831E-3
1.624162194E1;4.258603323E-3;8.517206647E-3;1.064650831E-3
1.625353288E1;3.193952609E-3;6.387905218E-3;2.129301662E-3
1.626544538E1;2.129301662E-3;3.193952609E-3;-1.064650831E-3
1.627735631E1;2.129301662E-3;6.387905218E-3;0.000000000E0
1.628926881E1;3.193952609E-3;1.064650831E-3;0.000000000E0
1.630117975E1;1.064650831E-3;-1.064650831E-3;-1.064650831E-3
1.631309225E1;0.000000000E0;-3.193952609E-3;1.064650831E-3
1.632500319E1;0.000000000E0;0.000000000E0;0.000000000E0
1.633691569E1;-1.064650831E-3;4.258603323E-3;1.064650831E-3
1.634882662E1;3.193952609E-3;5.323254038E-3;1.064650831E-3
1.636073913E1;0.000000000E0;4.258603323E-3;1.064650831E-3
1.637265006E1;-1.064650831E-3;-2.129301662E-3;-1.064650831E-3
1.638456256E1;0.000000000E0;-2.129301662E-3;0.000000000E0
1.639648288E1;0.000000000E0;0.000000000E0;1.064650831E-3
1.640839069E1;0.000000000E0;-1.064650831E-3;1.064650831E-3
1.642029694E1;4.258603323E-3;3.193952609E-3;0.000000000E0
1.643220788E1;3.193952609E-3;5.323254038E-3;1.064650831E-3
1.644412038E1;5.323254038E-3;5.323254038E-3;2.129301662E-3
1.645603288E1;7.452555932E-3;8.517206647E-3;1.064650831E-3
1.646794694E1;6.387905218E-3;4.258603323E-3;2.129301662E-3
1.647985475E1;4.258603323E-3;-1.064650831E-3;0.000000000E0
1.649176569E1;1.064650831E-3;-1.064650831E-3;0.000000000E0
1.650367819E1;1.064650831E-3;2.129301662E-3;0.000000000E0
1.651558912E1;1.064650831E-3;1.064650831E-3;0.000000000E0
1.652750006E1;3.193952609E-3;4.258603323E-3;1.064650831E-3
1.653941256E1;1.064650831E-3;1.064650831E-3;1.064650831E-3
1.655132350E1;4.258603323E-3;3.193952609E-3;0.000000000E0
1.656323600E1;0.000000000E0;4.258603323E-3;3.193952609E-3
1.657514694E1;-1.064650831E-3;3.193952609E-3;1.064650831E-3
1.658706725E1;-2.129301662E-3;3.193952609E-3;1.064650831E-3
1.659897038E1;1.064650831E-3;4.258603323E-3;2.129301662E-3
1.661088131E1;-2.129301662E-3;0.000000000E0;0.000000000E0
1.662279381E1;3.193952609E-3;3.193952609E-3;2.129301662E-3
1.663470475E1;1.064650831E-3;1.064650831E-3;0.000000000E0
1.664661569E1;3.193952609E-3;0.000000000E0;0.000000000E0
1.665852819E1;1.064650831E-3;-1.064650831E-3;-2.129301662E-3
1.667043912E1;4.258603323E-3;0.000000000E0;-1.064650831E-3
1.668235163E1;1.064650831E-3;2.129301662E-3;0.000000000E0
1.669426256E1;2.129301662E-3;4.258603323E-3;-1.064650831E-3
1.670617350E1;1.064650831E-3;4.258603323E-3;2.129301662E-3
1.671808600E1;0.000000000E0;3.193952609E-3;0.000000000E0
1.672999694E1;1.064650831E-3;5.323254038E-3;1.064650831E-3
1.674190944E1;2.129301662E-3;5.323254038E-3;1.064650831E-3
1.675382506E1;1.064650831E-3;3.193952609E-3;1.064650831E-3
1.676573131E1;2.129301662E-3;1.064650831E-3;0.000000000E0
1.677764381E1;2.129301662E-3;-2.129301662E-3;-1.064650831E-3
1.678956100E1;0.000000000E0;2.129301662E-3;0.000000000E0
1.680146725E1;3.193952609E-3;2.129301662E-3;-1.064650831E-3
1.681340631E1;3.193952609E-3;3.193952609E-3;0.000000000E0
1.682529069E1;1.064650831E-3;2.129301662E-3;-1.064650831E-3
1.683720163E1;2.129301662E-3;2.129301662E-3;-1.064650831E-3
1.684911256E1;1.064650831E-3;3.193952609E-3;0.000000000E0
1.686102506E1;3.193952609E-3;4.258603323E-3;-1.064650831E-3
1.687293600E1;4.258603323E-3;7.452555932E-3;1.064650831E-3
1.688485475E1;4.258603323E-3;9.581857361E-3;3.193952609E-3
1.689675944E1;7.452555932E-3;8.517206647E-3;3.193952609E-3
1.690867194E1;7.452555932E-3;7.452555932E-3;1.064650831E-3
1.692058288E1;5.323254038E-3;3.193952609E-3;0.000000000E0
1.693249694E1;5.323254038E-3;0.000000000E0;-1.064650831E-3
1.694440631E1;3.193952609E-3;1.064650831E-3;1.064650831E-3
1.695631725E1;-2.129301662E-3;2.129301662E-3;1.064650831E-3
1.696822975E1;-1.064650831E-3;2.129301662E-3;2.129301662E-3
1.698014069E1;-3.193952609E-3;2.129301662E-3;0.000000000E0
1.699205319E1;-2.129301662E-3;7.452555932E-3;1.064650831E-3
1.700396412E1;1.064650831E-3;3.193952609E-3;1.064650831E-3
1.701587506E1;0.000000000E0;4.258603323E-3;-1.064650831E-3
1.702778756E1;0.000000000E0;1.064650831E-3;3.193952609E-3
1.703969850E1;-2.129301662E-3;-2.129301662E-3;-1.064650831E-3
1.705161412E1;-3.193952609E-3;-4.258603323E-3;-2.129301662E-3
1.706352819E1;-5.323254038E-3;2.129301662E-3;-1.064650831E-3
1.707543288E1;-5.323254038E-3;2.129301662E-3;0.000000000E0
1.708734538E1;-2.129301662E-3;5.323254038E-3;1.064650831E-3
1.709925631E1;1.064650831E-3;5.323254038E-3;0.000000000E0
1.711117038E1;2.129301662E-3;7.452555932E-3;2.129301662E-3
1.712308756E1;4.258603323E-3;7.452555932E-3;0.000000000E0
1.713499069E1;4.258603323E-3;7.452555932E-3;0.000000000E0
1.714690319E1;5.323254038E-3;7.452555932E-3;4.258603323E-3
1.715881413E1;4.258603323E-3;6.387905218E-3;3.193952609E-3
1.717072662E1;2.129301662E-3;1.064650831E-3;2.129301662E-3
1.718264538E1;0.000000000E0;4.258603323E-3;2.129301662E-3
1.719454850E1;1.064650831E-3;2.129301662E-3;5.323254038E-3
1.720646100E1;1.064650831E-3;4.258603323E-3;3.193952609E-3
1.721837194E1;-1.064650831E-3;3.193952609E-3;4.258603323E-3
1.723028288E1;1.064650831E-3;5.323254038E-3;6.387905218E-3
1.724219538E1;1.064650831E-3;4.258603323E-3;6.387905218E-3
1.725410631E1;3.193952609E-3;2.129301662E-3;4.258603323E-3
1.726601881E1;1.064650831E-3;-1.064650831E-3;0.000000000E0
1.727792975E1;0.000000000E0;-1.064650831E-3;1.064650831E-3
1.728984225E1;1.064650831E-3;-1.064650831E-3;-1.064650831E-3
1.730175319E1;-2.129301662E-3;-3.193952609E-3;-2.129301662E-3
1.731366569E1;-1.064650831E-3;-1.064650831E-3;-1.064650831E-3
1.732557662E1;-1.064650831E-3;-1.064650831E-3;-1.064650831E-3
1.733748912E1;3.193952609E-3;-2.129301662E-3;1.064650831E-3
1.734940006E1;1.064650831E-3;2.129301662E-3;2.129301662E-3
1.736133600E1;3.193952609E-3;2.129301662E-3;1.064650831E-3
1.737322350E1;3.193952609E-3;4.258603323E-3;2.129301662E-3
1.738513444E1;4.258603323E-3;3.193952609E-3;0.000000000E0
1.739704694E1;2.129301662E-3;-1.064650831E-3;1.064650831E-3
1.740896100E1;1.064650831E-3;0.000000000E0;1.064650831E-3
1.742087038E1;4.258603323E-3;-4.258603323E-3;-1.064650831E-3
1.743278131E1;2.129301662E-3;-2.129301662E-3;-1.064650831E-3
1.744469225E1;2.129301662E-3;-1.064650831E-3;0.000000000E0
1.745660475E1;3.193952609E-3;0.000000000E0;0.000000000E0
1.746851725E1;3.193952609E-3;1.064650831E-3;-2.129301662E-3
1.748042819E1;1.064650831E-3;1.064650831E-3;-1.064650831E-3
1.749233912E1;1.064650831E-3;0.000000000E0;-2.129301662E-3
1.750425006E1;0.000000000E0;3.193952609E-3;2.129301662E-3
1.751616256E1;-1.064650831E-3;-1.064650831E-3;-2.129301662E-3
1.752807350E1;-3.193952609E-3;2.129301662E-3;-1.064650831E-3
1.753998600E1;3.193952609E-3;3.193952609E-3;0.000000000E0
1.755191881E1;3.193952609E-3;2.129301662E-3;1.064650831E-3
1.756380788E1;3.193952609E-3;6.387905218E-3;0.000000000E0
1.757572038E1;2.129301662E-3;4.258603323E-3;0.000000000E0
1.758763131E1;2.129301662E-3;5.323254038E-3;-1.064650831E-3
1.759954381E1;1.064650831E-3;5.323254038E-3;0.000000000E0
1.761145475E1;1.064650831E-3;0.000000000E0;0.000000000E0
1.762336569E1;1.064650831E-3;2.129301662E-3;-1.064650831E-3
1.763527819E1;2.129301662E-3;1.064650831E-3;-2.129301662E-3
1.764719225E1;3.193952609E-3;1.064650831E-3;-2.129301662E-3
1.765910788E1;4.258603323E-3;1.064650831E-3;0.000000000E0
1.767101256E1;4.258603323E-3;4.258603323E-3;0.000000000E0
1.768292350E1;4.258603323E-3;4.258603323E-3;0.000000000E0
1.769483600E1;1.064650831E-3;3.193952609E-3;3.193952609E-3
1.770674694E1;-1.064650831E-3;5.323254038E-3;0.000000000E0
1.771865944E1;-2.129301662E-3;3.193952609E-3;-1.064650831E-3
1.773057038E1;-2.129301662E-3;1.064650831E-3;0.000000000E0
1.774248288E1;-2.129301662E-3;-1.064650831E-3;-1.064650831E-3
1.775439381E1;2.129301662E-3;-1.064650831E-3;-1.064650831E-3
1.776630475E1;3.193952609E-3;1.064650831E-3;-2.129301662E-3
1.777821725E1;6.387905218E-3;2.129301662E-3;-1.064650831E-3
1.779012819E1;6.387905218E-3;4.258603323E-3;1.064650831E-3
1.780204069E1;2.129301662E-3;-1.064650831E-3;0.000000000E0
1.781395162E1;2.129301662E-3;0.000000000E0;0.000000000E0
1.782586413E1;4.258603323E-3;3.193952609E-3;1.064650831E-3
1.783777506E1;-1.064650831E-3;-2.129301662E-3;-1.064650831E-3
1.784968600E1;3.193952609E-3;4.258603323E-3;2.129301662E-3
1.786159850E1;2.129301662E-3;8.517206647E-3;0.000000000E0
1.787350944E1;2.129301662E-3;1.064650808E-2;2.129301662E-3
1.788542194E1;0.000000000E0;7.452555932E-3;1.064650831E-3
1.789733444E1;-6.387905218E-3;6.387905218E-3;0.000000000E0
1.790924538E1;-4.258603323E-3;2.129301662E-3;4.258603323E-3
1.792115631E1;-1.064650831E-3;3.193952609E-3;1.064650831E-3
1.793306881E1;0.000000000E0;1.064650831E-3;3.193952609E-3
1.794497975E1;4.258603323E-3;1.064650831E-3;1.064650831E-3
1.795689069E1;3.193952609E-3;1.064650831E-3;0.000000000E0
1.796880319E1;4.258603323E-3;0.000000000E0;0.000000000E0
1.798071413E1;5.323254038E-3;1.064650831E-3;0.000000000E0
1.799262506E1;2.129301662E-3;-1.064650831E-3;-2.129301662E-3
1.800454381E1;0.000000000E0;-2.129301662E-3;2.129301662E-3
1.801645631E1;-1.064650831E-3;-1.064650831E-3;2.129301662E-3
1.802836100E1;1.064650831E-3;1.064650831E-3;0.000000000E0
1.804027194E1;1.064650831E-3;1.064650831E-3;0.000000000E0
1.805218444E1;1.064650831E-3;0.000000000E0;1.064650831E-3
1.806409538E1;1.064650831E-3;-2.129301662E-3;-1.064650831E-3
1.807600631E1;1.064650831E-3;-2.129301662E-3;1.064650831E-3
1.808791881E1;1.064650831E-3;1.064650831E-3;1.064650831E-3
1.809982975E1;1.064650831E-3;3.193952609E-3;1.064650831E-3
1.811174225E1;2.129301662E-3;1.064650831E-3;2.129301662E-3
1.812365319E1;3.193952609E-3;1.064650831E-3;0.000000000E0
1.813556413E1;4.258603323E-3;0.000000000E0;2.129301662E-3
1.814747506E1;5.323254038E-3;-1.064650831E-3;0.000000000E0
1.815938756E1;4.258603323E-3;1.064650831E-3;-2.129301662E-3
1.817129850E1;5.323254038E-3;4.258603323E-3;0.000000000E0
1.818321256E1;4.258603323E-3;6.387905218E-3;-1.064650831E-3
1.819512194E1;3.193952609E-3;1.064650831E-3;1.064650831E-3
1.820704225E1;0.000000000E0;1.064650831E-3;1.064650831E-3
1.821894538E1;-3.193952609E-3;-4.258603323E-3;1.064650831E-3
1.823085788E1;-4.258603323E-3;-2.129301662E-3;0.000000000E0
1.824276881E1;-2.129301662E-3;1.064650831E-3;2.129301662E-3
1.825467975E1;-1.064650831E-3;-3.193952609E-3;1.064650831E-3
1.826659225E1;-4.258603323E-3;-8.517206647E-3;-1.064650831E-3
1.827850319E1;-1.064650831E-3;-2.129301662E-3;1.064650831E-3
1.829041412E1;0.000000000E0;0.000000000E0;2.129301662E-3
1.830233600E1;-3.193952609E-3;5.323254038E-3;1.064650831E-3
1.831423912E1;1.064650831E-3;3.193952609E-3;-1.064650831E-3
1.832615006E1;0.000000000E0;1.064650831E-3;0.000000000E0
1.833806100E1;-1.064650831E-3;-2.129301662E-3;-1.064650831E-3
1.834997350E1;2.129301662E-3;2.129301662E-3;1.064650831E-3
1.836188600E1;1.064650831E-3;6.387905218E-3;1.064650831E-3
1.837380319E1;2.129301662E-3;8.517206647E-3;2.129301662E-3
1.838570788E1;4.258603323E-3;6.387905218E-3;-1.064650831E-3
1.839762038E1;4.258603323E-3;5.323254038E-3;0.000000000E0
1.840953131E1;3.193952609E-3;1.064650831E-3;0.000000000E0
1.842144381E1;3.193952609E-3;2.129301662E-3;1.064650831E-3
1.843335475E1;-1.064650831E-3;0.000000000E0;-1.064650831E-3
1.844526569E1;0.000000000E0;-1.064650831E-3;-1.064650831E-3
1.845717819E1;-1.064650831E-3;-5.323254038E-3;1.064650831E-3
1.846908912E1;-3.193952609E-3;-3.193952609E-3;-1.064650831E-3
1.848100006E1;-1.064650831E-3;-2.129301662E-3;0.000000000E0
1.849291881E1;3.193952609E-3;0.000000000E0;1.064650831E-3
1.850483756E1;1.064650831E-3;4.258603323E-3;2.129301662E-3
1.851673600E1;0.000000000E0;3.193952609E-3;0.000000000E0
1.852864694E1;2.129301662E-3;4.258603323E-3;1.064650831E-3
1.854055944E1;-2.129301662E-3;4.258603323E-3;-1.064650831E-3
1.855247819E1;-1.064650831E-3;2.129301662E-3;2.129301662E-3
1.856438131E1;-1.064650831E-3;1.064650831E-3;2.129301662E-3
1.857629381E1;-1.064650831E-3;2.129301662E-3;-1.064650831E-3
1.858820475E1;-1.064650831E-3;0.000000000E0;-1.064650831E-3
1.860012194E1;1.064650831E-3;-1.064650831E-3;-1.064650831E-3
1.861203600E1;-1.064650831E-3;-1.064650831E-3;-2.129301662E-3
1.862393912E1;0.000000000E0;-1.064650831E-3;-1.064650831E-3
1.863585631E1;1.064650831E-3;-1.064650831E-3;0.000000000E0
1.864776256E1;0.000000000E0;3.193952609E-3;-2.129301662E-3
1.865967350E1;3.193952609E-3;4.258603323E-3;-3.193952609E-3
1.867158600E1;2.129301662E-3;4.258603323E-3;2.129301662E-3
1.868349694E1;0.000000000E0;1.064650831E-3;1.064650831E-3
1.869540944E1;-2.129301662E-3;0.000000000E0;0.000000000E0
1.870732038E1;-2.129301662E-3;3.193952609E-3;2.129301662E-3
1.871923444E1;-2.129301662E-3;-1.064650831E-3;2.129301662E-3
1.873114381E1;2.129301662E-3;2.129301662E-3;2.129301662E-3
1.874305475E1;1.064650831E-3;-1.064650831E-3;-1.064650831E-3
1.875496725E1;1.064650831E-3;0.000000000E0;-2.129301662E-3
1.876687819E1;3.193952609E-3;3.193952609E-3;0.000000000E0
1.877878912E1;0.000000000E0;5.323254038E-3;-2.129301662E-3
1.879070319E1;2.129301662E-3;0.000000000E0;2.129301662E-3
1.880261412E1;0.000000000E0;-2.129301662E-3;0.000000000E0
1.881452506E1;0.000000000E0;-4.258603323E-3;-3.193952609E-3
1.882643756E1;5.323254038E-3;-1.064650831E-3;0.000000000E0
1.883834850E1;8.517206647E-3;5.323254038E-3;0.000000000E0
1.885026413E1;1.064650808E-2;7.452555932E-3;-2.129301662E-3
1.886217194E1;1.277581044E-2;5.323254038E-3;-1.064650831E-3
1.887408288E1;5.323254038E-3;8.517206647E-3;-2.129301662E-3
1.888599694E1;1.064650831E-3;6.387905218E-3;1.064650831E-3
1.889790631E1;0.000000000E0;2.129301662E-3;0.000000000E0
1.890981881E1;-4.258603323E-3;-3.193952609E-3;3.193952609E-3
1.892172975E1;-4.258603323E-3;2.129301662E-3;2.129301662E-3
1.893364069E1;-2.129301662E-3;5.323254038E-3;2.129301662E-3
1.894555319E1;1.064650831E-3;8.517206647E-3;2.129301662E-3
1.895748756E1;3.193952609E-3;5.323254038E-3;0.000000000E0
1.896938600E1;1.064650831E-3;2.129301662E-3;0.000000000E0
1.898128756E1;3.193952609E-3;-1.064650831E-3;-2.129301662E-3
1.899319850E1;-1.064650831E-3;-1.064650831E-3;-1.064650831E-3
1.900511100E1;-4.258603323E-3;-5.323254038E-3;-3.193952609E-3
1.901702194E1;2.129301662E-3;3.193952609E-3;-1.064650831E-3
1.902893444E1;2.129301662E-3;2.129301662E-3;-1.064650831E-3
1.904084538E1;6.387905218E-3;6.387905218E-3;-1.064650831E-3
1.905275631E1;5.323254038E-3;6.387905218E-3;1.064650831E-3
1.906466881E1;3.193952609E-3;5.323254038E-3;-1.064650831E-3
1.907658131E1;6.387905218E-3;8.517206647E-3;-1.064650831E-3
1.908850006E1;3.193952609E-3;1.277581044E-2;1.064650831E-3
1.910040319E1;2.129301662E-3;9.581857361E-3;0.000000000E0
1.911231412E1;4.258603323E-3;1.064650808E-2;-1.064650831E-3
1.912422663E1;4.258603323E-3;8.517206647E-3;-2.129301662E-3
1.913613756E1;6.387905218E-3;1.064650808E-2;-2.129301662E-3
1.914805006E1;5.323254038E-3;1.277581044E-2;-2.129301662E-3
1.915996100E1;3.193952609E-3;7.452555932E-3;-2.129301662E-3
1.917187194E1;4.258603323E-3;6.387905218E-3;-1.064650831E-3
1.918378444E1;3.193952609E-3;2.129301662E-3;-1.064650831E-3
1.919570475E1;-1.064650831E-3;2.129301662E-3;-1.064650831E-3
1.920761256E1;2.129301662E-3;1.064650831E-3;-1.064650831E-3
1.921951881E1;1.064650831E-3;4.258603323E-3;-2.129301662E-3
1.923142975E1;4.258603323E-3;-3.193952609E-3;-2.129301662E-3
1.924334225E1;0.000000000E0;-2.129301662E-3;-1.064650831E-3
1.925526100E1;-1.064650831E-3;-5.323254038E-3;0.000000000E0
1.926716569E1;0.000000000E0;0.000000000E0;0.000000000E0
1.927908913E1;1.064650831E-3;1.064650831E-3;2.129301662E-3
1.929098913E1;-4.258603323E-3;-1.064650831E-3;4.258603323E-3
1.930290006E1;-8.517206647E-3;-5.323254038E-3;5.323254038E-3
1.931481569E1;-1.171115879E-2;-8.517206647E-3;4.258603323E-3
1.932672975E1;-1.703441329E-2;-1.171115879E-2;4.258603323E-3
1.933863444E1;-1.596976258E-2;-8.517206647E-3;4.258603323E-3
1.935054694E1;-1.384046115E-2;-5.323254038E-3;5.323254038E-3
1.936245788E1;-1.064650808E-2;4.258603323E-3;8.517206647E-3
1.937436881E1;-1.171115879E-2;1.064650831E-3;6.387905218E-3
1.938628131E1;-1.277581044E-2;1.064650831E-3;8.517206647E-3
1.939819225E1;-1.277581044E-2;0.000000000E0;8.517206647E-3
1.941010475E1;-1.384046115E-2;-1.277581044E-2;4.258603323E-3
1.942201569E1;-1.171115879E-2;-3.300417587E-2;-1.064650831E-3
1.943392819E1;-9.581857361E-3;-3.619812801E-2;-4.258603323E-3
1.944583913E1;-4.258603323E-3;-2.129301615E-2;-5.323254038E-3
1.945776256E1;0.000000000E0;-8.517206647E-3;-2.129301662E-3
1.946966256E1;2.129301662E-3;1.064650831E-3;0.000000000E0
1.948157663E1;3.193952609E-3;2.129301662E-3;0.000000000E0
1.949348756E1;2.129301662E-3;-2.129301662E-3;-1.064650831E-3
1.950540631E1;0.000000000E0;-2.129301662E-3;-4.258603323E-3
1.951730788E1;-1.064650831E-3;-7.452555932E-3;-4.258603323E-3
1.952922038E1;-3.193952609E-3;-9.581857361E-3;-6.387905218E-3
1.954113131E1;-1.064650831E-3;-8.517206647E-3;-3.193952609E-3
1.955304381E1;-1.064650831E-3;-2.129301662E-3;-1.064650831E-3
1.956496569E1;2.129301662E-3;5.323254038E-3;-1.064650831E-3
1.957686569E1;2.129301662E-3;8.517206647E-3;1.064650831E-3
1.958877819E1;2.129301662E-3;9.581857361E-3;1.064650831E-3
1.960068913E1;3.193952609E-3;5.323254038E-3;0.000000000E0
1.961260631E1;0.000000000E0;2.129301662E-3;-3.193952609E-3
1.962451256E1;-2.129301662E-3;1.064650831E-3;0.000000000E0
1.963642819E1;-3.193952609E-3;2.129301662E-3;-3.193952609E-3
1.964833600E1;-6.387905218E-3;-2.129301662E-3;1.064650831E-3
1.966024694E1;0.000000000E0;-3.193952609E-3;0.000000000E0
1.967215944E1;0.000000000E0;1.064650831E-3;-1.064650831E-3
1.968407038E1;-2.129301662E-3;4.258603323E-3;0.000000000E0
1.969598131E1;-4.258603323E-3;4.258603323E-3;1.064650831E-3
1.970789381E1;-4.258603323E-3;-1.064650831E-3;1.064650831E-3
1.971980475E1;-7.452555932E-3;-6.387905218E-3;-1.064650831E-3
1.973171725E1;-4.258603323E-3;-8.517206647E-3;0.000000000E0
1.974363600E1;-7.452555932E-3;-4.258603323E-3;0.000000000E0
1.975553913E1;-3.193952609E-3;-1.064650831E-3;0.000000000E0
1.976745162E1;-4.258603323E-3;-4.258603323E-3;2.129301662E-3
1.977936256E1;-7.452555932E-3;-6.387905218E-3;2.129301662E-3
1.979127975E1;-4.258603323E-3;4.258603323E-3;3.193952609E-3
1.980318756E1;-3.193952609E-3;8.517206647E-3;3.193952609E-3
1.981509850E1;-1.064650831E-3;1.064650808E-2;2.129301662E-3
1.982700944E1;2.129301662E-3;7.452555932E-3;0.000000000E0
1.983892194E1;2.129301662E-3;1.064650831E-3;0.000000000E0
1.985083444E1;-1.064650831E-3;-4.258603323E-3;-2.129301662E-3
1.986274381E1;-2.129301662E-3;-3.193952609E-3;1.064650831E-3
1.987465944E1;-2.129301662E-3;1.064650831E-3;-3.193952609E-3
1.988657350E1;1.064650831E-3;8.517206647E-3;0.000000000E0
1.989847975E1;5.323254038E-3;1.490511186E-2;0.000000000E0
1.991039225E1;5.323254038E-3;1.384046115E-2;0.000000000E0
1.992230163E1;7.452555932E-3;9.581857361E-3;0.000000000E0
1.993421412E1;9.581857361E-3;3.193952609E-3;-1.064650831E-3
1.994612506E1;5.323254038E-3;-3.193952609E-3;-2.129301662E-3
1.995803756E1;4.258603323E-3;-3.193952609E-3;-2.129301662E-3
1.996994850E1;1.064650831E-3;0.000000000E0;-2.129301662E-3
1.998186256E1;2.129301662E-3;0.000000000E0;-2.129301662E-3
1.999377194E1;0.000000000E0;-1.064650831E-3;-1.064650831E-3
2.000568444E1;-2.129301662E-3;-3.193952609E-3;2.129301662E-3
2.001759538E1;-6.387905218E-3;-7.452555932E-3;2.129301662E-3
2.002950631E1;-8.517206647E-3;-4.258603323E-3;3.193952609E-3
2.004141881E1;-6.387905218E-3;-3.193952609E-3;3.193952609E-3
2.005332975E1;-6.387905218E-3;-4.258603323E-3;2.129301662E-3
2.006524069E1;-3.193952609E-3;1.064650831E-3;2.129301662E-3
2.007715319E1;0.000000000E0;-6.387905218E-3;1.064650831E-3
2.008908131E1;1.064650831E-3;-8.517206647E-3;0.000000000E0
2.010097662E1;-4.258603323E-3;-1.277581044E-2;0.000000000E0
2.011289694E1;-7.452555932E-3;-1.277581044E-2;-2.129301662E-3
2.012479850E1;-8.517206647E-3;-1.171115879E-2;0.000000000E0
2.013671100E1;-6.387905218E-3;-1.064650808E-2;0.000000000E0
2.014862350E1;1.064650831E-3;-6.387905218E-3;-1.064650831E-3
2.016053444E1;3.193952609E-3;-7.452555932E-3;-1.064650831E-3
2.017244538E1;4.258603323E-3;-7.452555932E-3;-1.064650831E-3
2.018435631E1;1.064650831E-3;-8.517206647E-3;-3.193952609E-3
2.019626881E1;0.000000000E0;-1.596976258E-2;-6.387905218E-3
2.020818756E1;-8.517206647E-3;-2.129301615E-2;-1.064650808E-2
2.022009225E1;-1.277581044E-2;-2.661627159E-2;-1.490511186E-2
2.023200319E1;-1.490511186E-2;-2.981022373E-2;-1.596976258E-2
2.024391569E1;-1.916371472E-2;-3.513347730E-2;-1.916371472E-2
2.025582662E1;-2.555162087E-2;-4.365068302E-2;-2.129301615E-2
2.026774069E1;-3.513347730E-2;-5.642649531E-2;-2.235766686E-2
2.027965319E1;-4.471533373E-2;-5.855579674E-2;-2.022836544E-2
2.029156256E1;-4.258603230E-2;-6.281439960E-2;-2.555162087E-2
2.030347350E1;-3.939208016E-2;-6.068509817E-2;-3.087487444E-2
2.031538444E1;-3.087487444E-2;-4.790928960E-2;-3.406882659E-2
2.032729694E1;-2.022836544E-2;-3.087487444E-2;-2.981022373E-2
2.033920788E1;-1.277581044E-2;-1.703441329E-2;-2.661627159E-2
2.035111881E1;-3.193952609E-3;-1.490511186E-2;-1.916371472E-2
2.036303600E1;-5.323254038E-3;-2.235766686E-2;-1.596976258E-2
2.037494381E1;-1.064650831E-3;-1.064650808E-2;-9.581857361E-3
2.038685788E1;-2.129301662E-3;-1.064650831E-3;0.000000000E0
2.039876725E1;3.193952609E-3;8.517206647E-3;2.129301662E-3
2.041067819E1;-1.064650831E-3;-1.064650831E-3;5.323254038E-3
2.042258913E1;5.323254038E-3;2.342231758E-2;2.129301662E-3
2.043450163E1;-6.387905218E-3;-9.581857361E-3;3.193952609E-3
2.044641256E1;-3.193952609E-3;-4.258603323E-3;2.129301662E-3
2.045832350E1;-3.193952609E-3;-1.064650808E-2;0.000000000E0
2.047023600E1;0.000000000E0;-8.517206647E-3;-4.258603323E-3
2.048214694E1;2.129301662E-3;-7.452555932E-3;-6.387905218E-3
2.049405944E1;3.193952609E-3;-2.129301662E-3;-3.193952609E-3
2.050597038E1;-4.258603323E-3;-4.258603323E-3;0.000000000E0
2.051789225E1;0.000000000E0;-1.064650831E-3;1.064650831E-3
2.052979381E1;-3.193952609E-3;2.129301662E-3;2.129301662E-3
2.054170475E1;-4.258603323E-3;-7.452555932E-3;3.193952609E-3
2.055361725E1;-1.064650831E-3;1.064650831E-3;2.129301662E-3
2.056552819E1;2.129301662E-3;-1.064650831E-3;1.064650831E-3
2.057743912E1;6.387905218E-3;8.517206647E-3;2.129301662E-3
2.058936100E1;4.258603323E-3;0.000000000E0;0.000000000E0
2.060126256E1;6.387905218E-3;-2.129301662E-3;-2.129301662E-3
2.061317350E1;1.064650831E-3;0.000000000E0;-2.129301662E-3
2.062508756E1;-3.193952609E-3;-3.193952609E-3;1.064650831E-3
2.063700475E1;-1.064650831E-3;0.000000000E0;-1.064650831E-3
2.064890944E1;-4.258603323E-3;-1.064650831E-3;-2.129301662E-3
2.066082038E1;0.000000000E0;5.323254038E-3;-1.064650831E-3
2.067273131E1;4.258603323E-3;1.916371472E-2;1.064650831E-3
2.068464381E1;1.277581044E-2;1.490511186E-2;1.064650831E-3
2.069656100E1;1.384046115E-2;1.596976258E-2;1.064650831E-3
2.070846725E1;1.703441329E-2;1.916371472E-2;4.258603323E-3
2.072037819E1;1.064650808E-2;1.809906401E-2;3.193952609E-3
2.073228912E1;9.581857361E-3;1.490511186E-2;3.193952609E-3
2.074420163E1;9.581857361E-3;1.596976258E-2;2.129301662E-3
2.075611569E1;5.323254038E-3;1.916371472E-2;0.000000000E0
2.076802506E1;7.452555932E-3;1.490511186E-2;3.193952609E-3
2.077993600E1;8.517206647E-3;1.703441329E-2;-1.064650831E-3
2.079184850E1;1.171115879E-2;2.555162087E-2;2.129301662E-3
2.080376256E1;1.384046115E-2;2.661627159E-2;2.129301662E-3
2.081567194E1;1.490511186E-2;2.555162087E-2;0.000000000E0
2.082758288E1;1.171115879E-2;2.235766686E-2;0.000000000E0
2.083949381E1;6.387905218E-3;1.490511186E-2;2.129301662E-3
2.085140788E1;5.323254038E-3;8.517206647E-3;3.193952609E-3
2.086331725E1;4.258603323E-3;1.277581044E-2;2.129301662E-3
2.087523600E1;3.193952609E-3;1.171115879E-2;1.064650831E-3
2.088714069E1;6.387905218E-3;8.517206647E-3;-1.064650831E-3
2.089905319E1;8.517206647E-3;2.129301662E-3;-2.129301662E-3
2.091096412E1;5.323254038E-3;-6.387905218E-3;-5.323254038E-3
2.092287662E1;1.064650831E-3;-1.384046115E-2;-4.258603323E-3
2.093479381E1;2.129301662E-3;-1.064650808E-2;-4.258603323E-3
2.094669850E1;3.193952609E-3;-1.064650831E-3;-3.193952609E-3
2.095861100E1;6.387905218E-3;4.258603323E-3;-3.193952609E-3
2.097052194E1;1.064650808E-2;6.387905218E-3;-2.129301662E-3
2.098243444E1;1.064650808E-2;7.452555932E-3;-2.129301662E-3
2.099434538E1;8.517206647E-3;4.258603323E-3;-3.193952609E-3
2.100625631E1;5.323254038E-3;2.129301662E-3;-2.129301662E-3
2.101816881E1;1.064650831E-3;-3.193952609E-3;-4.258603323E-3
2.103007975E1;-1.064650831E-3;0.000000000E0;-1.064650831E-3
2.104199069E1;3.193952609E-3;5.323254038E-3;-1.064650831E-3
2.105390319E1;2.129301662E-3;3.193952609E-3;-1.064650831E-3
2.106582350E1;8.517206647E-3;1.064650808E-2;1.064650831E-3
2.107772662E1;4.258603323E-3;7.452555932E-3;1.064650831E-3
2.108963756E1;5.323254038E-3;8.517206647E-3;0.000000000E0
2.110155006E1;3.193952609E-3;5.323254038E-3;-2.129301662E-3
2.111346569E1;1.064650831E-3;1.064650831E-3;-2.129301662E-3
2.112537194E1;-3.193952609E-3;-6.387905218E-3;-3.193952609E-3
2.113728444E1;-1.171115879E-2;-8.517206647E-3;1.064650831E-3
2.114919538E1;-1.384046115E-2;-1.171115879E-2;1.064650831E-3
2.116111256E1;-1.384046115E-2;-9.581857361E-3;2.129301662E-3
2.117302506E1;-9.581857361E-3;-5.323254038E-3;-1.064650831E-3
2.118492975E1;-3.193952609E-3;0.000000000E0;2.129301662E-3
2.119684850E1;-1.064650831E-3;6.387905218E-3;3.193952609E-3
2.120875319E1;-1.064650831E-3;0.000000000E0;1.064650831E-3
2.122066413E1;-2.129301662E-3;-4.258603323E-3;1.064650831E-3
2.123258288E1;-1.064650831E-3;-7.452555932E-3;-1.064650831E-3
2.124448756E1;-4.258603323E-3;-7.452555932E-3;-2.129301662E-3
2.125640006E1;-5.323254038E-3;-1.171115879E-2;-3.193952609E-3
2.126831100E1;-2.129301662E-3;-7.452555932E-3;-5.323254038E-3
2.128022975E1;-3.193952609E-3;-9.581857361E-3;-3.193952609E-3
2.129213444E1;-4.258603323E-3;-5.323254038E-3;-1.064650831E-3
2.130404694E1;-3.193952609E-3;-6.387905218E-3;-3.193952609E-3
2.131595788E1;-2.129301662E-3;-1.064650808E-2;-3.193952609E-3
2.132786881E1;-1.064650831E-3;-6.387905218E-3;-5.323254038E-3
2.133978131E1;-3.193952609E-3;-1.064650831E-3;-7.452555932E-3
2.135170162E1;-6.387905218E-3;-2.235766686E-2;-9.581857361E-3
2.136360475E1;-4.258603323E-3;-1.384046115E-2;-1.384046115E-2
2.137551569E1;1.064650831E-3;-1.384046115E-2;-1.277581044E-2
2.138742819E1;-3.193952609E-3;-4.258603323E-3;-1.171115879E-2
2.139933912E1;0.000000000E0;-5.323254038E-3;-9.581857361E-3
2.141125006E1;0.000000000E0;-2.129301662E-3;-6.387905218E-3
2.142316256E1;-1.064650831E-3;-1.064650831E-3;-4.258603323E-3
2.143507350E1;-1.064650831E-3;5.323254038E-3;-1.064650831E-3
2.144698600E1;-1.064650831E-3;1.171115879E-2;3.193952609E-3
2.145889694E1;-1.064650831E-3;1.064650808E-2;0.000000000E0
2.147081412E1;0.000000000E0;5.323254038E-3;-1.064650831E-3
2.148272038E1;0.000000000E0;6.387905218E-3;-1.064650831E-3
2.149463131E1;0.000000000E0;5.323254038E-3;-1.064650831E-3
2.150654381E1;0.000000000E0;7.452555932E-3;0.000000000E0
2.151845475E1;1.064650831E-3;6.387905218E-3;0.000000000E0
2.153036725E1;1.064650831E-3;5.323254038E-3;-1.064650831E-3
2.154227819E1;1.064650831E-3;3.193952609E-3;-1.064650831E-3
2.155418912E1;0.000000000E0;-3.193952609E-3;-1.064650831E-3
2.156610162E1;-1.064650831E-3;-7.452555932E-3;-3.193952609E-3
2.157801413E1;-1.064650831E-3;-6.387905218E-3;-3.193952609E-3
2.158993131E1;1.064650831E-3;-3.193952609E-3;-1.064650831E-3
2.160185006E1;3.193952609E-3;1.064650831E-3;0.000000000E0
2.161374694E1;4.258603323E-3;3.193952609E-3;-1.064650831E-3
2.162565944E1;4.258603323E-3;1.064650831E-3;-2.129301662E-3
2.163757038E1;3.193952609E-3;-2.129301662E-3;-2.129301662E-3
2.164948288E1;2.129301662E-3;-1.064650831E-3;-1.064650831E-3
2.166139381E1;1.064650831E-3;1.064650831E-3;-1.064650831E-3
2.167330475E1;3.193952609E-3;7.452555932E-3;2.129301662E-3
2.168521725E1;5.323254038E-3;6.387905218E-3;-2.129301662E-3
2.169713600E1;6.387905218E-3;4.258603323E-3;1.064650831E-3
2.170904694E1;7.452555932E-3;2.129301662E-3;1.064650831E-3
2.172095162E1;8.517206647E-3;1.064650831E-3;1.064650831E-3
2.173286256E1;4.258603323E-3;2.129301662E-3;3.193952609E-3
2.174477506E1;1.064650831E-3;7.452555932E-3;2.129301662E-3
2.175668756E1;0.000000000E0;7.452555932E-3;2.129301662E-3
2.176859694E1;0.000000000E0;1.490511186E-2;2.129301662E-3
2.178050944E1;2.129301662E-3;1.171115879E-2;0.000000000E0
2.179242194E1;3.193952609E-3;1.171115879E-2;3.193952609E-3
2.180433288E1;4.258603323E-3;9.581857361E-3;1.064650831E-3
2.181625162E1;2.129301662E-3;8.517206647E-3;3.193952609E-3
2.182816256E1;4.258603323E-3;5.323254038E-3;-1.064650831E-3
2.184006725E1;4.258603323E-3;3.193952609E-3;0.000000000E0
2.185197975E1;2.129301662E-3;0.000000000E0;0.000000000E0
2.186389069E1;1.064650831E-3;2.129301662E-3;1.064650831E-3
2.187580944E1;0.000000000E0;0.000000000E0;1.064650831E-3
2.188771413E1;-2.129301662E-3;1.064650831E-3;2.129301662E-3
2.189962506E1;-1.064650831E-3;1.064650831E-3;4.258603323E-3
2.191153756E1;1.064650831E-3;-2.129301662E-3;1.064650831E-3
2.192344850E1;2.129301662E-3;-5.323254038E-3;-2.129301662E-3
2.193536100E1;-2.129301662E-3;-9.581857361E-3;-3.193952609E-3
2.194728131E1;-3.193952609E-3;-1.064650808E-2;-2.129301662E-3
2.195919381E1;-4.258603323E-3;-1.171115879E-2;-1.064650831E-3
2.197109538E1;-1.064650831E-3;-6.387905218E-3;-1.064650831E-3
2.198300631E1;-2.129301662E-3;-2.129301662E-3;0.000000000E0
2.199492194E1;0.000000000E0;-2.129301662E-3;3.193952609E-3
2.200682975E1;1.064650831E-3;1.064650831E-3;-1.064650831E-3
2.201874850E1;-3.193952609E-3;0.000000000E0;0.000000000E0
2.203065319E1;-2.129301662E-3;-8.517206647E-3;0.000000000E0
2.204256413E1;-4.258603323E-3;-9.581857361E-3;-2.129301662E-3
2.205447663E1;-5.323254038E-3;-8.517206647E-3;-1.064650831E-3
2.206639069E1;-9.581857361E-3;-1.064650808E-2;-1.064650831E-3
2.207829850E1;-6.387905218E-3;-1.277581044E-2;-3.193952609E-3
2.209021100E1;-6.387905218E-3;-1.384046115E-2;1.064650831E-3
2.210212194E1;-6.387905218E-3;-9.581857361E-3;-2.129301662E-3
2.211403444E1;1.064650831E-3;-1.064650831E-3;0.000000000E0
2.212594850E1;-1.064650831E-3;-1.064650831E-3;-2.129301662E-3
2.213785788E1;2.129301662E-3;-3.193952609E-3;-2.129301662E-3
2.214976881E1;3.193952609E-3;-8.517206647E-3;-5.323254038E-3
2.216168288E1;-2.129301662E-3;-1.171115879E-2;-5.323254038E-3
2.217359694E1;-1.064650831E-3;-1.064650808E-2;-5.323254038E-3
2.218550944E1;-3.193952609E-3;-1.171115879E-2;-7.452555932E-3
2.219741569E1;-3.193952609E-3;0.000000000E0;-3.193952609E-3
2.220932663E1;-1.064650831E-3;-2.129301662E-3;0.000000000E0
2.222123756E1;-3.193952609E-3;-3.193952609E-3;0.000000000E0
2.223315006E1;-1.064650831E-3;3.193952609E-3;-2.129301662E-3
2.224506100E1;0.000000000E0;0.000000000E0;-2.129301662E-3
2.225697194E1;2.129301662E-3;3.193952609E-3;-1.064650831E-3
2.226888444E1;3.193952609E-3;3.193952609E-3;-1.064650831E-3
2.228079538E1;0.000000000E0;2.129301662E-3;-1.064650831E-3
2.229270788E1;-1.064650831E-3;-1.064650831E-3;2.129301662E-3
2.230461881E1;1.064650831E-3;3.193952609E-3;2.129301662E-3
2.231653131E1;0.000000000E0;-3.193952609E-3;1.064650831E-3
2.232844225E1;0.000000000E0;2.129301662E-3;1.064650831E-3
2.234035475E1;0.000000000E0;4.258603323E-3;1.064650831E-3
2.235226569E1;1.064650831E-3;5.323254038E-3;3.193952609E-3
2.236418444E1;2.129301662E-3;9.581857361E-3;1.064650831E-3
2.237608912E1;0.000000000E0;1.064650831E-3;1.064650831E-3
2.238800475E1;2.129301662E-3;-6.387905218E-3;-1.064650831E-3
2.239991256E1;-2.129301662E-3;-1.064650808E-2;-2.129301662E-3
2.241182506E1;-4.258603323E-3;-1.171115879E-2;-1.064650831E-3
2.242374069E1;-3.193952609E-3;-5.323254038E-3;-3.193952609E-3
2.243564694E1;3.193952609E-3;-1.064650831E-3;-4.258603323E-3
2.244755788E1;7.452555932E-3;2.129301662E-3;-6.387905218E-3
2.245947038E1;1.171115879E-2;4.258603323E-3;-4.258603323E-3
2.247138756E1;8.517206647E-3;5.323254038E-3;-6.387905218E-3
2.248329381E1;7.452555932E-3;2.129301662E-3;-3.193952609E-3
2.249521100E1;4.258603323E-3;2.129301662E-3;-2.129301662E-3
2.250711569E1;1.064650831E-3;5.323254038E-3;0.000000000E0
2.251902819E1;0.000000000E0;9.581857361E-3;0.000000000E0
2.253094069E1;2.129301662E-3;1.384046115E-2;3.193952609E-3
2.254286100E1;6.387905218E-3;2.129301615E-2;1.064650831E-3
2.255476256E1;6.387905218E-3;2.022836544E-2;6.387905218E-3
2.256667506E1;6.387905218E-3;2.342231758E-2;5.323254038E-3
2.257858600E1;5.323254038E-3;2.235766686E-2;7.452555932E-3
2.259049850E1;9.581857361E-3;1.809906401E-2;6.387905218E-3
2.260240944E1;8.517206647E-3;1.596976258E-2;5.323254038E-3
2.261432038E1;7.452555932E-3;1.384046115E-2;4.258603323E-3
2.262623131E1;6.387905218E-3;1.596976258E-2;4.258603323E-3
2.263814381E1;4.258603323E-3;1.703441329E-2;6.387905218E-3
2.265005631E1;5.323254038E-3;1.171115879E-2;4.258603323E-3
2.266196725E1;4.258603323E-3;1.384046115E-2;4.258603323E-3
2.267387819E1;1.064650831E-3;1.064650808E-2;3.193952609E-3
2.268578913E1;5.323254038E-3;9.581857361E-3;3.193952609E-3
2.269770162E1;4.258603323E-3;6.387905218E-3;3.193952609E-3
2.270961256E1;7.452555932E-3;7.452555932E-3;1.064650831E-3
2.272152506E1;6.387905218E-3;9.581857361E-3;0.000000000E0
2.273343600E1;7.452555932E-3;7.452555932E-3;1.064650831E-3
2.274534694E1;5.323254038E-3;6.387905218E-3;5.323254038E-3
2.275725944E1;0.000000000E0;5.323254038E-3;1.064650831E-3
2.276917350E1;0.000000000E0;3.193952609E-3;4.258603323E-3
2.278109069E1;1.064650831E-3;7.452555932E-3;3.193952609E-3
2.279299381E1;5.323254038E-3;9.581857361E-3;3.193952609E-3
2.280490631E1;4.258603323E-3;7.452555932E-3;2.129301662E-3
2.281681725E1;3.193952609E-3;9.581857361E-3;3.193952609E-3
2.282872975E1;3.193952609E-3;7.452555932E-3;5.323254038E-3
2.284064069E1;1.064650831E-3;9.581857361E-3;5.323254038E-3
2.285255162E1;0.000000000E0;1.064650808E-2;6.387905218E-3
2.286446412E1;-2.129301662E-3;1.064650808E-2;6.387905218E-3
2.287637663E1;-2.129301662E-3;9.581857361E-3;5.323254038E-3
2.288828912E1;-2.129301662E-3;8.517206647E-3;4.258603323E-3
2.290020475E1;-2.129301662E-3;5.323254038E-3;3.193952609E-3
2.291212663E1;-1.064650831E-3;6.387905218E-3;4.258603323E-3
2.292402194E1;-3.193952609E-3;7.452555932E-3;4.258603323E-3
2.293593444E1;-1.064650831E-3;5.323254038E-3;6.387905218E-3
2.294786725E1;-3.193952609E-3;7.452555932E-3;6.387905218E-3
2.295975631E1;-2.129301662E-3;6.387905218E-3;6.387905218E-3
2.297167506E1;-2.129301662E-3;3.193952609E-3;5.323254038E-3
2.298357975E1;-3.193952609E-3;4.258603323E-3;7.452555932E-3
2.299549225E1;-3.193952609E-3;4.258603323E-3;7.452555932E-3
2.300740319E1;-1.064650831E-3;7.452555932E-3;7.452555932E-3
2.301931569E1;0.000000000E0;6.387905218E-3;7.452555932E-3
2.303122663E1;0.000000000E0;7.452555932E-3;4.258603323E-3
2.304313756E1;0.000000000E0;6.387905218E-3;8.517206647E-3
2.305505006E1;-4.258603323E-3;2.129301662E-3;7.452555932E-3
2.306696100E1;-5.323254038E-3;1.064650831E-3;6.387905218E-3
2.307887194E1;-4.258603323E-3;-1.064650831E-3;7.452555932E-3
2.309078444E1;-4.258603323E-3;6.387905218E-3;7.452555932E-3
2.310269538E1;-1.064650831E-3;3.193952609E-3;6.387905218E-3
2.311460631E1;0.000000000E0;3.193952609E-3;6.387905218E-3
2.312652038E1;2.129301662E-3;2.129301662E-3;4.258603323E-3
2.313842975E1;0.000000000E0;7.452555932E-3;4.258603323E-3
2.315034225E1;2.129301662E-3;2.129301662E-3;5.323254038E-3
2.316225319E1;5.323254038E-3;5.323254038E-3;6.387905218E-3
2.317416569E1;4.258603323E-3;5.323254038E-3;4.258603323E-3
2.318607663E1;3.193952609E-3;0.000000000E0;1.064650831E-3
2.319798756E1;0.000000000E0;-3.193952609E-3;-1.064650831E-3
2.320990006E1;-4.258603323E-3;-5.323254038E-3;0.000000000E0
2.322181100E1;-6.387905218E-3;-4.258603323E-3;1.064650831E-3
2.323372350E1;-4.258603323E-3;-1.064650831E-3;0.000000000E0
2.324563444E1;-1.064650831E-3;4.258603323E-3;-1.064650831E-3
2.325755162E1;0.000000000E0;2.129301662E-3;0.000000000E0
2.326945788E1;4.258603323E-3;1.064650831E-3;0.000000000E0
2.328137194E1;3.193952609E-3;-2.129301662E-3;-1.064650831E-3
2.329328131E1;-2.129301662E-3;-1.064650831E-3;-1.064650831E-3
2.330519225E1;-2.129301662E-3;0.000000000E0;1.064650831E-3
2.331710475E1;-3.193952609E-3;1.064650831E-3;0.000000000E0
2.332901569E1;-3.193952609E-3;0.000000000E0;3.193952609E-3
2.334092662E1;1.064650831E-3;2.129301662E-3;0.000000000E0
2.335283913E1;1.064650831E-3;1.064650831E-3;-2.129301662E-3
2.336475319E1;1.064650831E-3;2.129301662E-3;0.000000000E0
2.337666881E1;-1.064650831E-3;1.064650831E-3;2.129301662E-3
2.338857350E1;0.000000000E0;1.064650831E-3;2.129301662E-3
2.340048756E1;-6.387905218E-3;-3.193952609E-3;-2.129301662E-3
2.341239694E1;-5.323254038E-3;-4.258603323E-3;0.000000000E0
2.342430788E1;-5.323254038E-3;-6.387905218E-3;-1.064650831E-3
2.343622038E1;-6.387905218E-3;-3.193952609E-3;-2.129301662E-3
2.344814069E1;-7.452555932E-3;-1.064650831E-3;0.000000000E0
2.346004381E1;-5.323254038E-3;1.064650831E-3;2.129301662E-3
2.347195475E1;-4.258603323E-3;-2.129301662E-3;0.000000000E0
2.348386725E1;-3.193952609E-3;1.064650831E-3;0.000000000E0
2.349578288E1;-3.193952609E-3;-2.129301662E-3;0.000000000E0
2.350768913E1;-3.193952609E-3;-2.129301662E-3;1.064650831E-3
2.351960162E1;-6.387905218E-3;-4.258603323E-3;-2.129301662E-3
2.353151256E1;-4.258603323E-3;-1.064650831E-3;-1.064650831E-3
2.354342506E1;-5.323254038E-3;1.064650831E-3;-2.129301662E-3
2.355533600E1;-3.193952609E-3;0.000000000E0;0.000000000E0
2.356724694E1;-4.258603323E-3;1.064650831E-3;0.000000000E0
2.357915944E1;-4.258603323E-3;4.258603323E-3;1.064650831E-3
2.359107038E1;-3.193952609E-3;-3.193952609E-3;-2.129301662E-3
2.360298131E1;-2.129301662E-3;4.258603323E-3;0.000000000E0
2.361489381E1;-2.129301662E-3;-1.064650831E-3;-1.064650831E-3
2.362680475E1;-3.193952609E-3;-1.064650831E-3;-2.129301662E-3
2.363871725E1;-2.129301662E-3;-6.387905218E-3;-1.064650831E-3
2.365062819E1;-5.323254038E-3;-3.193952609E-3;0.000000000E0
2.366254850E1;-7.452555932E-3;-2.129301662E-3;2.129301662E-3
2.367445163E1;-8.517206647E-3;-2.129301662E-3;-1.064650831E-3
2.368636256E1;-6.387905218E-3;-4.258603323E-3;2.129301662E-3
2.369827506E1;-8.517206647E-3;-2.129301662E-3;-1.064650831E-3
2.371018600E1;-3.193952609E-3;-2.129301662E-3;-1.064650831E-3
2.372209694E1;-3.193952609E-3;-3.193952609E-3;0.000000000E0
2.373401881E1;-3.193952609E-3;-1.064650831E-3;-2.129301662E-3
2.374592038E1;-1.064650831E-3;1.064650831E-3;0.000000000E0
2.375783288E1;-2.129301662E-3;-1.064650831E-3;0.000000000E0
2.376974381E1;-3.193952609E-3;-2.129301662E-3;0.000000000E0
2.378166569E1;-4.258603323E-3;-1.064650831E-3;-1.064650831E-3
2.379357506E1;-4.258603323E-3;-1.064650831E-3;-1.064650831E-3
2.380547975E1;-2.129301662E-3;0.000000000E0;0.000000000E0
2.381739069E1;-2.129301662E-3;-2.129301662E-3;-1.064650831E-3
2.382930319E1;-3.193952609E-3;-5.323254038E-3;-3.193952609E-3
2.384121412E1;-3.193952609E-3;-8.517206647E-3;-1.064650831E-3
