"Time (s)";"Gyroscope x (rad/s)";"Gyroscope y (rad/s)";"Gyroscope z (rad/s)"
1.010475000E-2;-9.581857361E-3;1.309520602E-1;1.064650808E-2
2.200787500E-2;5.216789246E-2;1.362753063E-1;5.536184460E-2
3.392037500E-2;8.517206460E-2;7.452555746E-2;1.043357849E-1
4.583131200E-2;8.943066746E-2;-2.129301615E-2;1.298874021E-1
5.774225000E-2;1.277581044E-2;-6.281439960E-2;1.277581006E-1
6.966568700E-2;-7.771950960E-2;-7.452555746E-2;9.794788063E-2
8.156568700E-2;-1.107236892E-1;-1.192408949E-1;8.197811246E-2
9.347818700E-2;-9.901253134E-2;-1.064650863E-1;6.174974889E-2
1.053891250E-1;-8.836601675E-2;-3.193952516E-2;6.813765317E-2
1.173031870E-1;-1.032711342E-1;7.559020817E-2;5.110324174E-2
1.292125620E-1;-1.618269235E-1;1.969604045E-1;3.939208016E-2
1.411235000E-1;-2.576455176E-1;3.832743168E-1;3.087487444E-2
1.530360000E-1;-2.842617631E-1;3.981794119E-1;1.064650831E-3
1.649469370E-1;-2.523222566E-1;3.236538470E-1;4.258603323E-3
1.768641250E-1;-2.374171317E-1;2.459343374E-1;1.277581044E-2
1.887703750E-1;-1.916371584E-1;1.234994978E-1;-5.323254038E-3
2.006828750E-1;-9.155996889E-2;-2.874557301E-2;6.387905218E-3
2.126031870E-1;-3.939208016E-2;-1.703441329E-2;2.129301615E-2
2.245063120E-1;-7.346090674E-2;7.665485889E-2;1.703441329E-2
2.364172500E-1;-1.511804163E-1;1.277581006E-1;2.874557301E-2
2.483281870E-1;-2.927789688E-1;2.054776102E-1;1.596976258E-2
2.602406870E-1;-3.417529166E-1;2.278352827E-1;-7.984881103E-2
2.721516250E-1;-2.874557376E-1;2.044129670E-1;-2.076069117E-1
2.840641250E-1;-2.459343374E-1;2.448696941E-1;-2.725506127E-1
2.959750620E-1;-2.448696941E-1;2.225120217E-1;-2.938436270E-1
3.078860000E-1;-2.789385319E-1;2.161241174E-1;-2.981022298E-1
3.197985000E-1;-3.300417662E-1;1.469218135E-1;-3.119426966E-1
3.317094370E-1;-3.268478215E-1;-1.171115879E-2;-3.279124498E-1
3.436219370E-1;-2.491282970E-1;-3.279124498E-1;-3.343003690E-1
3.555328750E-1;-1.639562249E-1;-5.706528425E-1;-3.140719831E-1
3.674469370E-1;-1.554390192E-1;-6.558248997E-1;-2.970375717E-1
3.793563120E-1;-2.235766798E-1;-6.238853931E-1;-2.981022298E-1
3.912672500E-1;-3.151366413E-1;-4.577998519E-1;-3.289771080E-1
4.031797500E-1;-3.747570813E-1;-2.895850241E-1;-3.428175747E-1
4.150906870E-1;-3.523994386E-1;-2.597748041E-1;-3.832743168E-1
4.270047500E-1;-2.789385319E-1;-3.758217394E-1;-4.237310290E-1
4.389141250E-1;-1.628915817E-1;-4.695110321E-1;-4.386361539E-1
4.508250620E-1;-1.245641485E-1;-4.939979911E-1;-4.641877711E-1
4.627375620E-1;-1.501157731E-1;-6.654067636E-1;-4.865454435E-1
4.746485000E-1;-2.108008713E-1;-1.100848913E0;-4.194724262E-1
4.865610000E-1;-2.831971347E-1;-1.513933539E0;-3.225892186E-1
4.984719370E-1;-3.747570813E-1;-1.795001268E0;-2.342231870E-1
5.103828750E-1;-5.376486778E-1;-2.067551851E0;-1.799259931E-1
5.222953750E-1;-8.432034850E-1;-2.103749990E0;-4.790928960E-2
5.342063120E-1;-1.028452754E0;-1.828005433E0;1.117883399E-1
5.461172500E-1;-1.084879160E0;-1.291421413E0;1.703441292E-1
5.580297500E-1;-9.879959822E-1;-6.973463297E-1;2.310292274E-1
5.699406870E-1;-7.612253428E-1;-4.386361539E-1;2.789385319E-1
5.818531870E-1;-5.163556337E-1;-4.066966176E-1;2.310292274E-1
5.937672500E-1;-3.651752472E-1;-3.204599023E-1;1.543743759E-1
6.056781870E-1;-2.725506127E-1;-2.981022298E-1;8.943066746E-2
6.175875620E-1;-2.949082851E-1;-3.151366413E-1;7.346090674E-2
6.294985000E-1;-4.216017425E-1;-2.118655145E-1;1.437278688E-1
6.414110000E-1;-5.706528425E-1;-2.022836544E-2;2.565808594E-1
6.533219370E-1;-6.526309848E-1;1.575683206E-1;3.854036033E-1
6.652344370E-1;-5.706528425E-1;2.661627233E-1;5.259374976E-1
6.771453750E-1;-3.811450005E-1;2.150594741E-1;5.695881844E-1
6.890625620E-1;-2.139948159E-1;-2.097362131E-1;4.599291682E-1
7.009688120E-1;-2.044129670E-1;-9.603150487E-1;1.735380888E-1
7.128875620E-1;-2.480636388E-1;-1.466024160E0;-3.300417587E-2
7.247922500E-1;-2.640334070E-1;-1.548002362E0;-1.181762442E-1
7.367031870E-1;-2.139948159E-1;-1.318037748E0;-6.068509817E-2
7.486156870E-1;-1.256287992E-1;-9.315694571E-1;4.684463516E-2
7.605266250E-1;-3.513347730E-2;-4.929333329E-1;1.224348471E-1
7.724453750E-1;3.939208016E-2;-2.395464331E-1;2.203827202E-1
7.843500620E-1;6.387905031E-2;-1.980250627E-1;3.289771080E-1
7.962610000E-1;-3.939208016E-2;-2.800031602E-1;4.184077680E-1
8.081719370E-1;-2.480636388E-1;-4.024380147E-1;4.514119625E-1
8.200844370E-1;-5.131617188E-1;-5.376486778E-1;4.567352235E-1
8.320141250E-1;-6.036570072E-1;-5.259374976E-1;4.939979911E-1
8.439110000E-1;-5.685235262E-1;-4.812221825E-1;5.706528425E-1
8.558266250E-1;-4.439594150E-1;-4.301189482E-1;6.803118587E-1
8.677313120E-1;-3.832743168E-1;-4.216017425E-1;7.686778903E-1
8.796422500E-1;-4.727049768E-1;-5.355193615E-1;8.240397573E-1
8.915610000E-1;-6.047216654E-1;-6.664714217E-1;8.687551022E-1
9.034688120E-1;-7.239625454E-1;-6.984109282E-1;8.985652924E-1
9.153781870E-1;-7.601606846E-1;-7.143807411E-1;8.783369660E-1
9.272891250E-1;-6.302732825E-1;-7.207686305E-1;9.294402003E-1
9.392000620E-1;-3.428175747E-1;-7.420616150E-1;1.015676856E0
9.511156870E-1;-6.494370103E-2;-8.485267162E-1;1.069974065E0
9.630235000E-1;1.160469428E-1;-1.101913571E0;1.101913571E0
9.749344370E-1;1.501157731E-1;-1.453248382E0;1.085943818E0
9.868469370E-1;1.565036774E-1;-1.916371465E0;1.005030394E0
9.987578750E-1;1.714087874E-1;-2.172952414E0;8.889834285E-1
1.010675062E0;1.501157731E-1;-1.999414325E0;8.251044154E-1
1.022581312E0;5.110324174E-2;-1.501157641E0;8.240397573E-1
1.034492250E0;-5.110324174E-2;-9.943838716E-1;8.708843589E-1
1.046404750E0;-9.901253134E-2;-5.908812284E-1;9.443452954E-1
1.058315687E0;-9.794788063E-2;-4.939979911E-1;1.044422507E0
1.070226625E0;-9.688322991E-2;-6.398551464E-1;1.091267109E0
1.082142250E0;-2.129301615E-2;-9.262462258E-1;1.064650893E0
1.094053187E0;1.543743759E-1;-1.069974065E0;1.111495495E0
1.105962562E0;3.758217394E-1;-9.879959822E-1;1.247770786E0
1.117873500E0;5.270021558E-1;-9.049532413E-1;1.389369369E0
1.129792250E0;5.152910352E-1;-8.155225515E-1;1.468153477E0
1.141698500E0;3.502701223E-1;-4.961272776E-1;1.481993914E0
1.153607875E0;8.517206460E-2;-2.044129670E-1;1.442601919E0
1.165520375E0;-1.213701963E-1;-2.001543641E-1;1.345718622E0
1.177432875E0;-1.905725002E-1;-2.757445574E-1;1.248835444E0
1.189343812E0;-8.304276317E-2;-7.026695460E-2;1.217960596E0
1.201256312E0;1.032711342E-1;1.799259931E-1;1.192408919E0
1.213167250E0;2.810678184E-1;4.673817158E-1;1.145564318E0
1.225078187E0;3.864682615E-1;6.057863235E-1;1.159404755E0
1.236993812E0;4.077612758E-1;5.525537729E-1;1.292486072E0
1.248907875E0;3.779510558E-1;1.777966917E-1;1.402145147E0
1.260814125E0;3.492054641E-1;-3.087487519E-1;1.485187888E0
1.272725062E0;3.492054641E-1;-5.770407319E-1;1.452183723E0
1.284636000E0;3.151366413E-1;-4.546059072E-1;1.443666577E0
1.296548500E0;2.182534188E-1;4.897394031E-2;1.457507014E0
1.308490687E0;1.905725002E-1;5.174202919E-1;1.454313040E0
1.320371937E0;1.724734306E-1;6.632774472E-1;1.474541426E0
1.332282875E0;1.863138974E-1;4.290542901E-1;1.408533096E0
1.344193812E0;2.225120217E-1;1.511804163E-1;1.332942843E0
1.356106312E0;2.054776102E-1;8.943066746E-2;1.293550730E0
1.368017250E0;1.639562249E-1;1.767320335E-1;1.264805198E0
1.379929750E0;1.362753063E-1;2.523222566E-1;1.280774951E0
1.391840687E0;1.596976221E-1;2.342231870E-1;1.304197311E0
1.403753187E0;2.885203660E-1;4.897394031E-2;1.405339122E0
1.415664125E0;3.609166443E-1;-2.161241174E-1;1.598040938E0
1.427575062E0;3.374943137E-1;-3.311064243E-1;1.703441381E0
1.439487562E0;2.384817898E-1;-4.024380147E-1;1.799259901E0
1.451398500E0;1.330813617E-1;-6.994755864E-1;1.847169161E0
1.463309437E0;1.384046115E-2;-1.296744704E0;1.856751084E0
1.475221937E0;-2.874557301E-2;-1.779031515E0;1.824811578E0
1.487151625E0;1.671501845E-1;-1.964280844E0;1.838652015E0
1.499045375E0;4.088259339E-1;-1.950440288E0;1.721540451E0
1.510956312E0;6.079156399E-1;-1.708764553E0;1.441537261E0
1.522868812E0;6.313379407E-1;-1.219025254E0;1.216895938E0
1.534779750E0;4.822868407E-1;-6.547602415E-1;9.773494601E-1
1.546695375E0;3.034254909E-1;-1.969604045E-1;7.282211781E-1
1.558609437E0;2.001543641E-1;8.304276317E-2;5.291314721E-1
1.570514125E0;1.213701963E-1;2.310292274E-1;3.257831633E-1
1.582426625E0;9.794788063E-2;1.788613349E-1;1.927018017E-1
1.594337562E0;5.429719388E-2;7.452555746E-2;7.452555746E-2
1.606256312E0;6.920230389E-2;1.660855263E-1;1.064650831E-3
1.618161000E0;5.642649531E-2;2.970375717E-1;-5.429719388E-2
1.630079750E0;1.596976258E-2;3.555933833E-1;-1.043357849E-1
1.641984437E0;-1.703441329E-2;3.800803423E-1;-1.596976221E-1
1.653895375E0;-7.878416032E-2;5.216789246E-1;-2.427403927E-1
1.665806312E0;-1.969604045E-1;6.483723521E-1;-2.757445574E-1
1.677718812E0;-2.991668880E-1;7.654839754E-1;-3.385589719E-1
1.689631312E0;-3.225892186E-1;8.187164664E-1;-4.141491652E-1
1.701542250E0;-3.140719831E-1;7.367383838E-1;-4.769635797E-1
1.713453187E0;-2.693566680E-1;5.355193615E-1;-5.035798550E-1
1.725365687E0;-2.182534188E-1;3.694338500E-1;-4.673817158E-1
1.737276625E0;-1.352106631E-1;2.384817898E-1;-3.577226698E-1
1.749187562E0;-5.642649531E-2;7.771950960E-2;-2.299645841E-1
1.761100062E0;1.703441329E-2;-6.174974889E-2;-1.054004356E-1
1.773012562E0;9.155996889E-2;-1.437278688E-1;1.596976258E-2
1.784940687E0;1.117883399E-1;-2.320938855E-1;1.394692659E-1
1.796843812E0;1.203055456E-1;-2.789385319E-1;2.938436270E-1
1.808746937E0;1.511804163E-1;-2.949082851E-1;4.929333329E-1
1.820657875E0;2.512575984E-1;-4.088259339E-1;7.644193172E-1
1.832570375E0;4.705756605E-1;-7.292858362E-1;8.900480866E-1
1.844481312E0;7.473849058E-1;-1.153016806E0;8.389448524E-1
1.856393812E0;9.017592669E-1;-1.354235888E0;7.356737256E-1
1.868304750E0;9.613797069E-1;-1.290356874E0;6.281439662E-1
1.880215687E0;9.858666658E-1;-1.049745679E0;5.834286809E-1
1.892128187E0;1.019935489E0;-8.400095105E-1;5.610709786E-1
1.904039125E0;1.028452754E0;-8.080700040E-1;5.844933391E-1
1.915951625E0;1.096590400E0;-8.421388268E-1;6.856351495E-1
1.927862562E0;1.148758292E0;-9.613797069E-1;7.814537287E-1
1.939773500E0;1.207314014E0;-1.090202451E0;9.006946087E-1
1.951686000E0;1.241382837E0;-1.342524767E0;1.016741514E0
1.963596937E0;1.182827115E0;-1.610816717E0;1.106172204E0
1.975507875E0;1.051874995E0;-1.805647850E0;1.327619553E0
1.987420375E0;8.772723079E-1;-1.784354806E0;1.608687401E0
1.999331312E0;4.418300986E-1;-1.575683236E0;1.818423629E0
2.011243812E0;6.505016685E-1;-1.932341218E0;2.054776192E0
2.023154750E0;7.995527983E-1;-2.284740686E0;1.967474699E0
2.035065687E0;8.879188299E-1;-2.691437244E0;1.931276679E0
2.046978187E0;1.040163875E0;-3.059806585E0;1.761997104E0
2.058889125E0;8.527853489E-1;-3.517606258E0;1.435149312E0
2.070801625E0;8.165872097E-1;-3.279124498E0;1.022064805E0
2.082712562E0;6.781826019E-1;-2.622235060E0;8.400095105E-1
2.094626625E0;4.343775511E-1;-1.911048293E0;8.400095105E-1
2.106536000E0;1.692794859E-1;-1.279710293E0;8.655611277E-1
2.118446937E0;3.300417587E-2;-8.570439219E-1;9.762848020E-1
2.130359437E0;1.064650863E-1;-3.406882584E-1;1.153016806E0
2.142271937E0;1.777966917E-1;-3.396236300E-1;1.261611223E0
2.154181312E0;2.459343374E-1;-3.023608327E-1;1.145564318E0
2.166093812E0;3.374943137E-1;-7.463202477E-1;9.816080928E-1
2.178012562E0;2.363524884E-1;-1.557584167E0;7.431262732E-1
2.189917250E0;2.491282970E-1;-1.887625933E0;4.609938264E-1
2.201854750E0;8.091346174E-2;-2.073939800E0;4.971919358E-1
2.213740687E0;-8.006174564E-1;-2.475313187E0;8.591732383E-1
2.225651625E0;-1.386175394E0;-2.345425844E0;1.322296381E0
2.237562562E0;-1.273322463E0;-1.897207856E0;1.928082705E0
2.249475062E0;-9.400866628E-1;-8.495913744E-1;2.410369396E0
2.261401625E0;-8.527853489E-1;-9.997071624E-1;2.826647997E0
2.273298500E0;-8.549146056E-1;-1.552260876E0;2.864975452E0
2.285209437E0;-3.364296556E-1;-1.456442356E0;2.778738737E0
2.297121937E0;-1.288227588E-1;-1.142370343E0;2.625428915E0
2.309032875E0;-2.533869147E-1;-1.320167065E0;2.698889971E0
2.320951625E0;-4.546059072E-1;-2.336908579E0;3.075776339E0
2.332856312E0;-4.961272776E-1;-3.544222593E0;3.658140182E0
2.344768812E0;-1.841845959E-1;-4.622714043E0;4.231987000E0
2.356679750E0;6.505016685E-1;-5.355193615E0;4.658912182E0
2.368590687E0;2.035612345E0;-6.255888462E0;5.336030006E0
2.380503187E0;3.861488581E0;-2.303904533E0;5.511697292E0
2.392414125E0;5.191237450E0;9.539271593E-1;5.446753502E0
2.404325062E0;5.537249088E0;1.725798965E0;5.963109493E0
2.416237562E0;5.363710880E0;1.486252546E0;6.703041553E0
2.428148500E0;4.875036240E0;1.561842799E0;7.022437096E0
2.440061000E0;4.353357315E0;1.866332889E0;6.842511177E0
2.451971937E0;3.396236181E0;1.720475793E0;6.026988506E0
2.463882875E0;2.145271540E0;8.378801942E-1;4.705756664E0
2.475795375E0;2.608394623E-1;-1.266934514E0;2.581778288E0
2.487706312E0;-1.521386027E0;-3.075776339E0;-1.309520602E-1
2.499621937E0;-2.193180799E0;-3.379201651E0;-1.950440288E0
2.511529750E0;-2.216603041E0;-2.182534218E0;-2.753187180E0
2.523440687E0;-1.530967951E0;-1.303132653E0;-2.461472750E0
2.535353187E0;3.779510558E-1;-1.052939653E0;-5.663942695E-1
2.547264125E0;1.073168039E0;4.833514690E-1;3.066194355E-1
2.559176625E0;9.656383395E-1;1.815229654E0;6.153681874E-1
2.571093812E0;3.374943137E-1;2.844747066E0;3.044901490E-1
2.582998500E0;-2.438050359E-1;3.056612492E0;-2.842617631E-1
2.594911000E0;-6.792472601E-1;2.888397694E0;-8.581085801E-1
2.606821937E0;-9.613797069E-1;2.740411282E0;-1.046551824E0
2.618734437E0;-8.953713775E-1;2.277288198E0;-9.581857324E-1
2.630646937E0;-6.409198046E-1;1.760932446E0;-7.047988772E-1
2.642557875E0;-3.374943137E-1;1.262675881E0;-4.663170576E-1
2.654468812E0;-3.406882659E-2;7.580313683E-1;-2.746799290E-1
2.666379750E0;1.777966917E-1;1.916371584E-1;-1.447925121E-1
2.678295375E0;2.714859545E-1;-3.279124498E-1;1.809906401E-2
2.690203187E0;3.151366413E-1;-7.644193172E-1;1.469218135E-1
2.702117250E0;2.970375717E-1;-1.108301520E0;2.044129670E-1
2.714026625E0;2.555162013E-1;-1.224348426E0;1.799259931E-1
2.725939125E0;2.214473784E-1;-1.097655058E0;1.160469428E-1
2.737881312E0;2.427403927E-1;-5.834286809E-1;-3.193952516E-2
2.749765687E0;3.119426966E-1;1.171115935E-1;-2.842617631E-1
2.761673500E0;3.907268643E-1;8.602378964E-1;-6.366612315E-1
2.773584437E0;4.024380147E-1;1.384046078E0;-8.879188299E-1
2.785496937E0;3.247185051E-1;1.924888730E0;-1.063586235E0
2.797417250E0;1.905725002E-1;2.292193174E0;-1.061456919E0
2.809321937E0;1.384046115E-2;2.485959768E0;-9.454099536E-1
2.821231312E0;-1.703441292E-1;2.431662560E0;-7.441909313E-1
2.833142250E0;-3.119426966E-1;2.209150553E0;-5.419072509E-1
2.845054750E0;-3.736924529E-1;2.040935755E0;-4.045673311E-1
2.856965687E0;-3.385589719E-1;2.035612345E0;-3.651752472E-1
2.868881312E0;-2.448696941E-1;2.035612345E0;-3.555933833E-1
2.880789125E0;-1.777966917E-1;1.911048293E0;-3.108780384E-1
2.892700062E0;-1.479864717E-1;1.640626907E0;-1.916371584E-1
2.904612562E0;-1.043357849E-1;1.318037748E0;-3.300417587E-2
2.916523500E0;1.384046115E-2;8.975006342E-1;8.517206460E-2
2.928436000E0;1.192408949E-1;8.985652924E-1;1.213701963E-1
2.940348500E0;9.262461960E-2;9.368927479E-1;5.962044746E-2
2.952257875E0;2.342231758E-2;7.633546591E-1;-8.091346174E-2
2.964170375E0;4.790928960E-2;4.609938264E-1;-1.554390192E-1
2.976081312E0;1.064650863E-1;4.013733566E-1;-1.149822921E-1
2.987996937E0;1.927018017E-1;6.451784372E-1;-6.281439960E-2
2.999904750E0;2.246413231E-1;9.251815677E-1;-4.790928960E-2
3.011815687E0;1.756673902E-1;9.358280897E-1;-6.281439960E-2
3.023728187E0;1.022064835E-1;7.239625454E-1;-2.129301615E-2
3.035645375E0;1.043357849E-1;3.822096586E-1;4.790928960E-2
3.047550062E0;1.724734306E-1;-6.600835174E-2;4.790928960E-2
3.059471937E0;1.735380888E-1;-1.682148278E-1;6.281439960E-2
3.071379750E0;1.479864717E-1;8.197811246E-2;8.623671532E-2
3.083286000E0;1.650208831E-1;2.576455176E-1;1.011418328E-1
3.095198500E0;1.948311031E-1;2.746799290E-1;1.298874021E-1
3.107107875E0;2.182534188E-1;4.546059072E-1;1.948311031E-1
3.119020375E0;2.310292274E-1;6.707300544E-1;2.863910794E-1
3.130931312E0;1.884431988E-1;8.346862793E-1;3.119426966E-1
3.142843812E0;3.832742944E-2;1.220089912E0;1.809906363E-1
3.154754750E0;-3.300417587E-2;1.144499660E0;-1.064650808E-2
3.166665687E0;-1.256287992E-1;1.063586235E0;-2.981022373E-2
3.178578187E0;-1.511804163E-1;8.943067193E-1;7.452555746E-2
3.190490687E0;-4.471533373E-2;6.483723521E-1;2.267706245E-1
3.202401625E0;6.281439960E-2;6.185621619E-1;2.267706245E-1
3.214325062E0;1.000771821E-1;7.729365230E-1;1.948311031E-1
3.226229750E0;7.984881103E-2;1.041228533E0;1.820552945E-1
3.238136000E0;2.661627159E-2;1.492640495E0;1.128529906E-1
3.250048500E0;6.387905218E-3;1.949375629E0;6.387905031E-2
3.261959437E0;6.707300246E-2;2.089909554E0;9.475392103E-2
3.273876625E0;1.266934574E-1;1.784354806E0;2.235766798E-1
3.285782875E0;-8.517206647E-3;1.275451660E0;3.002315462E-1
3.297703187E0;-3.822096586E-1;6.749886274E-1;2.395464331E-1
3.309606312E0;-8.432034850E-1;-1.671501845E-1;1.415985674E-1
3.321517250E0;-1.128529906E0;-4.290542901E-1;3.619812801E-2
3.333429750E0;-1.102978230E0;2.193180770E-1;-1.330813617E-1
3.345340687E0;-9.347634315E-1;1.032711267E0;-3.651752472E-1
3.357253187E0;-8.474620581E-1;1.356365204E0;-4.971919358E-1
3.369164125E0;-9.006946087E-1;1.011418343E0;-5.940751433E-1
3.381075062E0;-1.782225490E0;4.035026729E-1;-6.100449562E-1
3.392993812E0;-2.545580149E0;-6.611481905E-1;-7.495141625E-1
3.404898500E0;-2.527481079E0;-1.410662413E0;-8.346862793E-1
3.416812562E0;-2.082457066E0;-2.227249622E0;-8.804662228E-1
3.428721937E0;-1.717281818E0;-2.754251719E0;-8.783369660E-1
3.440632875E0;-1.550131679E0;-2.577519655E0;-7.463202477E-1
3.452545375E0;-1.519256711E0;-1.779031515E0;-5.525537729E-1
3.464465687E0;-1.393628001E0;-1.276516318E0;-4.322482347E-1
3.476371937E0;-1.134917736E0;-1.258417249E0;-3.694338500E-1
3.488279750E0;-1.035905242E0;-1.231801033E0;-4.098905623E-1
3.500190687E0;-1.338266134E0;-1.227542400E0;-6.387904882E-1
3.512103187E0;-1.528838634E0;-1.573553920E0;-7.867769599E-1
3.524014125E0;-1.483058572E0;-2.071810484E0;-7.559021115E-1
3.535926625E0;-1.404274464E0;-2.141012907E0;-7.101221085E-1
3.547837562E0;-1.192408919E0;-2.454020262E0;-6.973463297E-1
3.559748500E0;-9.038885832E-1;-2.704213142E0;-5.898165703E-1
3.571673500E0;-7.218332887E-1;-2.663756371E0;-4.184077680E-1
3.583571937E0;-6.707300544E-1;-2.211279869E0;-2.459343374E-1
3.595484437E0;-6.835058331E-1;-1.908918977E0;-1.948311031E-1
3.607395375E0;-6.143035293E-1;-1.978121281E0;-1.362753063E-1
3.619306312E0;-5.855579376E-1;-1.898272395E0;-1.618269235E-1
3.631218812E0;-4.822868407E-1;-1.862074375E0;-7.984881103E-2
3.643129750E0;-3.704984784E-1;-1.716217160E0;8.091346174E-2
3.655053187E0;-2.927789688E-1;-1.560778141E0;2.693566680E-1
3.666953187E0;-1.543743759E-1;-1.748156667E0;4.226663709E-1
3.678865687E0;1.064650831E-3;-2.251736641E0;4.535412490E-1
3.690804750E0;6.920230389E-2;-2.748928547E0;4.013733566E-1
3.702687562E0;3.939208016E-2;-3.047030687E0;3.396236300E-1
3.714600062E0;1.277581044E-2;-3.188629150E0;2.853264213E-1
3.726511000E0;4.577998444E-2;-3.349391460E0;2.810678184E-1
3.738423500E0;2.661627159E-2;-3.146043301E0;3.811450005E-1
3.750334437E0;-4.790928960E-2;-2.620105743E0;4.737696350E-1
3.762246937E0;-3.406882659E-2;-2.145271540E0;4.993212521E-1
3.774157875E0;1.277581006E-1;-2.014319420E0;4.556705654E-1
3.786070375E0;2.288999259E-1;-2.100556135E0;4.247956872E-1
3.797981312E0;2.139948159E-1;-2.188922167E0;3.673045337E-1
3.809898500E0;1.980250627E-1;-2.304969072E0;3.875329196E-1
3.821804750E0;1.565036774E-1;-2.203827143E0;3.971147537E-1
3.833715687E0;1.788613349E-1;-1.972797990E0;4.450240433E-1
3.845628187E0;1.788613349E-1;-1.693859458E0;3.896622062E-1
3.857539125E0;2.746799290E-1;-1.544808388E0;4.109552205E-1
3.869450062E0;3.162012994E-1;-1.330813527E0;3.502701223E-1
3.881362562E0;3.268478215E-1;-1.203055501E0;2.778738737E-1
3.893273500E0;3.438822329E-1;-1.261611223E0;1.298874021E-1
3.905184437E0;4.375714958E-1;-1.453248382E0;-2.981022373E-2
3.917096937E0;6.515663266E-1;-1.823746920E0;-2.054776102E-1
3.929007875E0;7.718718648E-1;-2.068616629E0;-2.810678184E-1
3.940920375E0;7.569667697E-1;-2.177211046E0;-2.597748041E-1
3.952831312E0;6.238853931E-1;-2.062228680E0;-2.182534188E-1
3.964743812E0;5.238082409E-1;-1.880173326E0;-2.597748041E-1
3.976654750E0;4.993212521E-1;-1.721540451E0;-2.704213262E-1
3.988565687E0;4.503473043E-1;-1.591652989E0;-3.704984784E-1
4.000486000E0;5.280668139E-1;-1.886561275E0;-3.044901490E-1
4.012389125E0;4.684463739E-1;-1.845039964E0;-3.225892186E-1
4.024301625E0;3.747570813E-1;-1.577812552E0;-2.757445574E-1
4.036212562E0;3.683691919E-1;-1.304197311E0;-3.715631366E-1
4.048123500E0;4.833514690E-1;-1.148758292E0;-6.015277505E-1
4.060036000E0;7.984881401E-1;-1.220089912E0;-7.910355926E-1
4.071946937E0;1.178568482E0;-1.312714458E0;-7.250272036E-1
4.083859437E0;1.514998198E0;-1.088073134E0;-3.215245605E-1
4.095770375E0;1.645950198E0;-6.749886274E-1;7.346090674E-2
4.107701625E0;1.622527838E0;-4.301189482E-1;1.990897059E-1
4.119593812E0;1.439407945E0;-3.321710527E-1;2.086715698E-1
4.131504750E0;1.172180533E0;-5.195496082E-1;2.842617631E-1
4.143417250E0;1.048681021E0;-9.730908871E-1;1.277581006E-1
4.155328187E0;9.762848020E-1;-1.342524767E0;-2.129301615E-2
4.167240687E0;1.017806172E0;-1.483058572E0;-1.628915817E-1
4.179151625E0;9.869313240E-1;-1.386175394E0;-2.778738737E-1
4.191062562E0;8.708843589E-1;-1.156210780E0;-4.599291682E-1
4.202975062E0;7.090574503E-1;-1.002901077E0;-6.451784372E-1
4.214886000E0;4.258603454E-1;-8.772723079E-1;-8.857895136E-1
4.226798500E0;2.288999259E-1;-7.058635354E-1;-1.002901077E0
4.238709437E0;1.628915817E-1;-5.653296113E-1;-9.975778461E-1
4.250634437E0;2.310292274E-1;-4.162784815E-1;-9.060178399E-1
4.262532875E0;3.694338500E-1;-3.002315462E-1;-7.857123017E-1
4.274445375E0;4.609938264E-1;-2.597748041E-1;-6.366612315E-1
4.286357875E0;3.417529166E-1;-7.771950960E-2;-5.238082409E-1
4.298267250E0;2.022836655E-1;4.790928960E-2;-4.109552205E-1
4.310179750E0;6.813765317E-2;1.320167035E-1;-3.066194355E-1
4.322090687E0;-3.619812801E-2;2.129301727E-1;-2.555162013E-1
4.334003187E0;-6.707300246E-2;2.512575984E-1;-2.672273517E-1
4.345914125E0;-1.916371472E-2;1.394692659E-1;-2.810678184E-1
4.357825062E0;2.235766686E-2;-1.916371472E-2;-2.544515431E-1
4.369737562E0;9.581857920E-2;-1.852492392E-1;-2.512575984E-1
4.381648500E0;2.076069117E-1;-2.523222566E-1;-2.523222566E-1
4.393561000E0;3.619812727E-1;-1.820552945E-1;-2.193180770E-1
4.405471937E0;5.355193615E-1;-5.536184460E-2;-1.426632106E-1
4.417386000E0;7.101221085E-1;1.628915817E-1;-4.365068302E-2
4.429301625E0;7.750658393E-1;3.960501254E-1;8.091346174E-2
4.441206312E0;7.165099978E-1;4.727049768E-1;1.501157731E-1
4.453118812E0;5.376486778E-1;4.897393882E-1;7.878416032E-2
4.465029750E0;3.566580415E-1;5.333900452E-1;-2.448697016E-2
4.476940687E0;2.033483088E-1;6.281439662E-1;-5.429719388E-2
4.488853187E0;1.330813617E-1;7.527081370E-1;-6.281439960E-2
4.500764125E0;1.203055456E-1;8.442681432E-1;-7.133160532E-2
4.512676625E0;1.522450745E-1;8.346862793E-1;-7.771950960E-2
4.524587562E0;1.362753063E-1;7.111867666E-1;-9.155996889E-2
4.536498500E0;1.426632106E-1;6.515663266E-1;-1.309520602E-1
4.548411000E0;1.852492392E-1;7.601606846E-1;-1.501157731E-1
4.560321937E0;2.225120217E-1;8.772723079E-1;-1.724734306E-1
4.572234437E0;1.990897059E-1;8.676904440E-1;-2.065422684E-1
4.584145375E0;1.746027321E-1;5.727821589E-1;-2.235766798E-1
4.596056312E0;1.181762442E-1;3.140719831E-1;-2.065422684E-1
4.607971937E0;8.836601675E-2;1.756673902E-1;-2.033483088E-1
4.619879750E0;1.437278688E-1;9.794788063E-2;-2.416757345E-1
4.631792250E0;1.128529906E-1;1.799259931E-1;-2.406110913E-1
4.643703187E0;6.387905031E-2;1.490511149E-1;-2.097362131E-1
4.655614125E0;-1.916371472E-2;-2.555162087E-2;-1.543743759E-1
4.667526625E0;-1.501157731E-1;-2.406110913E-1;-9.155996889E-2
4.679439125E0;-2.416757345E-1;-3.460115194E-1;-2.342231758E-2
4.691350062E0;-2.597748041E-1;-3.502701223E-1;5.216789246E-2
4.703261000E0;-1.969604045E-1;-2.736152709E-1;5.749114603E-2
4.715173500E0;-9.901253134E-2;-1.863138974E-1;2.342231758E-2
4.727084437E0;7.452555932E-3;-1.469218135E-1;-3.406882659E-2
4.738995375E0;1.330813617E-1;-1.639562249E-1;-6.813765317E-2
4.750907875E0;2.565808594E-1;-2.182534188E-1;-7.239625603E-2
4.762820375E0;2.682920098E-1;-2.320938855E-1;-2.874557301E-2
4.774731312E0;2.076069117E-1;-2.033483088E-1;-1.064650808E-2
4.786642250E0;1.596976221E-1;-1.181762442E-1;-1.916371472E-2
4.798559437E0;1.426632106E-1;1.256287992E-1;-8.943066746E-2
4.810465687E0;1.543743759E-1;4.237310290E-1;-2.225120217E-1
4.822378187E0;1.437278688E-1;6.611481905E-1;-2.533869147E-1
4.834289125E0;8.091346174E-2;8.442681432E-1;-2.012190074E-1
4.846200062E0;-5.323254317E-2;9.294402003E-1;-8.943066746E-2
4.858112562E0;-3.396236300E-1;1.038034558E0;-1.181762442E-1
4.870023500E0;-5.312607884E-1;6.781826019E-1;-1.224348471E-1
4.881942250E0;-7.527081370E-1;2.927789688E-1;-6.920230389E-2
4.893851625E0;-8.591732383E-1;4.684463516E-2;-9.475392103E-2
4.905757875E0;-8.112639189E-1;-1.458571702E-1;-1.277581006E-1
4.917670375E0;-7.111867666E-1;-1.596976221E-1;-1.256287992E-1
4.929581312E0;-5.781053901E-1;-5.110324174E-2;-1.373399645E-1
4.941493812E0;-5.003858805E-1;1.277581006E-1;-1.415985674E-1
4.953404750E0;-5.089030862E-1;3.162012994E-1;-1.575683206E-1
4.965315687E0;-6.143035293E-1;4.684463739E-1;-2.001543641E-1
4.977228187E0;-7.314151525E-1;4.758989215E-1;-2.491282970E-1
4.989139125E0;-8.336216211E-1;4.024380147E-1;-2.917143404E-1
5.001057875E0;-8.751429915E-1;3.332357109E-1;-2.863910794E-1
5.012962562E0;-8.996299505E-1;2.619041204E-1;-2.491282970E-1
5.024873500E0;-9.571211338E-1;9.794788063E-2;-1.948311031E-1
5.036786000E0;-1.058262944E0;-8.943066746E-2;-1.458571702E-1
5.048696937E0;-1.193473577E0;-2.991668880E-1;-1.288227588E-1
5.060615687E0;-1.296744704E0;-3.609166443E-1;-1.320167035E-1
5.072523500E0;-1.357429862E0;-3.470761776E-1;-1.501157731E-1
5.084431312E0;-1.382981420E0;-2.193180770E-1;-1.501157731E-1
5.096343812E0;-1.369140983E0;-4.258603230E-2;-1.181762442E-1
5.108254750E0;-1.290356874E0;1.330813617E-1;-6.281439960E-2
5.120179750E0;-1.192408919E0;2.661627233E-1;-6.387905218E-3
5.132086000E0;-1.091267109E0;2.874557376E-1;6.707300246E-2
5.143989125E0;-9.507331848E-1;1.415985674E-1;1.405339092E-1
5.155901625E0;-7.697425485E-1;-2.874557301E-2;1.863138974E-1
5.167814125E0;-6.025923491E-1;-1.927018017E-1;2.310292274E-1
5.179757875E0;-4.769635797E-1;-3.076840937E-1;2.725506127E-1
5.191637562E0;-3.822096586E-1;-3.534640670E-1;3.087487519E-1
5.203548500E0;-3.268478215E-1;-3.066194355E-1;3.151366413E-1
5.215459437E0;-2.736152709E-1;-1.777966917E-1;3.066194355E-1
5.227371937E0;-2.118655145E-1;-5.110324174E-2;2.949082851E-1
5.239282875E0;-1.543743759E-1;1.596976258E-2;3.087487519E-1
5.251195375E0;-6.707300246E-2;5.216789246E-2;3.247185051E-1
5.263106312E0;2.448697016E-2;7.878416032E-2;3.257831633E-1
5.275017250E0;1.064650863E-1;1.341460049E-1;3.108780384E-1
5.286929750E0;1.628915817E-1;1.788613349E-1;2.917143404E-1
5.298840687E0;2.033483088E-1;1.884431988E-1;2.938436270E-1
5.310753187E0;2.257059813E-1;1.533097178E-1;3.140719831E-1
5.322664125E0;2.395464331E-1;8.197811246E-2;3.481408358E-1
5.334575062E0;2.491282970E-1;2.768092230E-2;3.758217394E-1
5.346487562E0;2.416757345E-1;3.939208016E-2;3.747570813E-1
5.358423500E0;2.267706245E-1;9.262461960E-2;3.545287251E-1
5.370311000E0;1.948311031E-1;1.777966917E-1;3.321710527E-1
5.382231312E0;1.522450745E-1;2.959729433E-1;3.066194355E-1
5.394134437E0;1.277581006E-1;4.428947568E-1;2.927789688E-1
5.406045375E0;1.256287992E-1;6.664714217E-1;2.661627233E-1
5.417956312E0;1.213701963E-1;8.357509375E-1;2.459343374E-1
5.429868812E0;1.085943878E-1;9.347634315E-1;2.331585288E-1
5.441779750E0;7.559020817E-2;9.848020077E-1;2.171887755E-1
5.453695375E0;7.771950960E-2;9.645736814E-1;1.916371584E-1
5.465603187E0;1.022064835E-1;9.358280897E-1;1.767320335E-1
5.477542250E0;1.298874021E-1;8.985652924E-1;1.671501845E-1
5.489426625E0;1.320167035E-1;8.559792638E-1;1.437278688E-1
5.501337562E0;1.277581006E-1;8.282983303E-1;1.085943878E-1
5.513250062E0;1.352106631E-1;8.527853489E-1;4.684463516E-2
5.525161000E0;1.692794859E-1;8.996299505E-1;-2.235766686E-2
5.537071937E0;2.108008713E-1;9.070824981E-1;-7.665485889E-2
5.548986000E0;2.629687488E-1;8.857895136E-1;-1.373399645E-1
5.560895375E0;3.247185051E-1;8.219104409E-1;-1.884431988E-1
5.572806312E0;3.917915225E-1;7.005402446E-1;-2.097362131E-1
5.584718812E0;4.727049768E-1;5.525537729E-1;-2.108008713E-1
5.596629750E0;5.451012254E-1;4.407654405E-1;-1.916371584E-1
5.608545375E0;5.951398015E-1;3.758217394E-1;-1.586329788E-1
5.620453187E0;5.908812284E-1;3.396236300E-1;-1.309520602E-1
5.632364125E0;5.227435827E-1;2.693566680E-1;-1.224348471E-1
5.644276625E0;4.343775511E-1;1.831199378E-1;-1.298874021E-1
5.656190687E0;3.726277947E-1;1.213701963E-1;-1.373399645E-1
5.668100062E0;3.513347805E-1;1.043357849E-1;-1.213701963E-1
5.680011000E0;3.662398756E-1;1.117883399E-1;-8.304276317E-2
5.691923500E0;4.003087282E-1;1.277581006E-1;-5.323254317E-2
5.703834437E0;4.535412490E-1;1.394692659E-1;-2.448697016E-2
5.715746937E0;4.822868407E-1;1.479864717E-1;4.258603323E-3
5.727657875E0;4.844161272E-1;1.916371584E-1;3.619812801E-2
5.739581312E0;4.748342633E-1;2.629687488E-1;6.920230389E-2
5.751481312E0;4.567352235E-1;3.311064243E-1;7.771950960E-2
5.763392250E0;4.333128929E-1;3.587873280E-1;6.068509817E-2
5.775332875E0;4.162784815E-1;3.353650272E-1;5.003859103E-2
5.787215687E0;4.194724262E-1;2.650980651E-1;5.642649531E-2
5.799128187E0;4.503473043E-1;1.575683206E-1;7.133160532E-2
5.811039125E0;4.812221825E-1;4.790928960E-2;7.665485889E-2
5.822951625E0;4.886747301E-1;-9.049531817E-2;5.216789246E-2
5.834865687E0;4.535412490E-1;-1.958957613E-1;5.323254038E-3
5.846778187E0;3.971147537E-1;-2.587101460E-1;-5.749114603E-2
5.858686000E0;3.609166443E-1;-2.682920098E-1;-1.075297371E-1
5.870596937E0;3.619812727E-1;-2.640334070E-1;-1.384046078E-1
5.882507875E0;3.949854672E-1;-2.374171317E-1;-1.405339092E-1
5.894425062E0;4.439594150E-1;-1.820552945E-1;-1.245641485E-1
5.906332875E0;4.865454435E-1;-8.943066746E-2;-9.155996889E-2
5.918242250E0;4.886747301E-1;5.003859103E-2;-6.068509817E-2
5.930154750E0;4.301189482E-1;1.895078421E-1;-3.619812801E-2
5.942067250E0;3.183306158E-1;2.565808594E-1;-2.448697016E-2
5.953979750E0;2.033483088E-1;2.406110913E-1;-2.022836544E-2
5.965889125E0;8.943066746E-2;1.809906363E-1;-1.064650808E-2
5.977801625E0;3.406882659E-2;1.181762442E-1;-8.517206647E-3
5.989712562E0;2.235766686E-2;7.346090674E-2;-9.581857361E-3
6.001623500E0;4.790928960E-2;6.920230389E-2;-1.703441329E-2
6.013537562E0;9.794788063E-2;1.054004356E-1;-2.768092230E-2
6.025448500E0;1.469218135E-1;1.341460049E-1;-4.152138159E-2
6.037357875E0;1.767320335E-1;1.415985674E-1;-6.813765317E-2
6.049270375E0;1.799259931E-1;1.128529906E-1;-8.836601675E-2
6.061181312E0;1.586329788E-1;7.984881103E-2;-1.000771821E-1
6.073095375E0;1.309520602E-1;8.091346174E-2;-1.043357849E-1
6.085004750E0;1.011418328E-1;1.309520602E-1;-1.054004356E-1
6.096917250E0;7.878416032E-2;1.714087874E-1;-9.581857920E-2
6.108828187E0;5.749114603E-2;1.724734306E-1;-8.197811246E-2
6.120739125E0;4.684463516E-2;1.415985674E-1;-6.920230389E-2
6.132654750E0;4.897394031E-2;1.288227588E-1;-5.855579674E-2
6.144568812E0;6.494370103E-2;1.203055456E-1;-4.897394031E-2
6.156475062E0;8.836601675E-2;1.096590385E-1;-4.577998444E-2
6.168386000E0;1.085943878E-1;1.266934574E-1;-4.152138159E-2
6.180298500E0;1.203055456E-1;1.554390192E-1;-3.832742944E-2
6.192209437E0;1.075297371E-1;1.458571702E-1;-3.513347730E-2
6.204121937E0;7.452555746E-2;1.032711342E-1;-3.087487444E-2
6.216032875E0;4.471533373E-2;5.003859103E-2;-2.768092230E-2
6.227943812E0;2.874557301E-2;7.452555932E-3;-2.555162087E-2
6.239856312E0;3.087487444E-2;-1.171115879E-2;-2.555162087E-2
6.251771937E0;3.832742944E-2;-1.490511186E-2;-2.981022373E-2
6.263679750E0;5.642649531E-2;-1.277581044E-2;-3.087487444E-2
6.275590687E0;7.984881103E-2;-9.581857361E-3;-2.874557301E-2
6.287503187E0;9.901253134E-2;-4.258603323E-3;-2.129301615E-2
6.299414125E0;1.011418328E-1;-4.258603323E-3;-2.768092230E-2
6.311326625E0;8.410741389E-2;-3.193952609E-3;-3.300417587E-2
6.323251625E0;5.323254317E-2;6.387905218E-3;-3.513347730E-2
6.335148500E0;2.448697016E-2;2.022836544E-2;-3.726277873E-2
6.347061000E0;7.452555932E-3;3.300417587E-2;-3.300417587E-2
6.358971937E0;3.193952609E-3;4.897394031E-2;-2.022836544E-2
6.370889125E0;2.129301662E-3;5.536184460E-2;-1.277581044E-2
6.382795375E0;2.129301662E-3;4.790928960E-2;-1.064650808E-2
6.394706312E0;9.581857361E-3;3.726277873E-2;-8.517206647E-3
6.406625062E0;2.129301615E-2;4.684463516E-2;-7.452555932E-3
6.418529750E0;2.661627159E-2;5.429719388E-2;-8.517206647E-3
6.430440687E0;2.342231758E-2;4.577998444E-2;-7.452555932E-3
6.442353187E0;2.022836544E-2;3.087487444E-2;-2.129301662E-3
6.454264125E0;2.981022373E-2;1.596976258E-2;8.517206647E-3
6.466176625E0;2.981022373E-2;0.000000000E0;1.384046115E-2
6.478087562E0;3.300417587E-2;-1.277581044E-2;1.809906401E-2
6.490000062E0;4.790928960E-2;-1.703441329E-2;2.661627159E-2
6.501912562E0;6.813765317E-2;-3.406882659E-2;2.448697016E-2
6.513821937E0;7.452555746E-2;-6.494370103E-2;2.768092230E-2
6.525734437E0;6.387905031E-2;-8.517206460E-2;2.661627159E-2
6.537645375E0;4.471533373E-2;-8.304276317E-2;2.661627159E-2
6.549557875E0;2.555162087E-2;-7.559020817E-2;2.448697016E-2
6.561471937E0;9.581857361E-3;-5.855579674E-2;2.342231758E-2
6.573379750E0;0.000000000E0;-5.429719388E-2;1.703441329E-2
6.585292250E0;-1.277581044E-2;-7.133160532E-2;1.384046115E-2
6.597204750E0;-1.596976258E-2;-9.262461960E-2;1.277581044E-2
6.609114125E0;-7.452555932E-3;-1.064650863E-1;1.384046115E-2
6.621029750E0;2.129301662E-3;-1.022064835E-1;2.022836544E-2
6.632937562E0;1.277581044E-2;-8.943066746E-2;2.555162087E-2
6.644850062E0;1.809906401E-2;-8.304276317E-2;2.874557301E-2
6.656761000E0;1.596976258E-2;-9.688322991E-2;4.152138159E-2
6.668676625E0;1.596976258E-2;-1.234994978E-1;5.003859103E-2
6.680584437E0;-3.193952609E-3;-1.352106631E-1;4.577998444E-2
6.692496937E0;-2.768092230E-2;-1.234994978E-1;3.406882659E-2
6.704407875E0;-4.684463516E-2;-1.000771821E-1;2.555162087E-2
6.716318812E0;-5.216789246E-2;-8.836601675E-2;3.619812801E-2
6.728231312E0;-5.749114603E-2;-9.475392103E-2;5.323254317E-2
6.740143812E0;-6.813765317E-2;-9.688322991E-2;6.387905031E-2
6.752054750E0;-7.346090674E-2;-9.688322991E-2;5.962044746E-2
6.763965687E0;-7.133160532E-2;-1.149822921E-1;5.749114603E-2
6.775878187E0;-7.026695460E-2;-1.266934574E-1;5.216789246E-2
6.787789125E0;-6.707300246E-2;-1.394692659E-1;4.577998444E-2
6.799703187E0;-5.962044746E-2;-1.352106631E-1;5.536184460E-2
6.811612562E0;-5.216789246E-2;-1.245641485E-1;7.133160532E-2
6.823523500E0;-5.429719388E-2;-1.213701963E-1;8.517206460E-2
6.835436000E0;-7.133160532E-2;-1.330813617E-1;9.581857920E-2
6.847346937E0;-9.901253134E-2;-1.575683206E-1;9.794788063E-2
6.859257875E0;-1.224348471E-1;-1.756673902E-1;9.794788063E-2
6.871170375E0;-1.415985674E-1;-1.927018017E-1;1.022064835E-1
6.883082875E0;-1.458571702E-1;-2.065422684E-1;1.032711342E-1
6.894993812E0;-1.352106631E-1;-2.203827202E-1;9.901253134E-2
6.906904750E0;-1.181762442E-1;-2.374171317E-1;9.049531817E-2
6.918817250E0;-1.011418328E-1;-2.576455176E-1;8.304276317E-2
6.930728187E0;-8.197811246E-2;-2.863910794E-1;7.026695460E-2
6.942639125E0;-6.494370103E-2;-3.247185051E-1;5.855579674E-2
6.954551625E0;-4.897394031E-2;-3.481408358E-1;5.110324174E-2
6.966468812E0;-4.365068302E-2;-3.396236300E-1;4.577998444E-2
6.978378187E0;-4.152138159E-2;-3.385589719E-1;4.790928960E-2
6.990286000E0;-5.110324174E-2;-3.577226698E-1;4.365068302E-2
7.002196937E0;-6.068509817E-2;-3.790156841E-1;4.471533373E-2
7.014109437E0;-6.281439960E-2;-3.683691919E-1;4.471533373E-2
7.026036000E0;-6.920230389E-2;-3.321710527E-1;5.749114603E-2
7.037931312E0;-9.794788063E-2;-2.906496823E-1;6.707300246E-2
7.049843812E0;-1.596976221E-1;-2.544515431E-1;7.665485889E-2
7.061754750E0;-2.288999259E-1;-2.257059813E-1;7.452555746E-2
7.073667250E0;-2.757445574E-1;-2.054776102E-1;7.133160532E-2
7.085578187E0;-3.012961745E-1;-2.246413231E-1;6.387905031E-2
7.097489125E0;-3.034254909E-1;-2.459343374E-1;5.323254317E-2
7.109401625E0;-2.778738737E-1;-2.299645841E-1;4.577998444E-2
7.121312562E0;-2.203827202E-1;-1.820552945E-1;4.258603230E-2
7.133225062E0;-1.543743759E-1;-1.330813617E-1;4.577998444E-2
7.145142250E0;-1.117883399E-1;-1.458571702E-1;5.749114603E-2
7.157048500E0;-1.043357849E-1;-2.086715698E-1;6.813765317E-2
7.168959437E0;-1.096590385E-1;-2.768092155E-1;8.304276317E-2
7.180871937E0;-1.341460049E-1;-3.311064243E-1;8.410741389E-2
7.192782875E0;-1.628915817E-1;-3.683691919E-1;7.239625603E-2
7.204693812E0;-1.863138974E-1;-3.854036033E-1;5.855579674E-2
7.216606312E0;-1.895078421E-1;-3.907268643E-1;5.429719388E-2
7.228517250E0;-1.948311031E-1;-4.003087282E-1;5.536184460E-2
7.240429750E0;-2.065422684E-1;-4.098905623E-1;5.216789246E-2
7.252340687E0;-2.182534188E-1;-4.365068376E-1;6.494370103E-2
7.264251625E0;-2.246413231E-1;-4.737696350E-1;8.197811246E-2
7.276168812E0;-2.267706245E-1;-5.078384280E-1;9.262461960E-2
7.288076625E0;-2.257059813E-1;-5.568124056E-1;1.000771821E-1
7.299987562E0;-2.257059813E-1;-6.100449562E-1;1.022064835E-1
7.311898500E0;-2.182534188E-1;-7.058635354E-1;9.049531817E-2
7.323825062E0;-2.171887755E-1;-7.984881401E-1;7.984881103E-2
7.335725062E0;-2.129301727E-1;-8.783369660E-1;6.387905031E-2
7.347632875E0;-2.235766798E-1;-8.836601973E-1;2.235766686E-2
7.359545375E0;-2.491282970E-1;-8.208457828E-1;-1.596976258E-2
7.371456312E0;-2.821324766E-1;-7.367383838E-1;-5.962044746E-2
7.383368812E0;-3.225892186E-1;-6.505016685E-1;-9.049531817E-2
7.395279750E0;-3.673045337E-1;-5.546830893E-1;-1.064650863E-1
7.407192250E0;-4.077612758E-1;-4.673817158E-1;-1.022064835E-1
7.419103187E0;-4.567352235E-1;-3.949854672E-1;-9.155996889E-2
7.431014125E0;-5.120970607E-1;-3.513347805E-1;-8.517206460E-2
7.442926625E0;-5.770407319E-1;-3.236538470E-1;-8.197811246E-2
7.454839125E0;-6.664714217E-1;-3.172659576E-1;-7.452555746E-2
7.466748500E0;-7.708072066E-1;-3.130073547E-1;-7.026695460E-2
7.478661000E0;-8.570439219E-1;-2.991668880E-1;-6.813765317E-2
7.490571937E0;-9.326341152E-1;-2.810678184E-1;-5.855579674E-2
7.502484437E0;-9.645736814E-1;-2.757445574E-1;-4.365068302E-2
7.514395375E0;-9.613797069E-1;-2.736152709E-1;-3.513347730E-2
7.526306312E0;-9.496685266E-1;-2.768092155E-1;-3.832742944E-2
7.538218812E0;-9.411513209E-1;-3.076840937E-1;-4.684463516E-2
7.550129750E0;-9.305048585E-1;-3.396236300E-1;-6.494370103E-2
7.562051625E0;-9.060178399E-1;-3.768863976E-1;-9.262461960E-2
7.573953187E0;-8.751429915E-1;-4.194724262E-1;-1.107236892E-1
7.585864125E0;-8.240397573E-1;-4.684463739E-1;-1.171115935E-1
7.597776625E0;-7.740011811E-1;-5.089030862E-1;-1.213701963E-1
7.609687562E0;-7.228979468E-1;-5.621356368E-1;-1.203055456E-1
7.621600062E0;-6.717946529E-1;-5.844933391E-1;-1.171115935E-1
7.633511000E0;-5.962044597E-1;-5.525537729E-1;-1.064650863E-1
7.645421937E0;-4.886747301E-1;-4.982565939E-1;-8.410741389E-2
7.657334437E0;-3.800803423E-1;-4.386361539E-1;-5.962044746E-2
7.669246937E0;-3.279124498E-1;-3.971147537E-1;-3.087487444E-2
7.681157875E0;-3.257831633E-1;-3.875329196E-1;3.193952609E-3
7.693070375E0;-3.236538470E-1;-3.843389452E-1;3.513347730E-2
7.704981312E0;-2.991668880E-1;-3.715631366E-1;7.452555746E-2
7.716892250E0;-2.480636388E-1;-3.577226698E-1;1.171115935E-1
7.728804750E0;-1.916371584E-1;-3.502701223E-1;1.522450745E-1
7.740715687E0;-1.458571702E-1;-3.364296556E-1;1.735380888E-1
7.752629750E0;-1.054004356E-1;-2.991668880E-1;2.150594741E-1
7.764542250E0;-8.410741389E-2;-2.565808594E-1;2.491282970E-1
7.776450062E0;-7.346090674E-2;-2.225120217E-1;2.757445574E-1
7.788362562E0;-6.494370103E-2;-2.246413231E-1;2.917143404E-1
7.800276625E0;-4.152138159E-2;-2.320938855E-1;3.023608327E-1
7.812192250E0;5.323254038E-3;-2.108008713E-1;3.044901490E-1
7.824096937E0;5.536184460E-2;-1.703441292E-1;3.023608327E-1
7.836012562E0;9.262461960E-2;-1.426632106E-1;3.066194355E-1
7.847920375E0;9.794788063E-2;-1.522450745E-1;3.034254909E-1
7.859831312E0;8.517206460E-2;-1.682148278E-1;2.863910794E-1
7.871743812E0;7.026695460E-2;-1.756673902E-1;2.608394623E-1
7.883654750E0;6.068509817E-2;-1.692794859E-1;2.448696941E-1
7.895565687E0;6.707300246E-2;-1.692794859E-1;2.395464331E-1
7.907478187E0;8.730136603E-2;-1.543743759E-1;2.469989955E-1
7.919389125E0;1.128529906E-1;-1.117883399E-1;2.555162013E-1
7.931303187E0;1.394692659E-1;-7.133160532E-2;2.608394623E-1
7.943212562E0;1.575683206E-1;-3.193952516E-2;2.608394623E-1
7.955123500E0;1.682148278E-1;1.171115879E-2;2.459343374E-1
7.967036000E0;1.639562249E-1;5.749114603E-2;2.193180770E-1
7.978970375E0;1.575683206E-1;1.117883399E-1;1.927018017E-1
7.990859437E0;1.511804163E-1;1.692794859E-1;1.660855263E-1
8.002775062E0;1.543743759E-1;2.299645841E-1;1.384046078E-1
8.014681312E0;1.639562249E-1;2.661627233E-1;1.203055456E-1
8.026603187E0;1.799259931E-1;2.981022298E-1;1.022064835E-1
8.038504750E0;1.895078421E-1;3.162012994E-1;9.155996889E-2
8.050415687E0;1.958957613E-1;3.449468613E-1;7.346090674E-2
8.062328187E0;1.948311031E-1;3.907268643E-1;4.365068302E-2
8.074239125E0;1.831199378E-1;4.301189482E-1;1.384046115E-2
8.086151625E0;1.575683206E-1;4.162784815E-1;-7.452555932E-3
8.098062562E0;1.181762442E-1;3.502701223E-1;1.064650831E-3
8.109975062E0;6.813765317E-2;2.523222566E-1;6.387905218E-3
8.121886000E0;3.726277873E-2;1.980250627E-1;4.258603323E-3
8.133796937E0;1.171115879E-2;2.033483088E-1;-2.129301615E-2
8.145709437E0;-1.171115879E-2;2.171887755E-1;-3.832742944E-2
8.157621937E0;-4.258603230E-2;2.257059813E-1;-5.642649531E-2
8.169532875E0;-1.213701963E-1;2.299645841E-1;-6.920230389E-2
8.181443812E0;-2.012190074E-1;2.427403927E-1;-7.665485889E-2
8.193356312E0;-2.906496823E-1;2.885203660E-1;-1.107236892E-1
8.205267250E0;-3.492054641E-1;3.396236300E-1;-1.554390192E-1
8.217182875E0;-3.662398756E-1;3.843389452E-1;-1.884431988E-1
8.229090687E0;-3.577226698E-1;3.864682615E-1;-2.065422684E-1
8.241003187E0;-3.609166443E-1;3.417529166E-1;-2.257059813E-1
8.252914125E0;-3.907268643E-1;2.576455176E-1;-2.512575984E-1
8.264825062E0;-4.247956872E-1;1.341460049E-1;-2.693566680E-1
8.276740687E0;-4.397007823E-1;1.916371472E-2;-2.661627233E-1
8.288651625E0;-4.258603454E-1;-3.939208016E-2;-2.576455176E-1
8.300561000E0;-3.843389452E-1;-6.281439960E-2;-2.427403927E-1
8.312478187E0;-3.406882584E-1;-7.665485889E-2;-2.310292274E-1
8.324384437E0;-3.140719831E-1;-1.618269235E-1;-2.065422684E-1
8.336295375E0;-3.215245605E-1;-2.682920098E-1;-1.905725002E-1
8.348206312E0;-3.470761776E-1;-3.502701223E-1;-1.799259931E-1
8.360118812E0;-3.609166443E-1;-3.449468613E-1;-1.724734306E-1
8.372029750E0;-3.406882584E-1;-2.821324766E-1;-1.756673902E-1
8.383942250E0;-3.044901490E-1;-1.927018017E-1;-1.969604045E-1
8.395859437E0;-2.768092155E-1;-1.149822921E-1;-2.086715698E-1
8.407764125E0;-2.544515431E-1;-7.346090674E-2;-2.182534188E-1
8.419676625E0;-2.352878302E-1;-3.832742944E-2;-2.267706245E-1
8.431587562E0;-2.150594741E-1;-8.517206647E-3;-2.395464331E-1
8.443500062E0;-1.841845959E-1;4.577998444E-2;-2.587101460E-1
8.455421937E0;-1.447925121E-1;1.107236892E-1;-2.693566680E-1
8.467323500E0;-1.011418328E-1;2.012190074E-1;-2.672273517E-1
8.479234437E0;-6.174974889E-2;2.725506127E-1;-2.746799290E-1
8.491145375E0;-4.471533373E-2;3.055547774E-1;-2.927789688E-1
8.503056312E0;-3.939208016E-2;2.895850241E-1;-3.108780384E-1
8.514968812E0;-4.684463516E-2;2.608394623E-1;-3.012961745E-1
8.526886000E0;-4.258603230E-2;2.310292274E-1;-2.778738737E-1
8.538792250E0;-2.448697016E-2;1.916371584E-1;-2.523222566E-1
8.550711000E0;-6.387905218E-3;1.682148278E-1;-2.310292274E-1
8.562615687E0;-2.129301615E-2;1.650208831E-1;-2.150594741E-1
8.574526625E0;-5.536184460E-2;1.639562249E-1;-1.969604045E-1
8.586443812E0;-9.155996889E-2;1.352106631E-1;-1.767320335E-1
8.598350062E0;-1.203055456E-1;4.365068302E-2;-1.554390192E-1
8.610267250E0;-1.767320335E-1;-2.278352827E-1;-1.213701963E-1
8.622173500E0;-2.182534188E-1;-4.971919358E-1;-7.452555746E-2
8.634089125E0;-2.108008713E-1;-4.908040464E-1;-2.874557301E-2
8.645995375E0;-2.012190074E-1;-1.905725002E-1;-4.258603323E-3
8.657907875E0;-2.086715698E-1;1.277581006E-1;-2.768092230E-2
8.669818812E0;-2.374171317E-1;3.236538470E-1;-6.813765317E-2
8.681731312E0;-2.395464331E-1;2.927789688E-1;-1.043357849E-1
8.693642250E0;-1.980250627E-1;9.901253134E-2;-1.277581006E-1
8.705559437E0;-1.735380888E-1;-1.213701963E-1;-1.288227588E-1
8.717465687E0;-2.203827202E-1;-1.895078421E-1;-8.730136603E-2
8.729376625E0;-2.885203660E-1;-2.342231758E-2;-3.832742944E-2
8.741289125E0;-2.821324766E-1;1.447925121E-1;1.171115879E-2
8.753211000E0;-1.937664598E-1;1.341460049E-1;7.026695460E-2
8.765112562E0;-1.213701963E-1;7.026695460E-2;1.298874021E-1
8.777023500E0;-9.688322991E-2;1.703441329E-2;1.703441292E-1
8.788936000E0;-1.107236892E-1;2.981022373E-2;1.618269235E-1
8.800846937E0;-1.330813617E-1;8.304276317E-2;9.155996889E-2
8.812765687E0;-1.479864717E-1;1.075297371E-1;1.596976258E-2
8.824670375E0;-1.682148278E-1;6.920230389E-2;-6.281439960E-2
8.836581312E0;-1.799259931E-1;-2.555162087E-2;-1.213701963E-1
8.848493812E0;-1.863138974E-1;-1.266934574E-1;-1.352106631E-1
8.860404750E0;-1.841845959E-1;-2.076069117E-1;-9.581857920E-2
8.872318812E0;-1.533097178E-1;-2.438050359E-1;-4.258603230E-2
8.884228187E0;-1.192408949E-1;-2.118655145E-1;4.258603323E-3
8.896139125E0;-1.054004356E-1;-1.405339092E-1;3.300417587E-2
8.908051625E0;-1.075297371E-1;-6.707300246E-2;2.661627159E-2
8.919962562E0;-1.011418328E-1;-1.809906401E-2;4.258603323E-3
8.931890687E0;-9.901253134E-2;2.448697016E-2;-1.596976258E-2
8.943786000E0;-8.836601675E-2;2.874557301E-2;-2.448697016E-2
8.955700062E0;-5.642649531E-2;2.448697016E-2;-7.452555932E-3
8.967609437E0;-2.129301662E-3;3.406882659E-2;1.064650808E-2
8.979520375E0;4.258603230E-2;5.642649531E-2;2.342231758E-2
8.991439125E0;8.091346174E-2;1.107236892E-1;2.555162087E-2
9.003350062E0;1.032711342E-1;1.703441292E-1;2.129301615E-2
9.015254750E0;1.171115935E-1;2.086715698E-1;1.809906401E-2
9.027167250E0;1.245641485E-1;2.150594741E-1;2.448697016E-2
9.039078187E0;1.384046078E-1;1.618269235E-1;4.365068302E-2
9.051026625E0;1.437278688E-1;8.623671532E-2;6.600835174E-2
9.062901625E0;1.575683206E-1;3.619812801E-2;7.984881103E-2
9.074812562E0;1.820552945E-1;-5.323254038E-3;9.155996889E-2
9.086725062E0;2.065422684E-1;-1.916371472E-2;1.011418328E-1
9.098636000E0;2.299645841E-1;-2.022836544E-2;1.022064835E-1
9.110546937E0;2.331585288E-1;-1.277581044E-2;9.262461960E-2
9.122459437E0;2.171887755E-1;5.323254038E-3;7.665485889E-2
9.134371937E0;1.980250627E-1;5.749114603E-2;4.577998444E-2
9.146282875E0;1.852492392E-1;1.160469428E-1;1.916371472E-2
9.158195375E0;1.724734306E-1;1.437278688E-1;-8.517206647E-3
9.170112562E0;1.639562249E-1;1.320167035E-1;-1.277581044E-2
9.182017250E0;1.575683206E-1;8.730136603E-2;4.258603323E-3
9.193929750E0;1.384046078E-1;1.916371472E-2;2.874557301E-2
9.205840687E0;1.011418328E-1;-2.129301662E-3;4.897394031E-2
9.217751625E0;3.939208016E-2;4.258603323E-3;7.133160532E-2
9.229664125E0;-1.384046115E-2;1.490511186E-2;8.091346174E-2
9.241575062E0;-5.855579674E-2;6.707300246E-2;9.049531817E-2
9.253487562E0;-1.096590385E-1;1.245641485E-1;1.149822921E-1
9.265398500E0;-1.820552945E-1;1.213701963E-1;1.192408949E-1
9.277311000E0;-2.789385319E-1;1.107236892E-1;9.581857920E-2
9.289221937E0;-3.470761776E-1;1.000771821E-1;8.304276317E-2
9.301134437E0;-3.960501254E-1;7.026695460E-2;8.517206460E-2
9.313045375E0;-4.333128929E-1;2.981022373E-2;9.475392103E-2
9.324956312E0;-4.407654405E-1;9.581857361E-3;1.085943878E-1
9.336868812E0;-4.194724262E-1;1.596976258E-2;1.149822921E-1
9.348779750E0;-3.641105890E-1;7.452555746E-2;1.171115935E-1
9.360690687E0;-2.800031602E-1;1.714087874E-1;1.032711342E-1
9.372603187E0;-1.969604045E-1;2.203827202E-1;8.410741389E-2
9.384514125E0;-1.256287992E-1;2.118655145E-1;8.517206460E-2
9.396426625E0;-4.152138159E-2;2.267706245E-1;8.197811246E-2
9.408342250E0;3.087487444E-2;2.342231870E-1;8.730136603E-2
9.420250062E0;4.471533373E-2;1.990897059E-1;9.581857920E-2
9.432161000E0;4.471533373E-2;1.213701963E-1;1.011418328E-1
9.444071937E0;9.475392103E-2;7.346090674E-2;1.192408949E-1
9.455986000E0;1.980250627E-1;7.984881103E-2;1.426632106E-1
9.467896937E0;2.714859545E-1;7.984881103E-2;1.639562249E-1
9.479806312E0;2.949082851E-1;8.943066746E-2;1.756673902E-1
9.491718812E0;2.981022298E-1;1.309520602E-1;1.863138974E-1
9.503629750E0;2.927789688E-1;1.873785406E-1;1.905725002E-1
9.515542250E0;2.736152709E-1;2.661627233E-1;1.927018017E-1
9.527453187E0;2.257059813E-1;3.374943137E-1;1.820552945E-1
9.539365687E0;1.799259931E-1;4.035026729E-1;1.692794859E-1
9.551276625E0;1.373399645E-1;4.620584548E-1;1.479864717E-1
9.563187562E0;9.794788063E-2;5.057091713E-1;1.373399645E-1
9.575100062E0;6.920230389E-2;5.642649531E-1;1.288227588E-1
9.587015687E0;5.323254317E-2;6.238853931E-1;1.064650863E-1
9.598923500E0;3.619812801E-2;6.920230389E-1;9.049531817E-2
9.610834437E0;2.129301615E-2;7.569667697E-1;8.517206460E-2
9.622745375E0;2.342231758E-2;7.857123017E-1;7.452555746E-2
9.634657875E0;2.448697016E-2;7.825183868E-1;7.878416032E-2
9.646568812E0;1.384046115E-2;7.686778903E-1;7.665485889E-2
9.658481312E0;5.323254038E-3;7.537727952E-1;6.920230389E-2
9.670392250E0;2.129301662E-3;7.441909313E-1;5.642649531E-2
9.682304750E0;5.323254038E-3;7.686778903E-1;2.555162087E-2
9.694215687E0;1.596976258E-2;8.197811246E-1;-2.235766686E-2
9.706129750E0;3.087487444E-2;8.783369660E-1;-8.091346174E-2
9.718039125E0;4.790928960E-2;9.613797069E-1;-1.543743759E-1
9.729950062E0;7.559020817E-2;1.050810337E0;-2.161241174E-1
9.741864125E0;1.192408949E-1;1.125335932E0;-2.640334070E-1
9.753773500E0;1.895078421E-1;1.143435001E0;-2.682920098E-1
9.765686000E0;2.533869147E-1;1.146628976E0;-2.459343374E-1
9.777596937E0;3.023608327E-1;1.112560153E0;-1.948311031E-1
9.789507875E0;3.566580415E-1;1.023129463E0;-1.394692659E-1
9.801420375E0;4.098905623E-1;9.187936783E-1;-8.730136603E-2
9.813331312E0;4.247956872E-1;8.485267162E-1;-1.703441329E-2
9.825243812E0;4.056319594E-1;7.516434789E-1;7.239625603E-2
9.837154750E0;3.715631366E-1;6.100449562E-1;1.075297371E-1
9.849067250E0;3.800803423E-1;4.205370843E-1;3.513347730E-2
9.860978187E0;4.173431396E-1;3.949854672E-1;-6.494370103E-2
9.872889125E0;3.673045337E-1;6.622128487E-1;-1.277581044E-2
9.884801625E0;1.437278688E-1;9.762848020E-1;1.224348471E-1
9.896712562E0;1.224348471E-1;1.102978230E0;1.501157731E-1
9.908623500E0;3.534640670E-1;9.560564756E-1;2.108008713E-1
9.920536000E0;7.857123017E-1;7.984881401E-1;2.416757345E-1
9.932446937E0;1.252029419E0;1.184956431E0;2.768092155E-1
9.944359437E0;1.357429862E0;1.912112951E0;3.481408358E-1
9.956270375E0;1.454313040E0;2.628623009E0;4.024380147E-1
9.968181312E0;1.454313040E0;3.026802301E0;3.683691919E-1
9.980093812E0;1.253094077E0;2.943759680E0;1.948311031E-1
9.992004750E0;1.089137793E0;2.441244364E0;-1.703441329E-2
1.000392038E1;1.049745679E0;2.017513275E0;-1.394692659E-1
1.001582819E1;1.039099216E0;1.843975306E0;-1.927018017E-1
1.002773912E1;1.022064805E0;2.095232964E0;-2.331585288E-1
1.003965163E1;8.964360356E-1;2.658433199E0;-3.396236300E-1
1.005156256E1;6.952170134E-1;3.170530319E0;-4.865454435E-1
1.006347819E1;5.589416623E-1;3.379201651E0;-5.951398015E-1
1.007538600E1;5.376486778E-1;3.481408358E0;-6.228207350E-1
1.008729694E1;5.993984342E-1;3.489925385E0;-5.812993646E-1
1.009920944E1;6.813765168E-1;3.416464567E0;-4.939979911E-1
1.011112038E1;7.729365230E-1;3.286577225E0;-3.630459309E-1
1.012303444E1;8.740783334E-1;3.039578199E0;-2.171887755E-1
1.013494538E1;9.826727509E-1;2.616911650E0;-4.790928960E-2
1.014685475E1;1.060392261E0;2.198503971E0;1.213701963E-1
1.015876725E1;1.127465248E0;1.942987800E0;2.800031602E-1
1.017067975E1;1.108301520E0;2.057970047E0;3.523994386E-1
1.018259069E1;9.528625011E-1;2.336908579E0;3.247185051E-1
1.019450319E1;7.197039723E-1;2.356072426E0;2.108008713E-1
1.020641412E1;4.609938264E-1;2.096297503E0;2.022836544E-2
1.021832506E1;2.906496823E-1;1.870591521E0;-1.022064835E-1
1.023023756E1;2.555162013E-1;1.948311090E0;-2.629687488E-1
1.024215006E1;2.576455176E-1;1.995155692E0;-3.002315462E-1
1.025406100E1;2.331585288E-1;1.989832401E0;-2.906496823E-1
1.026597194E1;1.671501845E-1;1.967474699E0;-2.565808594E-1
1.027788444E1;5.749114603E-2;1.854621768E0;-1.948311031E-1
1.028979538E1;-5.110324174E-2;1.638497591E0;-8.836601675E-2
1.030171256E1;-6.813765317E-2;1.460700989E0;1.064650808E-2
1.031362038E1;-2.555162087E-2;1.315908432E0;7.026695460E-2
1.032552975E1;8.197811246E-2;1.234995008E0;1.075297371E-1
1.033744069E1;1.990897059E-1;1.295680046E0;1.181762442E-1
1.034935319E1;3.449468613E-1;1.511804223E0;1.320167035E-1
1.036126412E1;4.524766207E-1;1.715152502E0;1.586329788E-1
1.037317975E1;5.174202919E-1;1.857815742E0;1.767320335E-1
1.038508756E1;5.525537729E-1;1.821617603E0;1.831199378E-1
1.039699850E1;5.589416623E-1;1.672566414E0;1.852492392E-1
1.040891100E1;5.451012254E-1;1.562907457E0;1.682148278E-1
1.042082350E1;5.536184311E-1;1.593782306E0;1.234994978E-1
1.043273444E1;5.983337760E-1;1.803518534E0;1.373399645E-1
1.044465162E1;7.016049027E-1;2.148465395E0;1.714087874E-1
1.045655631E1;7.931648493E-1;2.527481079E0;1.958957613E-1
1.046846881E1;8.027467132E-1;2.662691832E0;1.469218135E-1
1.048037975E1;7.409969568E-1;2.548774004E0;2.555162087E-2
1.049229225E1;6.473076940E-1;2.380559206E0;-1.469218135E-1
1.050420319E1;5.908812284E-1;2.523222446E0;-3.364296556E-1
1.051611413E1;5.578770638E-1;3.170530319E0;-4.982565939E-1
1.052802662E1;3.960501254E-1;3.764605284E0;-5.919458866E-1
1.053994381E1;2.874557301E-2;4.066966057E0;-6.781826019E-1
1.055185006E1;-9.933192134E-1;4.430012226E0;-9.070824981E-1
1.056376100E1;-3.134332180E0;3.257831573E0;-1.532032609E0
1.057567194E1;-3.585744143E0;1.831199408E0;-2.188922167E0
1.058758444E1;-3.409012079E0;1.540549755E0;-2.715924263E0
1.059949538E1;-3.225892067E0;2.182534218E0;-3.050224543E0
1.061140788E1;-3.182241440E0;2.885203838E0;-3.340874434E0
1.062331881E1;-3.134332180E0;2.958664656E0;-3.814643860E0
1.063523131E1;-2.905432224E0;2.205956459E0;-4.114875317E0
1.064714225E1;-2.423145294E0;-2.129301662E-3;-4.147879601E0
1.065906100E1;-2.448696852E0;-7.771950960E-1;-3.885975599E0
1.067096569E1;-2.680790901E0;-4.471533373E-2;-3.401559353E0
1.068287662E1;-2.842617750E0;1.674695730E0;-2.679726124E0
1.069479069E1;-2.608394623E0;2.222990990E0;-2.018578053E0
1.070670006E1;-2.011125326E0;1.309520483E0;-1.425567508E0
1.071863444E1;-1.653402805E0;1.479864717E-1;-1.026323438E0
1.073052350E1;-1.688536286E0;-7.079927921E-1;-8.006174564E-1
1.074243600E1;-1.973862648E0;-7.590960264E-1;-7.814537287E-1
1.075434694E1;-2.150594711E0;-4.684463739E-1;-8.900480866E-1
1.076625788E1;-2.138883591E0;-8.517206647E-3;-1.039099216E0
1.077817038E1;-1.980250597E0;4.790928662E-1;-1.178568482E0
1.079008131E1;-1.704506040E0;9.038885832E-1;-1.290356874E0
1.080199381E1;-1.428761482E0;1.057198286E0;-1.305261970E0
1.081390475E1;-1.209443331E0;8.559792638E-1;-1.279710293E0
1.082581569E1;-1.095525742E0;3.907268643E-1;-1.180697799E0
1.083774225E1;-9.826727509E-1;-1.916371472E-2;-9.645736814E-1
1.084964381E1;-7.921002507E-1;-3.534640670E-1;-6.856351495E-1
1.086155006E1;-5.589416623E-1;-6.409198046E-1;-4.290542901E-1
1.087346256E1;-3.162012994E-1;-8.346862793E-1;-1.234994978E-1
1.088537506E1;-1.011418328E-1;-1.186021090E0;2.257059813E-1
1.089728600E1;1.171115935E-1;-1.720475793E0;5.610709786E-1
1.090919694E1;3.587873280E-1;-1.988767743E0;8.591732383E-1
1.092110944E1;6.536956429E-1;-1.777966857E0;1.069974065E0
1.093302038E1;1.041228533E0;-9.635090232E-1;1.288227558E0
1.094493288E1;1.293550730E0;1.714087874E-1;1.507545590E0
1.095685006E1;1.327619553E0;1.398951173E0;1.566101432E0
1.096875475E1;1.149822950E0;2.308162928E0;1.407468438E0
1.098066725E1;7.346090674E-1;2.810678244E0;1.038034558E0
1.099257819E1;6.132388711E-1;2.334779263E0;6.345319152E-1
1.100449694E1;5.291314721E-1;1.068909407E0;3.215245605E-1
1.101640162E1;1.298874021E-1;-5.014505386E-1;1.905725002E-1
1.102831256E1;-2.714859545E-1;-1.588459015E0;2.555162087E-2
1.104022506E1;-3.790156841E-1;-2.119719744E0;-5.003859103E-2
1.105213600E1;-2.235766798E-1;-2.056905508E0;8.197811246E-2
1.106405631E1;2.917143404E-1;-1.181762457E0;3.630459309E-1
1.107595944E1;5.472305417E-1;-1.884431988E-1;4.482180178E-1
1.108787038E1;4.886747301E-1;7.974234819E-1;5.355193615E-1
1.109978288E1;3.907268643E-1;1.475606084E0;6.622128487E-1
1.111169381E1;5.983337760E-1;1.780096173E0;7.186393142E-1
1.112360631E1;1.092331767E0;2.166564465E0;4.886747301E-1
1.113551881E1;9.081471562E-1;2.460407972E0;3.726277947E-1
1.114743131E1;4.077612758E-1;2.311357021E0;6.057863235E-1
1.115934850E1;-2.981022373E-2;2.244283915E0;1.030582070E0
1.117125319E1;-1.714087874E-1;2.179340363E0;1.220089912E0
1.118316413E1;-3.513347730E-2;1.623592496E0;1.238188982E0
1.119507506E1;2.320938855E-1;8.442681432E-1;1.239253521E0
1.120698756E1;6.302732825E-1;8.836601675E-2;1.310585141E0
1.121889850E1;1.113624811E0;-6.994755864E-1;1.400015831E0
1.123081100E1;1.533097267E0;-1.018870831E0;1.355300546E0
1.124272194E1;1.997285008E0;-1.522450745E-1;1.257352591E0
1.125463288E1;2.431662560E0;1.962151527E0;1.234995008E0
1.126654538E1;2.432727098E0;3.720954657E0;1.146628976E0
1.127845631E1;2.001543522E0;4.392749310E0;9.858666658E-1
1.129036881E1;1.472412109E0;4.117004871E0;7.857123017E-1
1.130227975E1;9.677675962E-1;3.423917055E0;5.706528425E-1
1.131420319E1;5.674588680E-1;2.432727098E0;4.226663709E-1
1.132610319E1;2.597748041E-1;1.640626907E0;3.939208090E-1
1.133801412E1;1.511804163E-1;6.845704913E-1;4.173431396E-1
1.134992506E1;1.447925121E-1;7.346090674E-2;4.269249737E-1
1.136183756E1;2.629687488E-1;-4.141491652E-1;4.695110321E-1
1.137374850E1;4.652524292E-1;-6.473076940E-1;5.110324025E-1
1.138566881E1;6.611481905E-1;-6.675360799E-1;5.834286809E-1
1.139757506E1;8.602378964E-1;-6.419844627E-1;6.728593111E-1
1.140948444E1;9.720262289E-1;-5.578770638E-1;7.473849058E-1
1.142139538E1;1.000771761E0;-4.194724262E-1;8.091346622E-1
1.143331412E1;8.762076497E-1;-2.299645841E-1;7.718718648E-1
1.144521725E1;6.803118587E-1;4.684463516E-2;7.079927921E-1
1.145712975E1;4.812221825E-1;4.077612758E-1;6.355965734E-1
1.146904069E1;3.523994386E-1;8.442681432E-1;5.844933391E-1
1.148095319E1;3.034254909E-1;1.357429862E0;5.812993646E-1
1.149287194E1;2.810678184E-1;1.789678097E0;6.760532856E-1
1.150477662E1;2.012190074E-1;2.000478983E0;7.974234819E-1
1.151668756E1;7.771950960E-2;1.849298477E0;7.952941656E-1
1.152860006E1;-6.068509817E-2;1.500092983E0;6.813765168E-1
1.154051100E1;-1.777966917E-1;1.347847939E0;5.387133360E-1
1.155242194E1;-2.863910794E-1;1.389369369E0;4.120198786E-1
1.156433444E1;-4.844161272E-1;1.238188982E0;2.406110913E-1
1.157624538E1;-6.664714217E-1;1.151952267E0;4.045673087E-2
1.158815788E1;-7.846476436E-1;2.260253668E0;-2.416757345E-1
1.160006881E1;-1.003965735E0;3.938143492E0;-5.844933391E-1
1.161200319E1;-1.401080489E0;3.626200676E0;-1.002901077E0
1.162389850E1;-2.204891920E0;2.138883591E0;-1.554390192E0
1.163580319E1;-2.425274611E0;1.362753063E-1;-2.298581123E0
1.164771569E1;-2.131430864E0;-1.172180533E0;-3.164142370E0
1.165962663E1;-1.834393382E0;-1.365947008E0;-3.682627201E0
1.167154538E1;-1.650208831E0;-1.044422507E0;-4.162784576E0
1.168345006E1;-1.554390192E0;1.639562249E-1;-4.576933861E0
1.169536256E1;-1.438343287E0;1.692794800E0;-4.798381329E0
1.170727350E1;-1.585265160E0;2.989539623E0;-4.599291801E0
1.171918600E1;-2.515769958E0;2.221926212E0;-3.845518827E0
1.173109694E1;-2.876686573E0;3.811450005E-1;-2.936306953E0
1.174302038E1;-2.547709465E0;-1.746027321E-1;-2.285805464E0
1.175492038E1;-2.106944084E0;1.085943878E-1;-1.901466370E0
1.176683131E1;-1.783290148E0;5.280668139E-1;-1.792872071E0
1.177874381E1;-1.632109761E0;6.909583807E-1;-1.751350641E0
1.179065475E1;-1.719411135E0;7.239625454E-1;-1.912112951E0
1.180256569E1;-1.881237984E0;5.163556337E-1;-2.279417515E0
1.181447819E1;-2.136754274E0;3.353650272E-1;-2.802160978E0
1.182638912E1;-2.352878332E0;4.237310290E-1;-3.180112123E0
1.183830163E1;-2.215538502E0;8.357509375E-1;-3.250379086E0
1.185021881E1;-1.914242268E0;7.516434789E-1;-3.220568895E0
1.186212350E1;-1.699182749E0;-1.011418328E-1;-3.250379086E0
1.187403600E1;-1.684277654E0;-1.417050242E0;-3.348326921E0
1.188594694E1;-1.804583192E0;-2.424210072E0;-3.345132828E0
1.189785944E1;-1.861009717E0;-2.866039991E0;-3.111974478E0
1.190977038E1;-1.862074375E0;-3.010832548E0;-2.742540598E0
1.192168131E1;-1.771579027E0;-3.119426966E0;-2.265577078E0
1.193359225E1;-1.659790635E0;-3.073647022E0;-1.869526863E0
1.194550475E1;-1.546937704E0;-3.033190250E0;-1.480929375E0
1.195741725E1;-1.446860433E0;-3.215245485E0;-1.072103381E0
1.196932975E1;-1.404274464E0;-3.313193321E0;-7.516434789E-1
1.198124069E1;-1.357429862E0;-3.102392435E0;-4.588645101E-1
1.199315163E1;-1.254158735E0;-2.921401978E0;-2.842617631E-1
1.200506256E1;-1.057198286E0;-2.615847111E0;-1.085943878E-1
1.201697506E1;-7.676132321E-1;-1.869526863E0;4.897394031E-2
1.202891256E1;-4.822868407E-1;-9.933192134E-1;2.203827202E-1
1.204079850E1;-2.267706245E-1;-5.355193615E-1;3.917915225E-1
1.205270944E1;5.110324174E-2;-4.673817158E-1;4.833514690E-1
1.206462038E1;2.150594741E-1;-2.491282970E-1;5.142263770E-1
1.207653288E1;2.842617631E-1;-2.533869147E-1;6.015277505E-1
1.208845006E1;3.523994386E-1;-7.686778903E-1;7.527081370E-1
1.210035475E1;3.396236300E-1;-8.027467132E-1;8.187164664E-1
1.211226725E1;3.609166443E-1;-2.831971347E-1;8.825955391E-1
1.212417819E1;5.525537729E-1;1.628915817E-1;1.075297356E0
1.213609069E1;9.613797069E-1;6.483723521E-1;1.529903293E0
1.214801413E1;1.248835444E0;1.091267109E0;1.995155692E0
1.215991412E1;1.158340096E0;1.320167065E0;2.471054554E0
1.217182506E1;1.022064805E0;1.233930349E0;2.629687548E0
1.218373756E1;1.953634262E0;1.972797990E0;2.185728073E0
1.219564850E1;2.765962839E0;4.185142517E0;1.641691566E0
1.220758131E1;2.198503971E0;5.925846577E0;1.344653964E0
1.221947194E1;1.519256711E0;5.579834938E0;1.249900103E0
1.223138288E1;3.630459309E-1;2.571131706E0;1.445795894E0
1.224329538E1;-1.160469428E-1;1.066780090E0;1.494769812E0
1.225520631E1;3.257831633E-1;1.551196218E0;1.610816717E0
1.226712975E1;4.194724262E-1;2.043065071E0;1.787548780E0
1.227903288E1;1.873785406E-1;2.466795921E0;1.892949224E0
1.229094069E1;4.897394031E-2;3.009768009E0;1.901466370E0
1.230285319E1;1.203055456E-1;3.601713896E0;1.889755249E0
1.231476412E1;2.033483088E-1;3.949854612E0;1.866332889E0
1.232668600E1;2.320938855E-1;3.958371878E0;1.810971022E0
1.233858756E1;2.619041204E-1;3.546351910E0;1.667243242E0
1.235050006E1;2.959729433E-1;3.197146416E0;1.537355781E0
1.236241412E1;2.416757345E-1;3.082164288E0;1.455377698E0
1.237432194E1;1.799259931E-1;3.017220497E0;1.421308875E0
1.238623444E1;1.469218135E-1;2.863910675E0;1.429826021E0
1.239814538E1;1.181762442E-1;2.655239105E0;1.455377698E0
1.241005631E1;1.192408949E-1;2.447632313E0;1.459636331E0
1.242197194E1;1.618269235E-1;2.148465395E0;1.443666577E0
1.243387975E1;1.405339092E-1;1.942987800E0;1.411727071E0
1.244579225E1;6.494370103E-2;1.843975306E0;1.389369369E0
1.245770319E1;6.600835174E-2;1.601234913E0;1.299938679E0
1.246961413E1;2.139948159E-1;1.417050242E0;1.114689469E0
1.248152662E1;3.087487519E-1;1.479864717E0;1.001836419E0
1.249344381E1;3.279124498E-1;1.353171229E0;9.198583364E-1
1.250535006E1;2.619041204E-1;1.048681021E0;8.698197603E-1
1.251726100E1;1.224348471E-1;8.038113713E-1;8.868541718E-1
1.252918600E1;4.258603323E-3;5.972691178E-1;9.379574060E-1
1.254108444E1;3.300417587E-2;5.791700482E-1;9.390220642E-1
1.255299538E1;1.746027321E-1;7.356737256E-1;9.241169095E-1
1.256491413E1;3.747570813E-1;6.568895578E-1;9.336987734E-1
1.257682506E1;6.079156399E-1;5.429719090E-1;9.816080928E-1
1.258872975E1;8.421388268E-1;8.517206907E-1;1.079555988E0
1.260064225E1;9.677675962E-1;1.186021090E0;1.187085629E0
1.261255319E1;9.081471562E-1;1.359559178E0;1.242447495E0
1.262447506E1;7.292858362E-1;1.500092983E0;1.186021090E0
1.263637662E1;4.876100719E-1;1.603364110E0;1.002901077E0
1.264828913E1;2.714859545E-1;1.533097267E0;7.793244123E-1
1.266020006E1;1.596976258E-2;1.186021090E0;5.525537729E-1
1.267211256E1;-2.363524884E-1;6.249500513E-1;3.779510558E-1
1.268402350E1;-4.226663709E-1;4.365068302E-2;1.618269235E-1
1.269593600E1;-6.835058331E-1;2.853264213E-1;1.596976258E-2
1.270784694E1;-1.170051217E0;1.415985584E0;-1.298874021E-1
1.271975788E1;-2.096297503E0;2.324132681E0;-5.057091713E-1
1.273167038E1;-2.701019287E0;2.128237009E0;-1.266934514E0
1.274362038E1;-2.449761629E0;1.878044128E0;-1.968539357E0
1.275550006E1;-1.849298477E0;1.545873046E0;-2.395464420E0
1.276740475E1;-1.451119065E0;1.085943818E0;-2.494477034E0
1.277931725E1;-1.334007502E0;1.290356874E0;-2.604135990E0
1.279122819E1;-1.264805198E0;2.073939800E0;-2.623299599E0
1.280314538E1;-1.190279603E0;2.998056650E0;-2.520028591E0
1.281505162E1;-1.181762457E0;3.374943256E0;-2.423145294E0
1.282696256E1;-1.124271274E0;2.983151674E0;-2.448696852E0
1.283887350E1;-8.655611277E-1;2.211279869E0;-2.513640642E0
1.285078600E1;-2.512575984E-1;4.492826462E-1;-2.554097414E0
1.286269850E1;2.076069117E-1;-2.094168186E0;-2.676532269E0
1.287460944E1;-5.642649531E-2;-3.369619846E0;-2.891591787E0
1.288652038E1;-1.190279603E0;-3.140719891E0;-3.160948277E0
1.289843288E1;-1.722605109E0;-1.978121281E0;-3.274865866E0
1.291034381E1;-1.558648825E0;-1.490511149E-1;-3.182241440E0
1.292226725E1;-1.191344261E0;5.546830893E-1;-2.836229801E0
1.293416725E1;-8.666257858E-1;-5.227435827E-1;-2.567937851E0
1.294607819E1;-8.815308809E-1;-2.510446787E0;-2.366718769E0
1.295799069E1;-1.203055501E0;-3.381330967E0;-2.090974331E0
1.296990162E1;-1.401080489E0;-3.045966148E0;-1.588459015E0
1.298181881E1;-1.433019996E0;-2.159111977E0;-1.197732210E0
1.299373288E1;-1.357429862E0;-1.562907457E0;-8.357509375E-1
1.300563600E1;-1.076362014E0;-1.524580002E0;-3.811450005E-1
1.301754694E1;-7.665486336E-1;-1.468153477E0;1.533097178E-1
1.302945944E1;-3.374943137E-1;-1.072103381E0;7.047988772E-1
1.304137194E1;1.639562249E-1;-5.908812284E-1;1.165792704E0
1.305328131E1;7.356737256E-1;-6.174974889E-2;1.628915787E0
1.306519381E1;1.286098242E0;4.514119625E-1;2.100556135E0
1.307710631E1;1.673631072E0;1.256287932E0;2.567937851E0
1.308901725E1;1.759867787E0;1.904660344E0;2.822389364E0
1.310092819E1;1.987703085E0;2.310292244E0;2.941630363E0
1.311284069E1;2.309227705E0;3.061935902E0;3.071517706E0
1.312475162E1;2.551968098E0;2.627558231E0;3.216310263E0
1.313666256E1;2.557291269E0;1.468153477E0;3.175853491E0
1.314857506E1;1.656596661E0;3.325969219E0;2.464666605E0
1.316048756E1;1.253094077E0;3.874264479E0;1.842910647E0
1.317239850E1;1.371270299E0;2.301775217E0;1.633174419E0
1.318430944E1;9.730908871E-1;1.356365204E0;1.600170255E0
1.319622194E1;4.652524292E-1;-2.438050359E-1;1.609752059E0
1.320813288E1;2.139948159E-1;-9.571211338E-1;1.601234913E0
1.322005475E1;2.118655145E-1;-7.580313683E-1;1.584200501E0
1.323195631E1;2.863910794E-1;-6.366612315E-1;1.458571672E0
1.324386881E1;3.108780384E-1;-5.525537729E-1;1.260546565E0
1.325577975E1;2.384817898E-1;-2.288999259E-1;1.123206615E0
1.326769225E1;1.000771821E-1;3.406882659E-2;1.060392261E0
1.327960788E1;3.087487444E-2;9.262461960E-2;1.095525742E0
1.329151412E1;3.619812801E-2;3.193952609E-3;1.176439166E0
1.330342662E1;1.032711342E-1;-2.629687488E-1;1.279710293E0
1.331533756E1;2.065422684E-1;-5.834286809E-1;1.331878185E0
1.332725006E1;3.673045337E-1;-1.019935489E0;1.302067995E0
1.333916100E1;5.089030862E-1;-1.261611223E0;1.206249356E0
1.335107194E1;6.888290644E-1;-1.148758292E0;1.027388096E0
1.336298444E1;7.835830450E-1;-8.176518679E-1;8.240397573E-1
1.337489538E1;7.590960264E-1;-5.663942695E-1;6.004630923E-1
1.338680788E1;5.876872540E-1;-3.960501254E-1;4.354421794E-1
1.339871881E1;3.896622062E-1;-4.492826462E-1;3.332357109E-1
1.341062975E1;2.842617631E-1;-6.898937225E-1;1.841845959E-1
1.342254225E1;2.108008713E-1;-7.335444093E-1;9.901253134E-2
1.343445319E1;4.897394031E-2;-3.651752472E-1;1.490511149E-1
1.344636569E1;-9.581857361E-3;3.225892186E-1;2.288999259E-1
1.345827663E1;3.300417587E-2;6.334672570E-1;3.236538470E-1
1.347018913E1;1.458571702E-1;1.820552945E-1;4.631231129E-1
1.348210006E1;3.332357109E-1;-4.333128929E-1;5.770407319E-1
1.349401100E1;6.377258301E-1;-4.971919358E-1;7.335444093E-1
1.350592350E1;9.486039281E-1;-2.129301615E-2;9.124057889E-1
1.351784069E1;1.097655058E0;2.384817898E-1;1.006095052E0
1.352974538E1;1.160469413E0;7.388677001E-1;9.496685266E-1
1.354165788E1;1.211572647E0;1.599105597E0;9.028239250E-1
1.355356881E1;1.208378673E0;2.511511326E0;8.655611277E-1
1.356548131E1;9.730908871E-1;2.588166237E0;7.197039723E-1
1.357739225E1;3.577226698E-1;1.686406970E0;4.865454435E-1
1.358930319E1;-4.024380147E-1;1.916371472E-2;2.597748041E-1
1.360121569E1;-8.357509375E-1;-1.130659223E0;1.064650808E-2
1.361312663E1;-1.018870831E0;-9.368927479E-1;-1.618269235E-1
1.362503912E1;-1.087008476E0;4.397007823E-1;-4.077612758E-1
1.363695006E1;-1.197732210E0;2.062228680E0;-7.335444093E-1
1.364886256E1;-1.621463180E0;2.910755396E0;-1.068909407E0
1.366077506E1;-2.069681168E0;3.041707516E0;-1.473476768E0
1.367268444E1;-2.174016953E0;2.286870003E0;-1.891884565E0
1.368459694E1;-2.077133894E0;1.345718622E0;-2.211279869E0
1.369651569E1;-1.900401711E0;1.114689469E0;-2.430597782E0
1.370842038E1;-1.611881375E0;1.617204666E0;-2.644592762E0
1.372033131E1;-1.263740540E0;2.643527985E0;-2.789385319E0
1.373224381E1;-1.149822950E0;3.191823244E0;-2.747863770E0
1.374415475E1;-1.254158735E0;2.861781359E0;-2.612653255E0
1.375606725E1;-1.233930349E0;1.856751084E0;-2.636075497E0
1.376798756E1;-1.025258780E0;4.822868407E-1;-2.759574890E0
1.377988912E1;-6.622128487E-1;-3.225892186E-1;-2.939501047E0
1.379180163E1;-4.631231129E-1;-2.193180770E-1;-3.116233110E0
1.380371256E1;-5.568124056E-1;-6.590188742E-1;-3.242926359E0
1.381562975E1;-8.346862793E-1;-2.179340363E0;-3.267413378E0
1.382753600E1;-1.209443331E0;-3.038513422E0;-3.311064005E0
1.383944694E1;-1.499028325E0;-1.805647850E0;-3.348326921E0
1.385135944E1;-1.381916761E0;-2.278352827E-1;-3.107715845E0
1.386327038E1;-1.124271274E0;-8.751429915E-1;-2.657368422E0
1.387518444E1;-1.089137793E0;-2.286870003E0;-2.308162928E0
1.388709381E1;-1.288227558E0;-2.798967123E0;-1.990897059E0
1.389900475E1;-1.361688375E0;-2.429533243E0;-1.720475793E0
1.391091725E1;-1.246706128E0;-1.657661319E0;-1.377658129E0
1.392282819E1;-1.047616482E0;-1.195602894E0;-1.007159710E0
1.393474850E1;-8.676904440E-1;-1.132788539E0;-5.621356368E-1
1.394665163E1;-7.186393142E-1;-9.901252985E-1;-3.619812801E-2
1.395856256E1;-5.301961303E-1;-7.026695609E-1;5.504244566E-1
1.397047506E1;-1.607622802E-1;-2.320938855E-1;1.177503824E0
1.398238600E1;4.237310290E-1;4.386361539E-1;1.728992939E0
1.399429694E1;1.046551824E0;1.035905242E0;2.184663534E0
1.400621256E1;1.461765647E0;1.255223393E0;2.515769958E0
1.401812350E1;1.607622743E0;1.731122255E0;2.884139061E0
1.403003288E1;1.382981420E0;2.762768984E0;3.180112123E0
1.404194381E1;1.865268230E0;3.281253815E0;3.255702257E0
1.405386256E1;2.380559206E0;2.578584433E0;3.321710587E0
1.406576725E1;2.375236034E0;1.755609274E0;3.043836832E0
1.407767819E1;1.987703085E0;1.870591521E0;2.155917883E0
1.408959069E1;8.421388268E-1;6.004630566E0;1.285033584E0
1.410150163E1;1.034840584E0;4.547123909E0;1.045487165E0
1.411341569E1;1.117883325E0;3.406882763E0;1.355300546E0
1.412532506E1;4.205370843E-1;1.499028325E0;1.499028325E0
1.413723756E1;-9.262461960E-2;-1.980250627E-1;1.389369369E0
1.414914850E1;-3.811450005E-1;-4.546059072E-1;1.247770786E0
1.416106100E1;-3.768863976E-1;-6.771179438E-1;1.137047052E0
1.417297194E1;-2.917143404E-1;-7.282211781E-1;1.083814502E0
1.418488913E1;-2.331585288E-1;-3.268478215E-1;1.017806172E0
1.419679538E1;-1.703441292E-1;2.044129670E-1;8.783369660E-1
1.420870631E1;-7.452555746E-2;6.781826019E-1;8.133932352E-1
1.422061881E1;-4.577998444E-2;8.815308809E-1;8.825955391E-1
1.423253444E1;5.429719388E-2;6.920230389E-1;9.549918175E-1
1.424444069E1;1.831199378E-1;4.237310290E-1;1.029517412E0
1.425635319E1;2.491282970E-1;1.660855263E-1;1.063586235E0
1.426826569E1;2.874557376E-1;-1.841845959E-1;9.848020077E-1
1.428017663E1;2.821324766E-1;-4.290542901E-1;7.559021115E-1
1.429208756E1;2.906496823E-1;-7.665485889E-2;5.152910352E-1
1.430400006E1;2.310292274E-1;5.802347064E-1;3.523994386E-1
1.431591100E1;1.288227588E-1;6.962816715E-1;3.044901490E-1
1.432782506E1;1.266934574E-1;3.130073547E-1;2.576455176E-1
1.433973444E1;1.873785406E-1;-1.948311031E-1;3.215245605E-1
1.435164538E1;2.778738737E-1;-5.216789246E-1;5.238082409E-1
1.436355788E1;3.151366413E-1;-1.841845959E-1;7.346090674E-1
1.437546881E1;2.768092155E-1;-1.107236892E-1;9.166643620E-1
1.438737975E1;3.183306158E-1;-9.251815677E-1;1.009289026E0
1.439929069E1;6.015277505E-1;-1.270128489E0;1.040163875E0
1.441120319E1;1.113624811E0;5.962044746E-2;9.688322544E-1
1.442311413E1;1.392563343E0;1.069974065E0;9.017592669E-1
1.443502819E1;1.368076324E0;1.480929375E0;9.017592669E-1
1.444693756E1;1.193473577E0;2.268770933E0;9.038885832E-1
1.445884850E1;3.854036033E-1;2.778738737E0;8.623671532E-1
1.447078288E1;-4.003087282E-1;1.704506040E0;6.717946529E-1
1.448267194E1;-6.866998076E-1;8.187164664E-1;4.247956872E-1
1.449458444E1;-7.037342191E-1;7.367383838E-1;2.714859545E-1
1.450650006E1;-9.017592669E-1;6.877644658E-1;1.415985674E-1
1.451840788E1;-1.680019021E0;9.454099536E-1;-2.097362131E-1
1.453032350E1;-1.951504946E0;1.514998198E0;-6.111095548E-1
1.454223912E1;-1.936599851E0;1.802453876E0;-9.326341152E-1
1.455415163E1;-1.780096173E0;1.985573769E0;-1.267999172E0
1.456605319E1;-1.741768718E0;3.254637718E0;-1.728992939E0
1.457796569E1;-2.165499926E0;3.834872246E0;-2.396528959E0
1.458987662E1;-2.257059813E0;3.400494814E0;-2.813872099E0
1.460178756E1;-2.045194149E0;3.436692953E0;-3.106651068E0
1.461370006E1;-1.680019021E0;3.810385466E0;-3.264219522E0
1.462561100E1;-1.447925091E0;3.856165409E0;-3.177982807E0
1.463752350E1;-1.424502850E0;2.894785643E0;-2.822389364E0
1.464944225E1;-1.295680046E0;1.347847939E0;-2.483830452E0
1.466135163E1;-9.581857324E-1;-4.524766207E-1;-2.414628029E0
1.467325788E1;-8.006174564E-1;-1.419179559E0;-2.675467491E0
1.468517038E1;-1.101913571E0;-8.559792638E-1;-3.152431250E0
1.469708131E1;-1.310585141E0;3.981794119E-1;-3.319581270E0
1.470900475E1;-1.181762457E0;9.549918175E-1;-3.100263357E0
1.472090475E1;-1.074232697E0;8.400095105E-1;-2.843682289E0
1.473281725E1;-1.175374508E0;3.832743168E-1;-2.763833523E0
1.474472819E1;-1.231801033E0;2.661627159E-2;-2.668015003E0
1.475664069E1;-1.227542400E0;-9.028239250E-1;-2.362460136E0
1.476855162E1;-1.244576812E0;-1.792872071E0;-2.051582098E0
1.478046256E1;-1.380852103E0;-2.211279869E0;-1.691730142E0
1.479237350E1;-1.581006527E0;-2.099491358E0;-1.214766622E0
1.480428600E1;-1.675760388E0;-1.687471628E0;-7.537727952E-1
1.481619694E1;-1.570359945E0;-1.335072160E0;-4.066966176E-1
1.482811569E1;-1.263740540E0;-1.159404755E0;-1.746027321E-1
1.484002038E1;-8.389448524E-1;-9.411513209E-1;1.469218135E-1
1.485193288E1;-4.152138233E-1;-5.067738295E-1;6.664714217E-1
1.486384381E1;-6.494370103E-2;-1.277581044E-2;1.173245192E0
1.487575475E1;4.301189482E-1;5.536184311E-1;1.737510204E0
1.488767194E1;8.634318113E-1;7.133160830E-1;2.150594711E0
1.489957819E1;1.516062737E0;7.228979468E-1;2.490218401E0
1.491148913E1;1.813100338E0;1.214766622E0;2.719118357E0
1.492340162E1;1.288227558E0;2.869234085E0;2.901173592E0
1.493531256E1;8.336216211E-1;3.967953682E0;2.883074522E0
1.494723444E1;1.223283768E0;3.225892067E0;2.942694902E0
1.495913600E1;1.496899128E0;1.518192053E0;2.999121428E0
1.497104850E1;1.554390192E0;-5.323254317E-2;2.630752325E0
1.498295944E1;1.084879160E0;1.803518534E0;1.916371465E0
1.499487038E1;8.091346622E-1;3.172659397E0;1.344653964E0
1.500679069E1;1.025258780E0;2.719118357E0;1.304197311E0
1.501869381E1;9.762848020E-1;1.834393382E0;1.461765647E0
1.503060631E1;6.057863235E-1;9.816080928E-1;1.401080489E0
1.504251725E1;1.096590385E-1;4.514119625E-1;1.072103381E0
1.505442819E1;-9.155996889E-2;3.193952441E-1;8.080700040E-1
1.506634069E1;-8.091346174E-2;3.151366413E-1;6.686007380E-1
1.507825163E1;-3.193952609E-3;6.196267605E-1;6.079156399E-1
1.509016413E1;-7.452555932E-3;1.236059666E0;6.100449562E-1
1.510207506E1;-1.575683206E-1;1.480929375E0;6.920230389E-1
1.511398756E1;-2.831971347E-1;1.599105597E0;8.261690736E-1
1.512589850E1;-2.853264213E-1;1.334007502E0;9.720262289E-1
1.513780944E1;-1.927018017E-1;7.750658393E-1;1.067844748E0
1.514972194E1;-6.281439960E-2;1.511804163E-1;1.092331767E0
1.516163288E1;3.619812801E-2;-1.767320335E-1;1.027388096E0
1.517354538E1;1.054004356E-1;-2.682920098E-1;9.315694571E-1
1.518546100E1;1.149822921E-1;-1.895078421E-1;7.921002507E-1
1.519737350E1;7.346090674E-2;-2.661627159E-2;6.366612315E-1
1.520927975E1;-8.517206647E-3;1.298874021E-1;5.099677444E-1
1.522119225E1;-9.368927032E-2;8.943066746E-2;4.780282378E-1
1.523310319E1;-1.618269235E-1;-1.831199378E-1;4.822868407E-1
1.524502038E1;-7.133160532E-2;-3.034254909E-1;4.812221825E-1
1.525692662E1;1.565036774E-1;-2.778738737E-1;5.504244566E-1
1.526883756E1;4.013733566E-1;-4.886747301E-1;6.717946529E-1
1.528075006E1;6.121742129E-1;-8.996299505E-1;7.878416181E-1
1.529266100E1;7.463202477E-1;-6.898937225E-1;9.187936783E-1
1.530457663E1;8.932420611E-1;2.501929402E-1;9.262462258E-1
1.531648444E1;8.719490170E-1;5.727821589E-1;9.155997038E-1
1.532839538E1;6.877644658E-1;3.555933833E-1;9.305048585E-1
1.534030631E1;4.950626493E-1;1.607622802E-1;9.422159791E-1
1.535221881E1;3.907268643E-1;2.214473784E-1;9.411513209E-1
1.536413288E1;3.321710527E-1;5.600063205E-1;9.187936783E-1
1.537605006E1;2.640334070E-1;1.096590400E0;9.060178399E-1
1.538795319E1;1.777966917E-1;1.600170255E0;8.251044154E-1
1.539986569E1;4.471533373E-2;2.037741661E0;5.653296113E-1
1.541177663E1;-1.362753063E-1;2.357136965E0;1.628915817E-1
1.542370944E1;-5.014505386E-1;2.373106718E0;-2.097362131E-1
1.543560006E1;-1.082749963E0;2.551968098E0;-4.961272776E-1
1.544751100E1;-1.854621768E0;2.990604162E0;-8.644964695E-1
1.545942194E1;-2.294322491E0;3.094939947E0;-1.356365204E0
1.547133444E1;-2.391205788E0;2.564743757E0;-1.738574862E0
1.548324694E1;-2.603071213E0;2.381623983E0;-2.116525888E0
1.549515788E1;-2.835165262E0;2.610523939E0;-2.545580149E0
1.550706881E1;-2.611588478E0;3.435628176E0;-2.845811605E0
1.551898131E1;-2.053711414E0;4.490697384E0;-3.036384106E0
1.553089225E1;-1.497963786E0;5.219983101E0;-3.204599142E0
1.554280319E1;-1.491575837E0;4.927204132E0;-3.054483175E0
1.555471569E1;-1.626786470E0;3.240797043E0;-2.786191225E0
1.556663913E1;-1.315908432E0;1.023129463E0;-2.450826168E0
1.557853912E1;-9.230522513E-1;-7.367383838E-1;-2.319874287E0
1.559045006E1;-9.784141183E-1;-1.687471628E0;-2.505123377E0
1.560237663E1;-1.553325534E0;-5.781053901E-1;-2.722312212E0
1.561427350E1;-1.777966857E0;1.246706128E0;-2.665885687E0
1.562618444E1;-1.534161806E0;2.068616629E0;-2.363524914E0
1.563809694E1;-1.182827115E0;1.327619553E0;-2.319874287E0
1.565000944E1;-1.362753034E0;5.536184311E-1;-2.558356047E0
1.566192038E1;-1.721540451E0;2.629687488E-1;-2.673338175E0
1.567383912E1;-1.799259901E0;-5.781053901E-1;-2.474248648E0
1.568574381E1;-1.732186913E0;-2.073939800E0;-2.024966002E0
1.569765475E1;-1.734316230E0;-2.875622034E0;-1.556519508E0
1.570956725E1;-1.867397547E0;-2.436985731E0;-1.065715432E0
1.572147819E1;-1.908918977E0;-1.567166090E0;-6.568895578E-1
1.573339069E1;-1.779031515E0;-9.613797069E-1;-2.640334070E-1
1.574530163E1;-1.476670742E0;-7.154453397E-1;2.129301662E-3
1.575721256E1;-9.986425042E-1;-6.600835323E-1;2.714859545E-1
1.576912662E1;-4.577998519E-1;-6.302732825E-1;6.419844627E-1
1.578103600E1;2.022836544E-2;-3.151366413E-1;1.138111711E0
1.579294850E1;5.472305417E-1;1.543743759E-1;1.670437217E0
1.580485944E1;1.045487165E0;5.440365672E-1;2.046258926E0
1.581677038E1;1.551196218E0;9.943838716E-1;2.370977402E0
1.582868288E1;1.812035680E0;1.668307900E0;2.635010719E0
1.584060006E1;1.595911622E0;2.646722078E0;2.836229801E0
1.585250788E1;1.245641470E0;3.546351910E0;2.905432224E0
1.586441725E1;1.398951173E0;3.531446934E0;2.863910675E0
1.587632819E1;1.716217160E0;2.407175541E0;2.864975452E0
1.588824069E1;1.775837660E0;7.644193172E-1;2.424210072E0
1.590015163E1;1.588459015E0;1.832264066E0;1.504351616E0
1.591206256E1;1.195602894E0;3.711372852E0;9.113411307E-1
1.592399069E1;1.056133628E0;2.591360092E0;9.549918175E-1
1.593588600E1;8.506560326E-1;2.005802155E0;1.311649799E0
1.594779850E1;3.470761776E-1;7.335444093E-1;1.405339122E0
1.595970944E1;-1.064650808E-2;-8.091346174E-2;1.207314014E0
1.597162506E1;-1.777966917E-1;-5.376486778E-1;1.002901077E0
1.598353288E1;-2.086715698E-1;-7.878416181E-1;8.229750991E-1
1.599544381E1;-2.097362131E-1;-5.930105448E-1;6.824411750E-1
1.600735631E1;-1.767320335E-1;-1.224348471E-1;6.270793676E-1
1.601926725E1;-1.224348471E-1;4.641877711E-1;6.302732825E-1
1.603117975E1;-4.577998444E-2;8.570439219E-1;6.558248997E-1
1.604309069E1;1.277581044E-2;8.208457828E-1;7.292858362E-1
1.605500163E1;1.000771821E-1;4.950626493E-1;8.272337317E-1
1.606691412E1;2.459343374E-1;3.864682615E-1;9.102764726E-1
1.607884538E1;3.555933833E-1;2.895850241E-1;9.070824981E-1
1.609073600E1;3.949854672E-1;1.596976258E-2;7.835830450E-1
1.610265162E1;3.854036033E-1;-4.897394031E-2;5.632002950E-1
1.611455944E1;3.353650272E-1;1.085943878E-1;4.120198786E-1
1.612647194E1;2.640334070E-1;3.364296556E-1;3.513347805E-1
1.613838288E1;2.054776102E-1;4.663170576E-1;3.343003690E-1
1.615029538E1;1.181762442E-1;5.089030862E-1;4.045673311E-1
1.616220631E1;6.494370103E-2;2.150594741E-1;5.387133360E-1
1.617412038E1;1.511804163E-1;-2.874557376E-1;7.122514248E-1
1.618602975E1;3.747570813E-1;-7.814537287E-1;8.868541718E-1
1.619795006E1;6.462430358E-1;-8.293629885E-1;1.143435001E0
1.620985319E1;8.261690736E-1;-5.770407319E-1;1.271193147E0
1.622176412E1;9.092118144E-1;-3.960501254E-1;1.228607059E0
1.623367662E1;9.092118144E-1;-1.160469428E-1;1.094461083E0
1.624558756E1;8.666257858E-1;5.333900452E-1;1.009289026E0
1.625750631E1;7.356737256E-1;1.326554894E0;1.022064805E0
1.626941100E1;5.621356368E-1;1.820552945E0;1.049745679E0
1.628132194E1;2.874557376E-1;2.178275585E0;1.072103381E0
1.629323288E1;-9.581857361E-3;2.359266281E0;1.025258780E0
1.630514538E1;-3.225892186E-1;2.253865719E0;7.282211781E-1
1.631707819E1;-5.227435827E-1;1.932341218E0;2.746799290E-1
1.632896881E1;-7.463202477E-1;1.478800058E0;-1.639562249E-1
1.634087975E1;-1.162598729E0;1.418114901E0;-5.493598580E-1
1.635279225E1;-1.578877211E0;1.848233819E0;-9.784141183E-1
1.636470319E1;-1.639562249E0;2.284740686E0;-1.496899128E0
1.637661569E1;-1.539485097E0;2.336908579E0;-1.796065927E0
1.638852662E1;-1.573553920E0;2.283676147E0;-2.061164141E0
1.640043756E1;-1.732186913E0;2.312421560E0;-2.352878332E0
1.641235475E1;-1.764126420E0;2.650980473E0;-2.605200529E0
1.642426100E1;-1.556519508E0;3.454792023E0;-2.794708490E0
1.643617350E1;-1.223283768E0;4.090388298E0;-2.930983782E0
1.644808756E1;-1.046551824E0;4.203241348E0;-2.893720865E0
1.646000319E1;-1.246706128E0;3.092810631E0;-2.673338175E0
1.647190788E1;-1.263740540E0;9.336987734E-1;-2.392270327E0
1.648381881E1;-1.122141957E0;-4.066966176E-1;-2.313486338E0
1.649574538E1;-1.252029419E0;-3.353650272E-1;-2.539192200E0
1.650764225E1;-1.313779116E0;4.684463739E-1;-2.831971169E0
1.651955319E1;-1.170051217E0;5.078384280E-1;-3.037448883E0
1.653146569E1;-1.339330792E0;1.096590385E-1;-3.125814915E0
1.654337662E1;-1.874850154E0;5.876872540E-1;-3.093875408E0
1.655529381E1;-1.774773002E0;9.869313240E-1;-2.701019287E0
1.656720006E1;-1.483058572E0;1.927018017E-1;-2.210215092E0
1.657911100E1;-1.457507014E0;-9.645736814E-1;-1.886561275E0
1.659102350E1;-1.638497591E0;-1.602299571E0;-1.635303736E0
1.660293444E1;-1.751350641E0;-1.530967951E0;-1.388304710E0
1.661485319E1;-1.692794800E0;-1.247770786E0;-1.073168039E0
1.662675944E1;-1.569295287E0;-9.816080928E-1;-7.165099978E-1
1.663867038E1;-1.386175394E0;-7.899709344E-1;-3.822096586E-1
1.665058131E1;-1.179633141E0;-6.643421054E-1;-1.234994978E-1
1.666249381E1;-8.879188299E-1;-5.248728395E-1;2.981022298E-1
1.667441100E1;-4.833514690E-1;-3.215245605E-1;8.900480866E-1
1.668631725E1;2.555162087E-2;-5.216789246E-2;1.401080489E0
1.669822819E1;7.388677001E-1;2.672273517E-1;1.839716673E0
1.671013912E1;1.244576812E0;4.982565939E-1;2.165499926E0
1.672205163E1;1.303132653E0;1.327619553E0;2.626493692E0
1.673396881E1;1.139176369E0;2.318809509E0;3.049160004E0
1.674587506E1;1.184956431E0;2.556226730E0;3.317451954E0
1.675778600E1;1.487317204E0;2.450826168E0;3.234409332E0
1.676969694E1;1.986638427E0;1.204120159E0;2.753187180E0
1.678160944E1;1.935535192E0;1.575683206E-1;2.037741661E0
1.679353131E1;1.766255736E0;8.112639189E-1;1.168986678E0
1.680543288E1;1.578877211E0;4.233051777E0;3.704984784E-1
1.681734381E1;1.574618578E0;4.377844334E0;3.428175747E-1
1.682925631E1;1.421308875E0;3.956242561E0;8.463973999E-1
1.684116725E1;7.431262732E-1;2.220861673E0;1.184956431E0
1.685308444E1;3.087487444E-2;-4.471533597E-1;1.167922020E0
1.686499381E1;-2.863910794E-1;-1.623592496E0;1.014612198E0
1.687690163E1;-3.300417662E-1;-1.867397547E0;8.857895136E-1
1.688881569E1;-2.044129670E-1;-1.246706128E0;7.250272036E-1
1.690072506E1;-8.943066746E-2;-2.746799290E-1;5.387133360E-1
1.691264225E1;-5.855579674E-2;3.002315462E-1;5.504244566E-1
1.692454850E1;-3.726277873E-2;6.877644658E-1;6.302732825E-1
1.693645944E1;2.022836544E-2;6.345319152E-1;6.877644658E-1
1.694837038E1;1.032711342E-1;4.354421794E-1;7.644193172E-1
1.696028288E1;1.426632106E-1;2.725506127E-1;8.293629885E-1
1.697219381E1;8.623671532E-2;-1.320167035E-1;8.006174564E-1
1.698410631E1;5.749114603E-2;-4.471533597E-1;6.952170134E-1
1.699601725E1;8.623671532E-2;-3.066194355E-1;5.855579376E-1
1.700792819E1;8.517206460E-2;-1.660855263E-1;5.003858805E-1
1.701984069E1;3.087487444E-2;-2.054776102E-1;4.226663709E-1
1.703175319E1;-1.490511186E-2;-9.794788063E-2;3.949854672E-1
1.704366412E1;1.490511186E-2;1.565036774E-1;4.237310290E-1
1.705558131E1;5.323254317E-2;1.043357849E-1;5.461658835E-1
1.706748600E1;1.054004356E-1;-1.245641485E-1;7.026695609E-1
1.707939850E1;2.555162013E-1;-6.483723521E-1;9.006946087E-1
1.709131725E1;4.311835766E-1;-9.198583364E-1;1.030582070E0
1.710322194E1;5.259374976E-1;-9.432806373E-1;1.121077299E0
1.711513288E1;5.525537729E-1;-1.036969900E0;1.150887609E0
1.712704538E1;5.930105448E-1;-9.997071624E-1;1.131723881E0
1.713895631E1;6.302732825E-1;-8.006174564E-1;1.073168039E0
1.715086881E1;6.590188742E-1;-2.959729433E-1;1.035905242E0
1.716277975E1;7.143807411E-1;6.334672570E-1;1.034840584E0
1.717469069E1;6.930876970E-1;1.355300546E0;1.046551824E0
1.718660319E1;5.365840197E-1;1.714087844E0;1.003965735E0
1.719851413E1;2.768092155E-1;1.758803129E0;9.102764726E-1
1.721042975E1;6.387905218E-3;1.915306807E0;7.516434789E-1
1.722233756E1;-3.470761776E-1;1.949375629E0;4.184077680E-1
1.723425006E1;-6.994755864E-1;1.691730142E0;-5.323254038E-3
1.724616100E1;-1.129594564E0;1.508610249E0;-4.705756605E-1
1.725807975E1;-1.619333982E0;1.896143198E0;-8.921774030E-1
1.726999694E1;-1.670437217E0;2.501929522E0;-1.212637305E0
1.728189538E1;-1.375528932E0;2.691437244E0;-1.445795894E0
1.729380788E1;-1.238188982E0;2.654174566E0;-1.691730142E0
1.730571881E1;-1.736445546E0;3.138590574E0;-2.121849060E0
1.731763131E1;-2.148465395E0;3.193952560E0;-2.535998344E0
1.732954538E1;-1.945117116E0;3.120491505E0;-2.767027617E0
1.734145944E1;-1.357429862E0;2.929919004E0;-2.830906630E0
1.735336569E1;-7.569667697E-1;2.234702110E0;-2.789385319E0
1.736527662E1;-6.387904882E-1;1.414920926E0;-2.644592762E0
1.737718912E1;-1.015676856E0;8.187164664E-1;-2.511511326E0
1.738910006E1;-1.403209805E0;4.801575243E-1;-2.648851395E0
1.740101100E1;-1.543743730E0;2.001543641E-1;-2.846876383E0
1.741292350E1;-1.226477742E0;6.217560768E-1;-2.958664656E0
1.742483444E1;-8.825955391E-1;6.941523552E-1;-2.970375776E0
1.743674538E1;-1.071038723E0;-2.363524884E-1;-3.006573915E0
1.744867819E1;-1.544808388E0;-6.856351495E-1;-3.108780384E0
1.746056881E1;-1.836522698E0;-3.630459309E-1;-3.205663681E0
1.747248131E1;-1.752415299E0;6.813765317E-2;-3.072582245E0
1.748439225E1;-1.538420439E0;-2.076069117E-1;-2.769156933E0
1.749630475E1;-1.441537261E0;-1.186021090E0;-2.396528959E0
1.750821569E1;-1.534161806E0;-1.544808388E0;-2.176146269E0
1.752012662E1;-1.572489262E0;-1.466024160E0;-1.983444571E0
1.753203912E1;-1.487317204E0;-1.129594564E0;-1.631045103E0
1.754395006E1;-1.344653964E0;-9.784141183E-1;-1.203055501E0
1.755586100E1;-1.174309850E0;-1.010353684E0;-8.421388268E-1
1.756777350E1;-9.997071624E-1;-1.082749963E0;-5.376486778E-1
1.757968444E1;-8.400095105E-1;-1.027388096E0;-1.714087874E-1
1.759159694E1;-5.749114752E-1;-8.591732383E-1;3.268478215E-1
1.760350788E1;-1.863138974E-1;-7.165099978E-1;8.421388268E-1
1.761542975E1;2.459343374E-1;-4.876100719E-1;1.338266134E0
1.762733131E1;7.186393142E-1;1.011418328E-1;1.816294312E0
1.763924381E1;1.279710293E0;8.698197603E-1;2.271964788E0
1.765115475E1;1.740704179E0;1.330813527E0;2.607329845E0
1.766306569E1;1.974927306E0;1.971733332E0;2.995927572E0
1.767497819E1;1.719411135E0;3.453727245E0;3.365361214E0
1.768690162E1;1.532032609E0;4.303318501E0;3.304676294E0
1.769880162E1;1.990897059E0;1.988767743E0;3.115168333E0
1.771071256E1;2.121849060E0;-1.128529906E-1;2.988474846E0
1.772262506E1;1.430890679E0;1.099784374E0;2.332649946E0
1.773453600E1;8.698197603E-1;2.662691832E0;1.256287932E0
1.774645006E1;9.997071624E-1;2.146336079E0;7.175746560E-1
1.775836256E1;1.027388096E0;1.431955338E0;7.878416181E-1
1.777027038E1;5.408426523E-1;7.697425485E-1;1.061456919E0
1.778218288E1;2.299645841E-1;1.437278688E-1;1.193473577E0
1.779409381E1;9.155996889E-2;-1.990897059E-1;1.234995008E0
1.780600788E1;1.139176413E-1;-3.704984784E-1;1.214766622E0
1.781792663E1;9.475392103E-2;-6.217560768E-1;1.080620646E0
1.782982819E1;3.300417587E-2;-6.696653962E-1;8.921774030E-1
1.784174069E1;6.174974889E-2;-3.119426966E-1;7.495141625E-1
1.785365162E1;1.054004356E-1;1.256287992E-1;7.037342191E-1
1.786556569E1;8.197811246E-2;2.512575984E-1;7.697425485E-1
1.787747506E1;5.962044746E-2;1.234994978E-1;8.219104409E-1
1.788938600E1;7.239625603E-2;7.878416032E-2;8.293629885E-1
1.790129850E1;9.688322991E-2;-4.045673087E-2;8.581085801E-1
1.791320944E1;9.262461960E-2;-4.439594150E-1;9.049532413E-1
1.792512350E1;1.234994978E-1;-8.517206907E-1;9.060178399E-1
1.793703288E1;2.299645841E-1;-1.000771761E0;8.432034850E-1
1.794896725E1;3.843389452E-1;-9.028239250E-1;7.516434789E-1
1.796085631E1;5.046445131E-1;-7.644193172E-1;6.398551464E-1
1.797276725E1;5.749114752E-1;-5.504244566E-1;5.589416623E-1
1.798471725E1;5.632002950E-1;-5.482951999E-1;5.536184311E-1
1.799659225E1;5.482951999E-1;-5.802347064E-1;6.057863235E-1
1.800850788E1;5.844933391E-1;-5.504244566E-1;7.228979468E-1
1.802041413E1;7.260918617E-1;-7.090574503E-1;9.464746118E-1
1.803232506E1;8.996299505E-1;-7.122514248E-1;1.176439166E0
1.804423756E1;9.858666658E-1;-4.822868407E-1;1.290356874E0
1.805614850E1;9.975778461E-1;-4.503473043E-1;1.375528932E0
1.806805944E1;9.698969126E-1;-6.057863235E-1;1.374464273E0
1.807997194E1;9.273108840E-1;-7.303504944E-1;1.293550730E0
1.809188288E1;8.666257858E-1;-4.524766207E-1;1.214766622E0
1.810380163E1;7.527081370E-1;1.362753063E-1;1.243512154E0
1.811570631E1;6.121742129E-1;5.855579376E-1;1.263740540E0
1.812761881E1;4.652524292E-1;8.730136752E-1;1.209443331E0
1.813952975E1;3.822096586E-1;1.130659223E0;1.105107546E0
1.815144225E1;3.087487519E-1;1.546937704E0;9.006946087E-1
1.816335319E1;1.607622802E-1;1.655532002E0;6.185621619E-1
1.817526412E1;-7.239625603E-2;1.493705153E0;1.873785406E-1
1.818718600E1;-6.100449562E-1;1.471347451E0;-3.854036033E-1
1.819908756E1;-1.222219110E0;1.376593590E0;-9.571211338E-1
1.821100006E1;-1.553325534E0;1.226477742E0;-1.587394357E0
1.822291100E1;-1.457507014E0;1.460700989E0;-1.979185939E0
1.823482194E1;-1.291421413E0;2.106944084E0;-2.372042179E0
1.824673444E1;-1.374464273E0;2.213409185E0;-2.679726124E0
1.825864538E1;-1.493705153E0;1.625721812E0;-2.828777313E0
1.827055788E1;-1.522450686E0;1.147693634E0;-2.946953535E0
1.828249538E1;-1.452183723E0;1.172180533E0;-3.063000441E0
1.829437975E1;-1.170051217E0;1.425567508E0;-2.994862795E0
1.830629225E1;-8.187164664E-1;1.765191078E0;-2.645657301E0
1.831820319E1;-6.835058331E-1;1.835458040E0;-2.303904533E0
1.833011569E1;-8.453327417E-1;1.643820882E0;-2.393335104E0
1.834202663E1;-1.017806172E0;1.184956431E0;-2.642463446E0
1.835393756E1;-9.741555452E-1;1.288227558E0;-2.886268377E0
1.836585006E1;-7.697425485E-1;1.125335932E0;-2.981022358E0
1.837776256E1;-7.793244123E-1;-1.884431988E-1;-2.935242414E0
1.838967350E1;-1.114689469E0;-1.487317204E0;-2.919272661E0
1.840158600E1;-1.491575837E0;-1.005030394E0;-3.008703232E0
1.841350006E1;-1.466024160E0;3.800803423E-1;-2.983151674E0
1.842540788E1;-1.195602894E0;5.546830893E-1;-2.718053579E0
1.843731881E1;-1.212637305E0;-8.559792638E-1;-2.467860699E0
1.844923288E1;-1.484123230E0;-2.556226730E0;-2.283676147E0
1.846114225E1;-1.706635356E0;-2.631816864E0;-2.166564465E0
1.847305788E1;-1.682148337E0;-1.867397547E0;-1.953634262E0
1.848496569E1;-1.455377698E0;-1.271193147E0;-1.659790635E0
1.849687663E1;-1.217960596E0;-8.038113713E-1;-1.345718622E0
1.850878912E1;-1.081685305E0;-6.249500513E-1;-1.068909407E0
1.852070006E1;-9.922545552E-1;-7.388677001E-1;-8.432034850E-1
1.853261256E1;-8.613025546E-1;-6.196267605E-1;-6.302732825E-1
1.854452350E1;-6.015277505E-1;-2.949082851E-1;-3.662398756E-1
1.855643444E1;-3.641105890E-1;-9.688322991E-2;-1.714087874E-1
1.856834694E1;-1.756673902E-1;3.300417587E-2;3.939208016E-2
1.858026881E1;-8.730136603E-2;-3.193952516E-2;2.661627233E-1
1.859217038E1;-9.901253134E-2;-2.874557376E-1;5.206142664E-1
1.860408131E1;-9.262461960E-2;-4.311835766E-1;7.101221085E-1
1.861599225E1;-9.581857361E-3;-4.024380147E-1;8.517206907E-1
1.862790475E1;1.809906363E-1;-3.449468613E-1;9.922545552E-1
1.863982350E1;3.193952441E-1;-3.353650272E-1;1.081685305E0
1.865172819E1;4.727049768E-1;-4.620584548E-1;1.121077299E0
1.866363912E1;7.026695609E-1;-6.355965734E-1;1.183891773E0
1.867555162E1;1.108301520E0;-5.557477474E-1;1.365947008E0
1.868746256E1;1.499028325E0;-3.619812801E-2;1.590588331E0
1.869937350E1;1.316973090E0;8.655611277E-1;1.912112951E0
1.871128912E1;9.752201438E-1;3.170530319E0;2.374171257E0
1.872319850E1;1.341460109E0;4.827126980E0;2.355007648E0
1.873510944E1;1.772643685E0;4.795187473E0;1.587394357E0
1.874702038E1;1.397886515E0;2.384817898E-1;1.273322463E0
1.875893288E1;4.748342633E-1;1.912112951E0;1.244576812E0
1.877084694E1;5.003858805E-1;2.621170282E0;1.227542400E0
1.878275475E1;9.922545552E-1;8.474620581E-1;1.391498685E0
1.879466725E1;8.847248554E-1;8.155225515E-1;1.486252546E0
1.880657819E1;7.356737256E-1;1.915306807E0;1.440472603E0
1.881850475E1;8.304276466E-1;2.694631338E0;1.493705153E0
1.883040162E1;8.314923048E-1;2.087780237E0;1.576747894E0
1.884231412E1;6.473076940E-1;1.353171229E0;1.533097267E0
1.885422506E1;4.056319594E-1;1.061456919E0;1.311649799E0
1.886613600E1;1.863138974E-1;1.255223393E0;1.094461083E0
1.887805944E1;-7.452555746E-2;1.388304710E0;1.034840584E0
1.888995944E1;-2.757445574E-1;1.307391286E0;1.048681021E0
1.890187038E1;-3.683691919E-1;1.097655058E0;1.091267109E0
1.891378288E1;-3.481408358E-1;9.997071624E-1;1.154081464E0
1.892569381E1;-3.385589719E-1;9.762848020E-1;1.215831280E0
1.893762350E1;-3.630459309E-1;8.623671532E-1;1.215831280E0
1.894951725E1;-3.449468613E-1;7.952941656E-1;1.154081464E0
1.896142975E1;-2.395464331E-1;9.177290201E-1;1.052939653E0
1.897334069E1;-7.346090674E-2;1.068909407E0;9.517978430E-1
1.898525162E1;1.703441292E-1;1.007159710E0;8.282983303E-1
1.899716412E1;3.768863976E-1;8.549146056E-1;7.771950960E-1
1.900907975E1;5.578770638E-1;8.581085801E-1;7.782597542E-1
1.902098756E1;6.728593111E-1;1.181762457E0;7.910355926E-1
1.903289850E1;6.377258301E-1;1.557584167E0;7.633546591E-1
1.904480944E1;4.418300986E-1;1.579941869E0;6.760532856E-1
1.905672819E1;1.948311031E-1;1.365947008E0;5.823640227E-1
1.906863288E1;-8.197811246E-2;1.166857362E0;5.206142664E-1
1.908054538E1;-2.661627233E-1;1.080620646E0;5.142263770E-1
1.909245631E1;-3.800803423E-1;1.038034558E0;5.451012254E-1
1.910436725E1;-4.088259339E-1;1.047616482E0;5.546830893E-1
1.911627975E1;-3.875329196E-1;1.071038723E0;5.429719090E-1
1.912819069E1;-3.353650272E-1;1.021000147E0;5.365840197E-1
1.914010475E1;-2.746799290E-1;9.432806373E-1;5.482951999E-1
1.915201569E1;-2.278352827E-1;8.091346622E-1;5.802347064E-1
1.916392663E1;-1.905725002E-1;6.941523552E-1;6.281439662E-1
1.917584694E1;-1.565036774E-1;6.441137791E-1;6.717946529E-1
1.918775006E1;-1.011418328E-1;5.930105448E-1;6.909583807E-1
1.919966100E1;-1.703441329E-2;5.376486778E-1;6.792472601E-1
1.921157194E1;1.128529906E-1;4.514119625E-1;6.664714217E-1
1.922348444E1;2.597748041E-1;3.715631366E-1;6.781826019E-1
1.923539538E1;4.407654405E-1;3.790156841E-1;6.856351495E-1
1.924730788E1;6.749886274E-1;4.939979911E-1;6.792472601E-1
1.925921881E1;9.283755422E-1;6.686007380E-1;6.515663266E-1
1.927113131E1;1.015676856E0;7.612253428E-1;5.738468170E-1
1.928304225E1;9.081471562E-1;9.326341152E-1;3.917915225E-1
1.929495788E1;6.590188742E-1;1.213701963E0;2.193180770E-1
1.930686569E1;3.311064243E-1;1.695988774E0;6.920230389E-2
1.931877662E1;-3.406882659E-2;2.348619699E0;-5.962044746E-2
1.933068756E1;-3.875329196E-1;2.435921192E0;-1.458571702E-1
1.934260006E1;-7.569667697E-1;1.771579027E0;-2.725506127E-1
1.935451100E1;-9.613797069E-1;1.057198286E0;-3.044901490E-1
1.936642663E1;-1.059327602E0;5.802347064E-1;-2.608394623E-1
1.937833444E1;-9.975778461E-1;7.942295074E-1;-2.235766798E-1
1.939024694E1;-7.750658393E-1;2.316680193E0;-2.352878302E-1
1.940215788E1;-6.973463297E-1;3.996699333E0;-4.311835766E-1
1.941406881E1;-9.624443650E-1;4.178754330E0;-8.016820550E-1
1.942598131E1;-1.343589306E0;3.880652428E0;-1.272257805E0
1.943789225E1;-1.847169161E0;3.936014175E0;-1.769449711E0
1.944980475E1;-2.299645901E0;4.140427113E0;-2.108008623E0
1.946171569E1;-2.146336079E0;3.620877504E0;-2.403981686E0
1.947362819E1;-1.636368394E0;3.092810631E0;-2.626493692E0
1.948553913E1;-1.063586235E0;2.805355072E0;-2.802160978E0
1.949745006E1;-7.165099978E-1;2.786191225E0;-2.981022358E0
1.950936256E1;-9.432806373E-1;3.160948277E0;-3.055547953E0
1.952127350E1;-1.182827115E0;3.412205935E0;-2.972505093E0
1.953318912E1;-1.166857362E0;3.533576250E0;-2.833035946E0
1.954509694E1;-1.021000147E0;2.774480104E0;-2.720182896E0
1.955700788E1;-1.055068970E0;9.432806373E-1;-2.711665630E0
1.956891881E1;-1.223283768E0;-6.228207350E-1;-2.698889971E0
1.958083131E1;-1.434084654E0;-8.581085801E-1;-2.665885687E0
1.959275788E1;-1.697053432E0;-1.863138974E-1;-2.525351763E0
1.960465475E1;-1.912112951E0;7.846476436E-1;-2.458278894E0
1.961656569E1;-2.047323465E0;1.769449711E0;-2.549838781E0
1.962847819E1;-2.164435148E0;2.230443478E0;-2.707406998E0
1.964039381E1;-2.303904533E0;1.888690591E0;-2.785126686E0
1.965230162E1;-2.294322491E0;1.263740540E0;-2.710601091E0
1.966421256E1;-2.227249622E0;5.387133360E-1;-2.631816864E0
1.967612506E1;-2.324132681E0;1.277581006E-1;-2.685049534E0
1.968803600E1;-2.499800205E0;-3.193952516E-2;-2.798967123E0
1.969994694E1;-2.608394623E0;-3.119426966E-1;-2.705277681E0
1.971185944E1;-2.534933567E0;-7.771950960E-1;-2.362460136E0
1.972377194E1;-2.403981686E0;-1.077426672E0;-2.045194149E0
1.973568288E1;-2.293257952E0;-1.296744704E0;-1.789678097E0
1.974759381E1;-2.240025282E0;-1.409597754E0;-1.579941869E0
1.975950631E1;-2.237895966E0;-1.561842799E0;-1.275451660E0
1.977142350E1;-2.183598757E0;-1.675760388E0;-1.011418343E0
1.978332819E1;-2.057970047E0;-1.648079515E0;-7.569667697E-1
1.979524069E1;-1.901466370E0;-1.404274464E0;-4.609938264E-1
1.980715162E1;-1.703441381E0;-9.177290201E-1;-1.596976258E-2
1.981906412E1;-1.541614413E0;-5.057091713E-1;4.375714958E-1
1.983097819E1;-1.410662413E0;-3.183306158E-1;7.708072066E-1
1.984288600E1;-1.254158735E0;-1.085943878E-1;1.027388096E0
1.985479850E1;-1.128529906E0;1.990897059E-1;1.113624811E0
1.986670944E1;-9.454099536E-1;7.899709344E-1;1.054004312E0
1.987862194E1;-8.144578934E-1;1.288227558E0;8.772723079E-1
1.989054694E1;-6.952170134E-1;1.209443331E0;6.866998076E-1
1.990245475E1;-2.533869147E-1;1.027388096E0;6.238853931E-1
1.991435631E1;2.725506127E-1;1.271193147E0;7.495141625E-1
1.992626725E1;5.035798550E-1;1.441537261E0;1.011418343E0
1.993817975E1;2.225120217E-1;1.368076324E0;1.368076324E0
1.995009069E1;9.262461960E-2;1.314843774E0;1.728992939E0
1.996200163E1;2.874557376E-1;1.406403780E0;2.031353712E0
1.997391412E1;5.504244566E-1;1.934470534E0;2.300710440E0
1.998582506E1;9.507331848E-1;2.751057863E0;2.614782572E0
1.999773756E1;1.149822950E0;3.289771080E0;2.827712536E0
2.000965162E1;9.826727509E-1;3.080034971E0;2.610523939E0
2.002156100E1;5.419072509E-1;2.336908579E0;2.270900249E0
2.003347194E1;-1.777966917E-1;4.623778820E0;1.905725002E0
2.004538288E1;3.162012994E-1;5.995049000E0;1.868462205E0
2.005729538E1;1.271193147E0;2.745734453E0;2.056905508E0
2.006920788E1;9.113411307E-1;5.184849501E-1;2.070745945E0
2.008111725E1;9.049531817E-2;4.492826462E-1;2.000478983E0
2.009302975E1;-3.183306158E-1;3.098133802E-1;1.915306807E0
2.010494069E1;-3.406882584E-1;6.536956429E-1;1.848233819E0
2.011685319E1;-2.001543641E-1;1.259481907E0;1.715152502E0
2.012876412E1;-7.878416032E-2;1.626786470E0;1.640626907E0
2.014067662E1;1.916371472E-2;1.839716673E0;1.542679071E0
2.015258756E1;1.660855263E-1;1.909983635E0;1.422373533E0
2.016449850E1;2.459343374E-1;1.909983635E0;1.431955338E0
2.017641100E1;2.533869147E-1;2.079262972E0;1.504351616E0
2.018832194E1;3.417529166E-1;2.102685452E0;1.574618578E0
2.020023288E1;3.044901490E-1;2.087780237E0;1.589523673E0
2.021214538E1;1.533097178E-1;1.880173326E0;1.537355781E0
2.022405788E1;-2.555162087E-2;1.505416274E0;1.500092983E0
2.023597038E1;-1.990897059E-1;1.068909407E0;1.471347451E0
2.024787975E1;-3.130073547E-1;6.600835323E-1;1.429826021E0
2.025979225E1;-3.619812727E-1;2.831971347E-1;1.353171229E0
2.027170319E1;-3.289771080E-1;2.022836544E-2;1.263740540E0
2.028361569E1;-2.214473784E-1;-7.878416032E-2;1.146628976E0
2.029552662E1;-9.901253134E-2;-2.267706245E-1;1.054004312E0
2.030743913E1;4.152138159E-2;-2.863910794E-1;1.003965735E0
2.031935006E1;2.587101460E-1;-1.937664598E-1;9.198583364E-1
2.033126100E1;4.375714958E-1;7.665485889E-2;8.346862793E-1
2.034317350E1;4.588645101E-1;2.895850241E-1;8.038113713E-1
2.035508444E1;3.779510558E-1;5.546830893E-1;7.079927921E-1
2.036700319E1;3.343003690E-1;5.120970607E-1;5.504244566E-1
2.037890944E1;3.130073547E-1;2.565808594E-1;3.800803423E-1
2.039081881E1;2.810678184E-1;1.777966917E-1;2.320938855E-1
2.040273131E1;2.661627233E-1;4.066966176E-1;2.086715698E-1
2.041464225E1;2.076069117E-1;8.996299505E-1;2.555162013E-1
2.042655788E1;1.703441292E-1;1.189214945E0;2.491282970E-1
2.043846569E1;1.352106631E-1;1.184956431E0;2.331585288E-1
2.045037662E1;1.596976221E-1;1.107236862E0;2.150594741E-1
2.046229381E1;2.555162013E-1;1.156210780E0;2.384817898E-1
2.047420006E1;3.662398756E-1;1.142370343E0;3.119426966E-1
2.048611256E1;3.981794119E-1;9.858666658E-1;3.523994386E-1
2.049802350E1;3.790156841E-1;8.825955391E-1;4.152138233E-1
2.050993444E1;3.502701223E-1;9.262462258E-1;5.195496082E-1
2.052184694E1;3.374943137E-1;9.475392699E-1;6.217560768E-1
2.053375788E1;2.981022298E-1;6.526309848E-1;7.016049027E-1
2.054566881E1;2.565808594E-1;2.001543641E-1;7.207686305E-1
2.055758131E1;2.597748041E-1;-7.133160532E-2;6.664714217E-1
2.056949225E1;2.927789688E-1;3.619812801E-2;5.557477474E-1
2.058140475E1;2.587101460E-1;2.299645841E-1;3.193952441E-1
2.059331569E1;7.452555746E-2;2.523222566E-1;2.022836544E-2
2.060522819E1;-2.097362131E-1;3.247185051E-1;-2.012190074E-1
2.061713912E1;-6.526309848E-1;4.492826462E-1;-4.663170576E-1
2.062905163E1;-1.058262944E0;5.206142664E-1;-7.676132321E-1
2.064096256E1;-1.388304710E0;7.047988772E-1;-1.078491330E0
2.065287506E1;-1.616140008E0;1.118947983E0;-1.281839609E0
2.066479225E1;-1.993026376E0;1.720475793E0;-1.427696824E0
2.067669694E1;-2.487024307E0;2.743605137E0;-1.669372559E0
2.068860944E1;-2.176146269E0;3.794415712E0;-1.727928281E0
2.070052038E1;-1.556519508E0;3.414335251E0;-1.759867787E0
2.071243288E1;-8.847248554E-1;1.271193147E0;-2.012190104E0
2.072434381E1;-5.589416623E-1;1.320167035E-1;-2.232572794E0
2.073625631E1;-6.728593111E-1;6.441137791E-1;-2.419951439E0
2.074816725E1;-1.236059666E0;2.408240318E0;-2.795773029E0
2.076007975E1;-1.247770786E0;3.269542694E0;-2.975699186E0
2.077199069E1;-9.890606403E-1;3.632588625E0;-2.900108814E0
2.078390475E1;-5.014505386E-1;3.542093277E0;-2.729764700E0
2.079581412E1;1.948311031E-1;2.373106718E0;-2.631816864E0
2.080772506E1;7.697425485E-1;-2.257059813E-1;-2.692502022E0
2.081963600E1;6.355965734E-1;-2.490218401E0;-2.822389364E0
2.083154850E1;-3.311064243E-1;-3.217374802E0;-2.985280991E0
2.084348288E1;-1.201990843E0;-2.275158882E0;-3.120491505E0
2.085537819E1;-1.361688375E0;-8.762076497E-1;-3.140719891E0
2.086728288E1;-1.015676856E0;6.739239693E-1;-2.972505093E0
2.087919381E1;-4.684463739E-1;9.794787765E-1;-2.689307928E0
2.089110631E1;-1.873785406E-1;2.342231758E-2;-2.282611370E0
2.090301725E1;-4.716403186E-1;-1.176439166E0;-2.031353712E0
2.091492819E1;-9.869313240E-1;-2.128237009E0;-1.869526863E0
2.092684069E1;-1.346783280E0;-2.337973356E0;-1.722605109E0
2.093875163E1;-1.382981420E0;-1.972797990E0;-1.536291122E0
2.095066413E1;-1.176439166E0;-1.558648825E0;-1.285033584E0
2.096257662E1;-8.325569630E-1;-1.343589306E0;-8.687551022E-1
2.097448756E1;-2.874557376E-1;-1.174309850E0;-1.703441292E-1
2.098639850E1;-9.262461960E-2;-9.315694571E-1;4.397007823E-1
2.099830944E1;-3.406882659E-2;-6.100449562E-1;8.453327417E-1
2.101022194E1;1.479864717E-1;-4.013733566E-1;1.102978230E0
2.102213288E1;5.323254466E-1;-5.749114603E-2;1.404274464E0
2.103404538E1;1.041228533E0;5.163556337E-1;1.819488287E0
2.104595631E1;1.579941869E0;1.094461083E0;2.348619699E0
2.105786725E1;1.767320395E0;1.954698920E0;2.895850182E0
2.106977975E1;1.660855293E0;3.091746092E0;3.193952560E0
2.108169069E1;1.782225490E0;3.103457212E0;3.266348839E0
2.109360162E1;1.707699895E0;1.923824072E0;3.409012079E0
2.110551413E1;1.558648825E0;9.155997038E-1;3.377072573E0
2.111742662E1;1.356365204E0;1.699182749E0;2.951212168E0
2.112933756E1;1.266934514E0;2.545580149E0;2.231508255E0
2.114125006E1;1.132788539E0;1.793936610E0;1.468153477E0
2.115316100E1;8.602378964E-1;1.231801033E0;1.311649799E0
2.116507194E1;2.906496823E-1;3.555933833E-1;1.460700989E0
2.117698444E1;-5.642649531E-2;-9.368927032E-2;1.579941869E0
2.118889538E1;-2.427403927E-1;-2.725506127E-1;1.664049268E0
2.120080631E1;-2.672273517E-1;-3.492054641E-1;1.640626907E0
2.121271881E1;-2.033483088E-1;-3.747570813E-1;1.538420439E0
2.122463131E1;-5.536184460E-2;-1.181762442E-1;1.343589306E0
2.123654225E1;2.129301662E-3;3.012961745E-1;1.197732210E0
2.124845475E1;-1.394692659E-1;5.536184311E-1;1.155146122E0
2.126037038E1;-3.438822329E-1;6.345319152E-1;1.201990843E0
2.127227662E1;-5.536184311E-1;5.578770638E-1;1.264805198E0
2.128418912E1;-7.090574503E-1;2.523222566E-1;1.332942843E0
2.129610006E1;-7.122514248E-1;-2.789385319E-1;1.325490236E0
2.130801256E1;-5.408426523E-1;-7.974234819E-1;1.272257805E0
2.131992350E1;-3.300417662E-1;-1.223283768E0;1.294615388E0
2.133183444E1;-1.022064835E-1;-1.506480932E0;1.335072160E0
2.134374694E1;1.958957613E-1;-1.563972116E0;1.278645635E0
2.135565788E1;4.567352235E-1;-1.414920926E0;1.139176369E0
2.136756881E1;5.983337760E-1;-1.171115875E0;9.560564756E-1
2.137950162E1;6.153681874E-1;-9.432806373E-1;7.686778903E-1
2.139139225E1;5.749114752E-1;-7.814537287E-1;5.451012254E-1
2.140331256E1;5.578770638E-1;-6.451784372E-1;3.289771080E-1
2.141521569E1;5.642649531E-1;-3.790156841E-1;2.065422684E-1
2.142712662E1;5.727821589E-1;-2.459343374E-1;1.905725002E-1
2.143903912E1;6.025923491E-1;-8.730136603E-2;1.607622802E-1
2.145095006E1;5.983337760E-1;1.032711342E-1;9.581857920E-2
2.146286256E1;4.407654405E-1;1.234994978E-1;6.494370103E-2
2.147477819E1;1.980250627E-1;1.639562249E-1;3.939208016E-2
2.148668444E1;-2.022836544E-2;3.534640670E-1;7.346090674E-2
2.149860319E1;-1.011418328E-1;4.184077680E-1;1.586329788E-1
2.151050788E1;-2.661627159E-2;2.746799290E-1;2.246413231E-1
2.152242038E1;7.133160532E-2;1.160469428E-1;3.162012994E-1
2.153433131E1;1.522450745E-1;1.288227588E-1;4.663170576E-1
2.154624381E1;3.023608327E-1;1.703441292E-1;6.004630923E-1
2.155815475E1;4.588645101E-1;1.958957613E-1;6.302732825E-1
2.157006569E1;5.323254466E-1;1.618269235E-1;6.409198046E-1
2.158197663E1;5.557477474E-1;2.022836544E-2;6.419844627E-1
2.159388912E1;5.514891148E-1;6.707300246E-2;6.270793676E-1
2.160580006E1;4.460887015E-1;3.523994386E-1;5.514891148E-1
2.161773288E1;1.884431988E-1;2.746799290E-1;4.450240433E-1
2.162962350E1;-1.692794859E-1;-1.543743759E-1;3.066194355E-1
2.164153600E1;-4.641877711E-1;-6.270793676E-1;-1.809906401E-2
2.165344694E1;-5.983337760E-1;-7.463202477E-1;-4.035026729E-1
2.166535944E1;-6.260147095E-1;-2.757445574E-1;-7.122514248E-1
2.167727038E1;-6.068509817E-1;7.154453397E-1;-9.326341152E-1
2.168918288E1;-1.147693634E0;2.023901224E0;-1.197732210E0
2.170109381E1;-1.946181774E0;2.852199554E0;-1.537355781E0
2.171300631E1;-2.142077446E0;3.341938972E0;-1.793936610E0
2.172492819E1;-2.034547806E0;2.896914959E0;-1.972797990E0
2.173682819E1;-1.601234913E0;1.489446521E0;-2.030289173E0
2.174874069E1;-1.058262944E0;6.824411750E-1;-2.122913837E0
2.176065944E1;-6.079156399E-1;1.388304710E0;-2.170823097E0
2.177256413E1;-2.459343374E-1;2.683984756E0;-2.270900249E0
2.178447506E1;-3.353650272E-1;3.368555307E0;-2.428468466E0
2.179640006E1;-8.123285770E-1;3.403688669E0;-2.694631338E0
2.180830631E1;-1.283968925E0;2.192116022E0;-2.941630363E0
2.182020944E1;-1.036969900E0;7.995527983E-1;-3.007638693E0
2.183212038E1;-3.992440701E-1;-1.298874021E-1;-2.889462471E0
2.184403288E1;-3.044901490E-1;-1.147693634E0;-2.701019287E0
2.185595006E1;-1.047616482E0;-2.555161953E0;-2.755316257E0
2.186786256E1;-1.710893869E0;-2.298581123E0;-2.862846136E0
2.187976725E1;-1.925953388E0;-5.003858805E-1;-2.844747066E0
2.189167975E1;-1.353171229E0;6.845704913E-1;-2.659497738E0
2.190359069E1;-8.549146056E-1;1.000771821E-1;-2.532804251E0
2.191550162E1;-1.112560153E0;-4.929333329E-1;-2.492347717E0
2.192741413E1;-1.536291122E0;-6.451784372E-1;-2.422080755E0
2.193932506E1;-1.725798965E0;-8.485267162E-1;-2.240025282E0
2.195123756E1;-1.627851129E0;-1.145564318E0;-1.937664509E0
2.196314850E1;-1.454313040E0;-1.148758292E0;-1.609752059E0
2.197505944E1;-1.401080489E0;-1.029517412E0;-1.245641470E0
2.198697194E1;-1.472412109E0;-1.079555988E0;-9.166643620E-1
2.199888288E1;-1.388304710E0;-1.100848913E0;-4.758989215E-1
2.201079538E1;-1.083814502E0;-1.008224368E0;-4.471533373E-2
2.202270631E1;-5.951398015E-1;-8.378801942E-1;4.748342633E-1
2.203461725E1;-2.576455176E-1;-4.120198786E-1;8.282983303E-1
2.204652975E1;1.096590385E-1;2.076069117E-1;1.046551824E0
2.205844069E1;6.952170134E-1;5.610709786E-1;1.296744704E0
2.207035319E1;1.461765647E0;5.940751433E-1;1.591652989E0
2.208226413E1;1.984509110E0;1.507545590E0;1.973862648E0
2.209417819E1;1.988767743E0;2.944824219E0;2.374171257E0
2.210608756E1;1.855686426E0;4.324611664E0;2.755316257E0
2.211800006E1;2.160176516E0;3.795480251E0;3.050224543E0
2.212991100E1;2.142077446E0;1.479864717E0;3.231215239E0
2.214182194E1;1.850363135E0;2.078198433E0;3.044901371E0
2.215373444E1;1.496899128E0;3.613425016E0;2.692502022E0
2.216564538E1;1.421308875E0;2.703148365E0;2.128237009E0
2.217755788E1;1.159404755E0;1.554390192E0;1.736445546E0
2.218947506E1;2.661627233E-1;2.555162013E-1;1.511804223E0
2.220138131E1;-4.226663709E-1;-1.437278688E-1;1.286098242E0
2.221329850E1;-6.973463297E-1;-2.895850241E-1;1.195602894E0
2.222520319E1;-8.336216211E-1;-2.044129670E-1;1.232865691E0
2.223711569E1;-8.368155360E-1;9.581857361E-3;1.279710293E0
2.224902663E1;-6.792472601E-1;3.311064243E-1;1.232865691E0
2.226093912E1;-4.184077680E-1;7.644193172E-1;1.090202451E0
2.227286256E1;-2.650980651E-1;9.549918175E-1;1.063586235E0
2.228477038E1;-2.118655145E-1;9.219876528E-1;1.182827115E0
2.229667350E1;-1.171115935E-1;8.197811246E-1;1.348912597E0
2.230858444E1;7.452555932E-3;6.558248997E-1;1.424502850E0
2.232049694E1;1.501157731E-1;4.322482347E-1;1.410662413E0
2.233241412E1;2.587101460E-1;3.854036033E-1;1.321231723E0
2.234431881E1;2.885203660E-1;4.428947568E-1;1.216895938E0
2.235623131E1;2.597748041E-1;3.992440701E-1;1.066780090E0
2.236814225E1;2.363524884E-1;2.842617631E-1;8.985652924E-1
2.238005475E1;1.884431988E-1;3.470761776E-1;6.675360799E-1
2.239196569E1;1.596976221E-1;6.654067636E-1;4.844161272E-1
2.240387819E1;8.836601675E-2;9.922545552E-1;3.822096586E-1
2.241578912E1;3.193952609E-3;1.059327602E0;3.247185051E-1
2.242770631E1;-6.068509817E-2;8.485267162E-1;2.139948159E-1
2.243963600E1;-7.665485889E-2;5.972691178E-1;1.330813617E-1
2.245152350E1;-1.181762442E-1;4.152138233E-1;1.735380888E-1
2.246343444E1;-9.049531817E-2;2.044129670E-1;2.288999259E-1
2.247534694E1;4.258603323E-3;-1.596976258E-2;3.066194355E-1
2.248725788E1;1.820552945E-1;-8.517206460E-2;3.854036033E-1
2.249917038E1;3.577226698E-1;-2.299645841E-1;4.077612758E-1
2.251108600E1;5.014505386E-1;-2.246413231E-1;3.758217394E-1
2.252299225E1;5.695881844E-1;3.619812801E-2;4.492826462E-1
2.253490475E1;5.919458866E-1;4.354421794E-1;6.089802980E-1
2.254681569E1;5.919458866E-1;6.984109282E-1;6.835058331E-1
2.255872819E1;6.249500513E-1;1.170051217E0;5.632002950E-1
2.257063913E1;7.143807411E-1;1.851427794E0;3.566580415E-1
2.258255162E1;7.729365230E-1;2.334779263E0;1.511804163E-1
2.259446256E1;6.686007380E-1;2.231508255E0;3.832742944E-2
2.260637350E1;1.660855263E-1;1.497963786E0;-3.406882659E-2
2.261828600E1;-7.452555895E-1;1.171115879E-2;-1.458571702E-1
2.263020162E1;-1.149822950E0;-8.836601973E-1;-3.864682615E-1
2.264210944E1;-1.329748869E0;-1.172180533E0;-5.568124056E-1
2.265402038E1;-1.337201476E0;-5.727821589E-1;-7.207686305E-1
2.266593131E1;-1.209443331E0;1.173245192E0;-8.964360356E-1
2.267784381E1;-1.258417249E0;3.370684624E0;-1.260546565E0
2.268975475E1;-1.386175394E0;3.144978523E0;-1.651273489E0
2.270166725E1;-1.316973090E0;1.693859458E0;-1.907854319E0
2.271358600E1;-1.368076324E0;1.332942843E0;-2.213409185E0
2.272549069E1;-1.706635356E0;2.489153624E0;-2.517899275E0
2.273740162E1;-1.582071185E0;3.796544790E0;-2.762768984E0
2.274931725E1;-1.107236862E0;4.692980766E0;-2.732958794E0
2.276122663E1;-6.462430358E-1;5.373292923E0;-2.538127661E0
2.277313600E1;-5.482951999E-1;4.672752380E0;-2.456149578E0
2.278504850E1;-4.343775511E-1;2.615847111E0;-2.466795921E0
2.279695944E1;-3.641105890E-1;-3.002315462E-1;-2.431662560E0
2.280887819E1;-4.727049768E-1;-2.926725149E0;-2.417822123E0
2.282078756E1;-9.038885832E-1;-4.027574062E0;-2.445502996E0
2.283269381E1;-1.670437217E0;-2.490218401E0;-2.604135990E0
2.284460631E1;-1.786484122E0;4.673817158E-1;-2.782997370E0
2.285651725E1;-1.091267109E0;1.661919951E0;-2.659497738E0
2.286842975E1;-6.398551464E-1;1.401080489E0;-2.518963814E0
2.288034069E1;-7.143807411E-1;7.346090674E-1;-2.433791876E0
2.289225162E1;-1.067844748E0;-7.133160532E-2;-2.380559206E0
2.290416412E1;-1.409597754E0;-1.096590400E0;-2.236831427E0
2.291608131E1;-1.559713483E0;-1.707699895E0;-2.004737616E0
2.292798756E1;-1.600170255E0;-1.557584167E0;-1.722605109E0
2.293989850E1;-1.642756224E0;-9.635090232E-1;-1.391498685E0
2.295180944E1;-1.666178584E0;-5.834286809E-1;-1.150887609E0
2.296372194E1;-1.529903293E0;-4.428947568E-1;-9.698969126E-1
2.297563288E1;-1.059327602E0;-4.663170576E-1;-6.409198046E-1
2.298754538E1;-6.717946529E-1;-4.769635797E-1;-8.943066746E-2
2.299945944E1;-6.547602415E-1;-3.992440701E-1;3.172659576E-1
2.301136725E1;-7.452555895E-1;-1.022064835E-1;5.259374976E-1
2.302327975E1;-7.292858362E-1;3.513347805E-1;6.654067636E-1
2.303519069E1;-4.066966176E-1;1.099784374E0;8.879188299E-1
2.304710319E1;6.174974889E-2;1.634239078E0;1.166857362E0
2.305901412E1;5.046445131E-1;1.389369369E0;1.418114901E0
2.307092506E1;9.965131879E-1;7.367383838E-1;1.676825047E0
2.308283756E1;1.392563343E0;3.311064243E-1;1.908918977E0
2.309474850E1;1.226477742E0;9.347634315E-1;2.141012907E0
2.310666100E1;7.857123017E-1;2.513640642E0;2.384817839E0
2.311857194E1;8.666257858E-1;4.220275879E0;2.622235060E0
2.313048444E1;1.635303736E0;4.630166531E0;2.834100485E0
2.314239538E1;1.975991964E0;2.443373680E0;2.803225756E0
2.315430631E1;1.514998198E0;2.298581123E0;2.377365351E0
2.316621881E1;8.644964695E-1;3.318516731E0;1.832264066E0
2.317812975E1;6.547602415E-1;2.205956459E0;1.354235888E0
2.319004225E1;4.567352235E-1;1.082749963E0;1.161534071E0
2.320195475E1;5.110324174E-2;3.694338500E-1;1.183891773E0
2.321386569E1;-3.353650272E-1;1.107236892E-1;1.250964761E0
2.322579850E1;-5.962044597E-1;3.193952609E-3;1.314843774E0
2.323768913E1;-7.005402446E-1;4.471533373E-2;1.362753034E0
2.324960006E1;-6.409198046E-1;1.426632106E-1;1.342524767E0
2.326151256E1;-4.365068376E-1;2.246413231E-1;1.215831280E0
2.327342350E1;-2.108008713E-1;3.481408358E-1;1.065715432E0
2.328534694E1;-9.475392103E-2;5.387133360E-1;1.010353684E0
2.329724694E1;-1.256287992E-1;6.036570072E-1;1.098719716E0
2.330915788E1;-2.161241174E-1;5.312607884E-1;1.228607059E0
2.332106881E1;-2.619041204E-1;4.354421794E-1;1.288227558E0
2.333298131E1;-2.555162013E-1;2.725506127E-1;1.227542400E0
2.334489225E1;-2.331585288E-1;2.874557301E-2;1.125335932E0
2.335680475E1;-1.746027321E-1;-2.352878302E-1;1.023129463E0
2.336871569E1;-9.368927032E-2;-3.992440701E-1;9.752201438E-1
2.338062662E1;2.235766686E-2;-4.556705654E-1;9.486039281E-1
2.339253913E1;1.586329788E-1;-2.981022298E-1;8.804662228E-1
2.340445475E1;2.597748041E-1;-2.299645841E-1;7.314151525E-1
2.341636256E1;2.949082851E-1;-1.895078421E-1;5.525537729E-1
2.342827350E1;3.087487519E-1;-1.586329788E-1;3.758217394E-1
2.344019069E1;2.842617631E-1;-1.352106631E-1;2.789385319E-1
2.345209694E1;2.576455176E-1;2.235766798E-1;2.129301727E-1
2.346400788E1;2.054776102E-1;5.600063205E-1;1.671501845E-1
2.347592194E1;1.245641485E-1;5.844933391E-1;1.565036774E-1
2.348783131E1;3.939208016E-2;3.470761776E-1;1.234994978E-1
2.349974225E1;2.661627159E-2;1.203055456E-1;1.075297371E-1
2.351165475E1;3.513347730E-2;-1.767320335E-1;1.777966917E-1
2.352356569E1;9.581857920E-2;-3.055547774E-1;3.044901490E-1
2.353547662E1;2.501929402E-1;-1.905725002E-1;4.375714958E-1
2.354738913E1;4.514119625E-1;1.565036774E-1;5.035798550E-1
2.355930006E1;5.717175007E-1;3.438822329E-1;4.737696350E-1
2.357121256E1;5.419072509E-1;6.387905218E-3;4.641877711E-1
2.358312350E1;4.460887015E-1;-1.479864717E-1;5.089030862E-1
2.359503600E1;4.727049768E-1;4.471533597E-1;4.727049768E-1
2.360694694E1;6.004630923E-1;1.378722787E0;3.130073547E-1
2.361886256E1;6.611481905E-1;1.906789660E0;5.003859103E-2
2.363077038E1;5.003858805E-1;1.819488287E0;-1.298874021E-1
2.364268912E1;2.491282970E-1;1.616140008E0;-1.937664598E-1
2.365459381E1;-8.730136603E-2;1.401080489E0;-1.756673902E-1
2.366650631E1;-4.482180178E-1;1.082749963E0;-1.181762442E-1
2.367841725E1;-8.304276466E-1;6.526309848E-1;-1.107236892E-1
2.369032819E1;-1.045487165E0;3.864682615E-1;-1.192408949E-1
2.370224069E1;-1.035905242E0;2.235766798E-1;-1.437278688E-1
2.371415163E1;-8.325569630E-1;1.554390192E-1;-2.022836655E-1
2.372606412E1;-5.727821589E-1;6.132388711E-1;-2.768092155E-1
2.373797506E1;-5.663942695E-1;1.868462205E0;-5.355193615E-1
2.374988756E1;-1.145564318E0;2.520028591E0;-1.033775926E0
2.376179850E1;-1.521386027E0;1.909983635E0;-1.524580002E0
2.377370944E1;-1.628915787E0;1.582071185E0;-1.878044128E0
2.378562194E1;-1.815229654E0;2.367783546E0;-2.129301786E0
2.379753288E1;-1.861009717E0;3.419658422E0;-2.214473724E0
2.380944381E1;-1.513933539E0;4.261797428E0;-2.164435148E0
2.382136100E1;-8.623671532E-1;4.417236328E0;-2.114396572E0
2.383326725E1;-5.067738295E-1;4.152138233E0;-2.128237009E0
2.384517819E1;-6.749886274E-1;3.325969219E0;-2.311357021E0
2.385709069E1;-9.017592669E-1;2.210215092E0;-2.500864744E0
2.386900319E1;-9.209229946E-1;1.022064805E0;-2.561549902E0
2.388091412E1;-8.836601973E-1;-3.257831633E-1;-2.562614679E0
2.389282506E1;-1.012483001E0;-2.059034824E0;-2.479571819E0
2.390473756E1;-1.229671717E0;-2.271964788E0;-2.392270327E0
2.391664850E1;-1.461765647E0;-4.066966176E-1;-2.544515610E0
2.392855944E1;-1.380852103E0;1.671501875E0;-2.606265306E0
2.394047194E1;-1.126400590E0;1.756673932E0;-2.396528959E0
2.395238288E1;-1.102978230E0;4.013733566E-1;-2.193180799E0
2.396429538E1;-1.371270299E0;-5.546830893E-1;-2.118655205E0
2.397620631E1;-1.620398521E0;-8.240397573E-1;-2.020707369E0
2.398811881E1;-1.641691566E0;-8.985652924E-1;-1.882302642E0
2.400002975E1;-1.573553920E0;-1.065715432E0;-1.655532002E0
2.401194069E1;-1.585265160E0;-1.110430837E0;-1.351041913E0
2.402385319E1;-1.673631072E0;-8.634318113E-1;-1.028452754E0
2.403576412E1;-1.723669767E0;-5.323254466E-1;-8.400095105E-1
2.404767662E1;-1.420244217E0;-4.993212521E-1;-6.611481905E-1
2.405958756E1;-9.219876528E-1;-5.472305417E-1;-2.757445574E-1
2.407150006E1;-6.728593111E-1;-4.003087282E-1;3.066194355E-1
