"Time (s)";"Linear Acceleration x (m/s^2)";"Linear Acceleration y (m/s^2)";"Linear Acceleration z (m/s^2)"
1.588593700E-2;9.099999815E-2;-1.569999941E-2;-1.282999963E-1
3.573437500E-2;-2.709999867E-2;8.179999888E-2;-4.733999968E-1
5.558750000E-2;-1.539999992E-2;9.219999611E-2;-3.258999884E-1
7.544062500E-2;-4.039999843E-2;9.380000085E-2;1.794999987E-1
9.529375000E-2;3.139999881E-2;2.448999882E-1;2.504999936E-1
1.151453120E-1;9.989999980E-2;2.163999975E-1;1.929000020E-1
1.349984370E-1;3.610000014E-2;1.204999983E-1;1.590999961E-1
1.548515620E-1;-4.989999905E-2;-1.090000011E-2;1.656999886E-1
1.747031250E-1;6.619999558E-2;-1.319999993E-2;2.812999785E-1
1.945562500E-1;1.592999995E-1;1.043999940E-1;-1.689999923E-2
2.144078120E-1;8.679999411E-2;1.853999943E-1;9.139999747E-2
2.342609370E-1;2.072999924E-1;1.147999987E-1;3.647999763E-1
2.541140620E-1;2.574000061E-1;2.595999837E-1;1.651999950E-1
2.739671870E-1;1.363999993E-1;2.590999901E-1;8.700000122E-3
2.938203120E-1;6.960000098E-2;4.284999967E-1;1.233999953E-1
3.136718750E-1;-4.311999977E-1;6.868000031E-1;1.121999994E-1
3.335250000E-1;6.518999934E-1;1.438999921E-1;4.233999848E-1
3.533765620E-1;3.929999843E-2;-1.738399982E0;3.058999777E-1
3.732296870E-1;7.970000058E-2;-1.589100003E0;-2.885999978E-1
3.930828120E-1;-4.453999996E-1;-6.047999859E-1;-2.311999947E-1
4.129359370E-1;4.712999761E-1;4.299999774E-1;9.420999885E-1
4.327875000E-1;1.023299932E0;1.328299999E0;4.529999793E-1
4.526406250E-1;3.709000051E-1;1.297799945E0;-1.642999947E-1
4.724937500E-1;3.102999926E-1;5.995000005E-1;-4.562999904E-1
4.923453120E-1;-3.033999801E-1;-2.030999959E-1;-3.060999811E-1
5.121984370E-1;-8.037999868E-1;-6.606999636E-1;-7.789999992E-2
5.320515620E-1;-4.152999818E-1;-4.889999926E-1;2.149999887E-1
5.519031250E-1;8.585000038E-1;9.609999508E-2;-1.286000013E-1
5.717562500E-1;8.689999580E-1;5.004000068E-1;-1.326999962E-1
5.916093750E-1;5.874999762E-1;3.517999947E-1;-4.150999784E-1
6.114625000E-1;1.744999886E-1;2.879000008E-1;1.144999936E-1
6.313140620E-1;-9.202999473E-1;-4.347999990E-1;6.516999602E-1
6.511671870E-1;-1.043200016E0;-3.709000051E-1;-3.080999851E-1
6.710203120E-1;3.439999744E-2;9.579999745E-2;-8.869999647E-2
6.908718750E-1;3.251999915E-1;5.869999900E-2;2.918999791E-1
7.107250000E-1;4.682999849E-1;6.468999982E-1;1.321000010E-1
7.305781250E-1;2.949000001E-1;5.191999674E-1;-3.612000048E-1
7.504296870E-1;2.116999924E-1;4.229999781E-1;1.077999994E-1
7.702828120E-1;1.018999964E-1;3.373999894E-1;3.489999846E-2
7.901359370E-1;-4.829999804E-2;7.490000129E-2;5.409999937E-2
8.099875000E-1;4.502999783E-1;-6.509999931E-2;3.138999939E-1
8.298421870E-1;-3.042999804E-1;-1.595000029E-1;-1.894999892E-1
8.496937500E-1;-5.138999820E-1;-3.084000051E-1;-4.616999924E-1
8.695468750E-1;-1.976999938E-1;2.249999903E-2;1.952999979E-1
8.893984370E-1;-4.169999808E-2;-1.989999972E-2;4.061999917E-1
9.092515620E-1;3.132999837E-1;2.031999975E-1;4.474999905E-1
9.291281250E-1;4.083999991E-1;2.282999903E-1;3.604999781E-1
9.489562500E-1;-9.849999845E-2;6.639999896E-2;-4.299999774E-2
9.688093750E-1;-4.339999706E-2;-2.357999980E-1;-9.259999543E-2
9.886625000E-1;-1.418000013E-1;-1.296000034E-1;2.563000023E-1
1.008515625E0;-1.349999942E-2;-8.100000210E-3;1.340999901E-1
1.028367187E0;2.164999992E-1;2.342999876E-1;-2.082999945E-1
1.048220312E0;4.467999935E-1;4.025999904E-1;-2.911999822E-1
1.068073437E0;2.736999989E-1;3.105999827E-1;-2.359999903E-2
1.087925000E0;5.460000038E-2;1.785999984E-1;-2.789999917E-2
1.107778125E0;-4.755999744E-1;-1.849000007E-1;9.619999677E-2
1.127631250E0;-3.528999984E-1;-1.483999938E-1;6.611999869E-1
1.147482812E0;-4.859999940E-2;5.399999768E-2;3.195999861E-1
1.167335937E0;3.854999840E-1;4.597999752E-1;2.567999959E-1
1.187189062E0;2.276999950E-1;5.198999643E-1;1.999999881E-1
1.207040625E0;-3.955999911E-1;2.462999970E-1;1.548999995E-1
1.226893750E0;-4.205999970E-1;2.129999921E-2;-3.876000047E-1
1.246746875E0;-5.339999869E-2;-2.399999881E-3;1.881999969E-1
1.266600000E0;1.750999987E-1;1.150000002E-2;2.748000026E-1
1.286451562E0;2.830999792E-1;5.719999969E-2;-1.055999994E-1
1.306304687E0;4.490000010E-2;-5.289999768E-2;-2.181999981E-1
1.326156250E0;-3.000000026E-3;2.609999850E-2;2.462999970E-1
1.346009375E0;1.393000036E-1;6.960000098E-2;2.782999873E-1
1.365862500E0;9.459999949E-2;3.419999778E-2;2.132999897E-1
1.385714062E0;2.258999944E-1;2.159999870E-2;2.282999903E-1
1.405567187E0;1.424999982E-1;2.109999955E-1;1.606999934E-1
1.425420312E0;-6.319999695E-2;2.278999984E-1;1.045999974E-1
1.445271875E0;-1.237000003E-1;4.569999874E-2;-4.600000009E-2
1.465125000E0;-1.271999925E-1;3.329999745E-2;5.570000038E-2
1.484978125E0;-8.320000023E-2;2.139999904E-2;-4.690000042E-2
1.504829687E0;1.473999918E-1;1.743000001E-1;1.081999987E-1
1.524682812E0;1.635999978E-1;1.877999902E-1;-1.889999956E-2
1.544535937E0;6.520000100E-2;1.141999960E-1;2.325999886E-1
1.564395312E0;1.943999976E-1;8.309999853E-2;1.058999971E-1
1.584240625E0;1.536999941E-1;7.719999552E-2;2.197999954E-1
1.604093750E0;1.823000014E-1;1.033999994E-1;1.238999963E-1
1.623945312E0;2.118999958E-1;1.724999994E-1;-2.479999885E-2
1.643798437E0;1.327999979E-1;1.696999967E-1;2.237999886E-1
1.663651562E0;8.150000125E-2;1.412999928E-1;1.074999943E-1
1.683504687E0;1.174999997E-1;1.129999980E-1;2.300000051E-3
1.703356250E0;-1.359999925E-2;4.399999976E-3;1.645999998E-1
1.723209375E0;1.979999989E-2;2.009999938E-2;-7.919999957E-2
1.743070312E0;-1.090000011E-2;4.089999944E-2;5.059999973E-2
1.762915625E0;7.909999788E-2;3.739999980E-2;1.649999991E-2
1.782767187E0;1.591999978E-1;1.999999881E-1;2.108999938E-1
1.802620312E0;1.869999915E-1;8.769999444E-2;9.200000204E-3
1.822473437E0;-2.599999867E-2;5.599999800E-2;-7.819999754E-2
1.842325000E0;-4.999999655E-4;-7.599999662E-3;1.190999970E-1
1.862178125E0;1.587999910E-1;8.889999986E-2;1.424999982E-1
1.882031250E0;1.597999930E-1;-6.199999712E-3;2.117999941E-1
1.901882812E0;2.565999925E-1;1.993999928E-1;1.156999990E-1
1.921735937E0;2.153999954E-1;2.380999923E-1;-1.079999935E-2
1.941589062E0;6.369999796E-2;2.892999947E-1;-2.953999937E-1
1.961442187E0;-1.059999969E-2;1.746999919E-1;-1.171999946E-1
1.981293750E0;-6.859999895E-2;1.548999995E-1;4.199999850E-3
2.001146875E0;1.460999995E-1;1.823999882E-1;3.155999780E-1
2.021000000E0;1.708000004E-1;1.670999974E-1;4.430999756E-1
2.040851562E0;7.899999619E-3;4.459999874E-2;-7.159999758E-2
2.060704687E0;-1.856999993E-1;-1.463000029E-1;-4.867999852E-1
2.080557812E0;6.289999932E-2;3.046999872E-1;2.854000032E-1
2.100410937E0;1.010999978E-1;1.200000010E-2;4.082999825E-1
2.120260937E0;1.550000012E-1;2.412000000E-1;4.353999794E-1
2.140115625E0;1.533999890E-1;3.398999870E-1;9.030000120E-2
2.159968750E0;1.659999974E-2;1.598999947E-1;-1.491999924E-1
2.179820312E0;1.269000024E-1;1.314000040E-1;4.449999705E-2
2.199673437E0;1.419999897E-1;2.339999937E-2;-3.249999881E-2
2.219526562E0;7.169999927E-2;2.159999870E-2;2.574999928E-1
2.239378125E0;8.259999752E-2;2.545999885E-1;1.516000032E-1
2.259231250E0;9.079999477E-2;2.219999880E-1;1.436000019E-1
2.279084375E0;3.629999980E-2;5.209999904E-2;1.468999982E-1
2.298935937E0;2.439999953E-2;6.809999794E-2;8.540000021E-2
2.318787500E0;5.319999903E-2;1.407999992E-1;-6.599999964E-3
2.338640625E0;1.586999893E-1;1.272999942E-1;1.767999977E-1
2.358495312E0;1.083999947E-1;2.096999884E-1;2.642999887E-1
2.378346875E0;1.021999940E-1;-2.279999852E-2;2.099999972E-2
2.398200000E0;3.390000015E-2;1.008000001E-1;2.016000003E-1
2.418053125E0;3.804000020E-1;1.765999943E-1;1.885999888E-1
2.437904687E0;3.251999915E-1;3.060999811E-1;9.589999914E-2
2.457757812E0;3.071999848E-1;2.572999895E-1;-3.025999963E-1
2.477610937E0;-8.349999785E-2;-4.889999703E-2;2.842999995E-1
2.497462500E0;-2.724999785E-1;2.799999900E-3;4.190999866E-1
2.517315625E0;-2.579999901E-2;2.010999918E-1;2.960000001E-2
2.537168750E0;-8.789999783E-2;1.181999967E-1;1.262999922E-1
2.557020312E0;2.939999849E-2;1.486999989E-1;-1.974999905E-1
2.576873437E0;1.516000032E-1;2.771999836E-1;-1.049999986E-2
2.596726562E0;1.587999910E-1;1.949999928E-1;2.377999872E-1
2.616578125E0;-7.009999454E-2;6.599999964E-3;2.229999937E-2
2.636431250E0;4.729999974E-2;3.729999810E-2;1.209999993E-1
2.656284375E0;1.876999885E-1;1.808999926E-1;2.167999893E-1
2.676135937E0;2.504999936E-1;2.079999894E-1;3.439999744E-2
2.695989062E0;2.804999948E-1;2.144999951E-1;2.469999902E-2
2.715842187E0;-1.359999925E-2;-4.279999807E-2;1.764999926E-1
2.735693750E0;6.639999896E-2;5.879999697E-2;3.222000003E-1
2.755546875E0;6.629999727E-2;1.597999930E-1;1.106999964E-1
2.775400000E0;-5.570000038E-2;9.719999880E-2;8.989999443E-2
2.795253125E0;1.219999976E-2;4.100000020E-3;1.358000040E-1
2.815104687E0;5.669999868E-2;5.289999768E-2;2.615999877E-1
2.834957812E0;3.164999783E-1;2.026000023E-1;8.909999579E-2
2.854809375E0;2.536000013E-1;2.696000040E-1;7.050000131E-2
2.874662500E0;3.519999981E-2;1.232999936E-1;-5.359999835E-2
2.894515625E0;2.829999849E-2;3.390000015E-2;2.022999972E-1
2.914368750E0;8.590000123E-2;-1.599999890E-2;3.249000013E-1
2.934220312E0;1.709999889E-1;2.106999904E-1;1.175999939E-1
2.954073437E0;-1.409999933E-2;1.441999972E-1;-5.279999971E-2
2.973926562E0;2.400000021E-2;3.145999908E-1;-1.798999906E-1
2.993778125E0;1.556999981E-1;2.962000072E-1;-1.319999993E-2
3.013631250E0;2.008999884E-1;9.499999881E-2;2.423999906E-1
3.033484375E0;2.644999921E-1;8.039999753E-2;2.578999996E-1
3.053335937E0;1.221999973E-1;4.999999702E-2;-8.819999546E-2
3.073189062E0;2.716000080E-1;1.562999934E-1;7.939999551E-2
3.093042187E0;2.965999842E-1;1.639000028E-1;1.013000011E-1
3.112895312E0;6.661999822E-1;2.157999873E-1;-4.569000006E-1
3.132746875E0;-6.260000169E-2;1.756999940E-1;-1.139999926E-2
3.152600000E0;-4.587000012E-1;-1.860000007E-2;-7.039999962E-2
3.172453125E0;-5.098999739E-1;-9.659999609E-2;-2.997999787E-1
3.192304687E0;-5.033000112E-1;-1.279999968E-2;-2.261999995E-1
3.212157812E0;-2.608000040E-1;-8.439999819E-2;1.375999898E-1
3.232010937E0;-1.754999906E-1;-3.709999844E-2;3.869999945E-1
3.251864062E0;9.459999949E-2;1.202999949E-1;1.803999990E-1
3.271715625E0;4.070999920E-1;3.267999887E-1;1.333999932E-1
3.291568750E0;4.912000000E-1;1.832999885E-1;1.726000011E-1
3.311421875E0;3.190000057E-1;4.179999977E-2;5.041999817E-1
3.331273437E0;7.809999585E-2;1.794999987E-1;5.433999896E-1
3.351126562E0;1.665999889E-1;1.753999889E-1;4.560999870E-1
3.370979687E0;8.709999919E-2;4.339999706E-2;4.672999978E-1
3.390831250E0;2.409999967E-1;3.255999982E-1;-1.565999985E-1
3.410684375E0;3.172000051E-1;3.695999980E-1;-3.181999922E-1
3.430537500E0;3.475999832E-1;2.211999893E-1;-1.338000000E-1
3.450389062E0;1.261000037E-1;-2.709999867E-2;-8.519999683E-2
3.470242187E0;-1.469999924E-2;-1.359999925E-1;2.219999880E-1
3.490095312E0;-4.977999926E-1;-8.839999884E-2;3.285999894E-1
3.509948437E0;-6.231999993E-1;-1.191999987E-1;5.960999727E-1
3.529800000E0;-2.300000051E-3;8.199999481E-2;8.199999481E-2
3.549653125E0;3.810999990E-1;2.787999809E-1;-3.380999863E-1
3.569506250E0;3.369999826E-1;3.088999987E-1;-5.079999939E-2
3.589357812E0;4.125999808E-1;4.281999767E-1;4.054999948E-1
3.609210937E0;5.094999671E-1;2.818999887E-1;2.732999921E-1
3.629064062E0;4.214999974E-1;9.640000015E-2;1.018999964E-1
3.648915625E0;2.085999995E-1;2.719999850E-2;7.490000129E-2
3.668768750E0;5.749999732E-2;1.897999942E-1;1.696999967E-1
3.688621875E0;1.847999990E-1;1.109999940E-1;1.964999884E-1
3.708475000E0;2.554000020E-1;1.846999973E-1;2.549999952E-2
3.728326562E0;2.364999950E-1;2.099999934E-1;-4.019999877E-2
3.748179687E0;-9.559999406E-2;3.879999742E-2;7.989999652E-2
3.768031250E0;-1.301999986E-1;-7.349999994E-2;1.061999947E-1
3.787884375E0;1.624999940E-1;9.599999525E-3;5.669999868E-2
3.807737500E0;1.820999980E-1;1.686999947E-1;2.377000004E-1
3.827590625E0;-1.753000021E-1;1.713999957E-1;1.086999997E-1
3.847442187E0;8.309999853E-2;2.648999989E-1;-1.114000008E-1
3.867295312E0;4.306999743E-1;3.391999900E-1;1.099999994E-2
3.887148437E0;3.080999851E-1;1.002999991E-1;6.329999864E-2
3.907000000E0;1.350999922E-1;2.168999910E-1;-3.769999743E-2
3.926853125E0;2.387999892E-1;-2.799999900E-3;2.746999860E-1
3.946704687E0;-8.469999582E-2;-3.229999915E-2;2.223999947E-1
3.966557812E0;-1.722999960E-1;-3.319999948E-2;2.249999903E-2
3.986410937E0;2.509999871E-1;4.154999852E-1;-1.316999942E-1
4.006264062E0;-1.829999872E-2;1.243999973E-1;3.524000049E-1
4.026115625E0;-6.300000008E-3;1.513999999E-1;1.020999998E-1
4.045968750E0;1.603000015E-1;8.329999447E-2;-7.129999995E-2
4.065821875E0;1.818999946E-1;1.206999943E-1;1.393000036E-1
4.085673437E0;2.230999917E-1;2.075999975E-1;-1.306999922E-1
4.105526562E0;2.427999973E-1;2.284999937E-1;2.484999895E-1
4.125379687E0;3.869999945E-1;2.434999943E-1;1.459999979E-1
4.145231250E0;2.009999901E-1;2.243999988E-1;1.941999942E-1
4.165084375E0;7.849999517E-2;6.199999899E-2;2.690999806E-1
4.184937500E0;-2.699999837E-3;-3.299999982E-3;1.237999946E-1
4.204789062E0;-2.216999978E-1;-2.649999969E-2;3.189999983E-2
4.224642187E0;-1.217999980E-1;1.345999986E-1;-8.219999820E-2
4.244495312E0;1.489999890E-1;1.859000027E-1;-1.176999956E-1
4.264348437E0;2.439000010E-1;6.049999967E-2;2.654999793E-1
4.284200000E0;1.834999919E-1;8.259999752E-2;1.607999951E-1
4.304053125E0;4.756999910E-1;2.395999879E-1;6.679999828E-2
4.323906250E0;2.032999992E-1;3.810000047E-2;4.010000080E-2
4.343757812E0;1.277000010E-1;7.949999720E-2;1.386999935E-1
4.363610937E0;1.877999902E-1;1.406999975E-1;1.551000029E-1
4.383464062E0;1.815000027E-1;2.177999914E-1;6.870000064E-2
4.403317187E0;6.239999831E-2;1.631999910E-1;1.831000000E-1
4.423168750E0;-1.819999889E-2;8.049999923E-2;2.084999979E-1
4.443021875E0;-7.599999662E-3;1.002999991E-1;-4.859999940E-2
4.462875000E0;3.839999810E-2;1.632999927E-1;1.960999966E-1
4.482726562E0;2.040999979E-1;1.471000016E-1;1.986999959E-1
4.502579687E0;1.797999889E-1;1.766999960E-1;3.353999853E-1
4.522432812E0;9.999999404E-2;1.155999973E-1;1.595000029E-1
4.542284375E0;9.200000018E-2;1.173999980E-1;4.399999976E-3
4.562137500E0;5.790000036E-2;1.412999928E-1;4.279999807E-2
4.581990625E0;-1.134999990E-1;5.739999935E-2;9.009999782E-2
4.601843750E0;-2.337999940E-1;6.399999838E-3;1.796000004E-1
4.621695312E0;-1.688999981E-1;7.829999924E-2;8.169999719E-2
4.641548437E0;2.199999988E-1;2.610999942E-1;1.067999974E-1
4.661401562E0;3.791999817E-1;1.834999919E-1;7.129999995E-2
4.681253125E0;6.000999808E-1;-2.569999918E-2;5.099999905E-2
4.701106250E0;2.866999805E-1;1.861999929E-1;1.472000033E-1
4.720985937E0;1.635999978E-1;1.825999916E-1;1.706999987E-1
4.740810937E0;-1.389999986E-1;1.606999934E-1;2.117999941E-1
4.760664062E0;-1.568000019E-1;1.595000029E-1;1.425999999E-1
4.780517187E0;-8.419999480E-2;-1.359999925E-2;1.431999952E-1
4.800368750E0;1.284999996E-1;1.105000004E-1;2.900999784E-1
4.820221875E0;6.577000022E-1;2.338999957E-1;1.819999963E-1
4.840075000E0;5.159000158E-1;2.599999905E-1;1.455999911E-1
4.859928125E0;1.688999981E-1;9.290000051E-2;-7.019999623E-2
4.879785937E0;4.069999978E-2;2.330999970E-1;-1.415999979E-1
4.899632812E0;1.231999993E-1;3.379999995E-1;8.999999845E-4
4.919485937E0;2.789999917E-2;1.579999924E-1;1.250000000E-1
4.939337500E0;4.102999866E-1;1.957999915E-1;3.689000010E-1
4.959190625E0;6.976999640E-1;6.279999763E-2;3.985999823E-1
4.979046875E0;7.402999997E-1;1.138999984E-1;1.714999974E-1
4.998896875E0;3.960999846E-1;2.329999954E-1;-4.281999767E-1
5.018748437E0;6.909999996E-2;3.226999938E-1;-5.256999731E-1
5.038601562E0;-2.454999983E-1;2.741999924E-1;-2.122000009E-1
5.058456250E0;3.099999856E-3;1.280999929E-1;-1.045999974E-1
5.078306250E0;1.961999983E-1;4.010000080E-2;-3.405999839E-1
5.098159375E0;2.636999786E-1;-1.869999990E-2;-3.227999806E-1
5.118010937E0;-4.349999875E-2;-6.539999694E-2;-2.829000056E-1
5.137864062E0;-4.432999790E-1;-2.237999886E-1;-6.250000000E-2
5.157715625E0;-5.636000037E-1;-3.734999895E-1;1.151999980E-1
5.177568750E0;-3.519999981E-1;-1.143999994E-1;2.663999796E-1
5.197421875E0;-1.176999956E-1;-9.300000034E-3;2.615999877E-1
5.217275000E0;1.553999931E-1;1.677999943E-1;1.090999991E-1
5.237128125E0;2.942999899E-1;2.031999975E-1;1.380999982E-1
5.256979687E0;2.158999890E-1;1.699999906E-2;1.702999920E-1
5.276832812E0;2.278999984E-1;2.143999934E-1;3.287000060E-1
5.296685937E0;2.687999904E-1;3.400000036E-1;2.990999818E-1
5.316537500E0;2.351999879E-1;2.761999965E-1;2.962000072E-1
5.336392187E0;1.199999941E-3;7.009999454E-2;2.328999937E-1
5.356242187E0;-5.810000002E-2;6.219999865E-2;4.619999826E-1
5.376095312E0;-5.099999718E-3;1.377999932E-1;4.486999810E-1
5.395948437E0;2.089999989E-2;1.070000008E-1;5.979999900E-1
5.415801562E0;7.039999962E-2;2.950000018E-2;6.230999827E-1
5.435653125E0;-3.529999778E-2;1.128999963E-1;5.586999655E-1
5.455506250E0;9.200000018E-2;1.231999993E-1;2.047999948E-1
5.475359375E0;1.977999955E-1;1.777999997E-1;1.301999986E-1
5.495210937E0;3.804000020E-1;3.610000014E-1;4.039999843E-2
5.515064062E0;3.782999814E-1;2.572000027E-1;8.509999514E-2
5.534917187E0;5.918999910E-1;3.067999780E-1;2.660000026E-1
5.554768750E0;7.951999903E-1;5.575000048E-1;3.048000038E-1
5.574621875E0;3.736999929E-1;2.449999899E-1;-4.900000058E-3
5.594475000E0;-2.088999897E-1;3.790000081E-2;4.690000042E-2
5.614328125E0;-6.128999591E-1;1.549999975E-2;3.084000051E-1
5.634179687E0;-5.618999600E-1;-9.089999646E-2;4.953999817E-1
5.654032812E0;-3.290999830E-1;-1.349999905E-1;6.990999579E-1
5.673885937E0;3.889999911E-2;1.865999997E-1;7.792999744E-1
5.693737500E0;3.113999963E-1;2.062999904E-1;5.181999803E-1
5.713590625E0;1.262999922E-1;6.539999694E-2;1.396999955E-1
5.733443750E0;-1.415999979E-1;2.559999935E-2;1.538999975E-1
5.753296875E0;-1.270000041E-1;1.079999954E-1;1.803999990E-1
5.773148437E0;1.387999952E-1;-1.187999994E-1;2.669999935E-2
5.793001562E0;2.615000010E-1;-2.453999966E-1;5.253999829E-1
5.812854687E0;7.574999928E-1;4.659999907E-1;7.098999619E-1
5.832706250E0;7.963999510E-1;5.783999562E-1;3.321000040E-1
5.852559375E0;4.377999902E-1;2.732000053E-1;-8.320000023E-2
5.872412500E0;-2.242999971E-1;1.418000013E-1;-2.775999904E-1
5.892265625E0;-4.997999966E-1;2.511999905E-1;-4.298999906E-1
5.912117187E0;-4.323999882E-1;2.653000057E-1;-3.840000033E-1
5.931970312E0;-7.759999484E-2;1.621999890E-1;8.119999617E-2
5.951821875E0;5.174999833E-1;1.696999967E-1;3.107999861E-1
5.971675000E0;7.330999970E-1;2.172999978E-1;2.182999998E-1
5.991528125E0;5.153999925E-1;2.703000009E-1;-1.118999943E-1
6.011381250E0;7.750000060E-2;9.479999542E-2;-1.451999992E-1
6.031232812E0;-1.127999946E-1;1.990000010E-1;-1.507999897E-1
6.051085937E0;-1.651999950E-1;9.749999642E-2;1.791999936E-1
6.070939062E0;-5.469999835E-2;1.699999906E-3;3.709000051E-1
6.090790625E0;1.299999934E-2;1.489000022E-1;3.100000024E-1
6.110643750E0;-1.367999911E-1;1.714999974E-1;2.135999948E-1
6.130496875E0;-5.895000100E-1;-2.213999927E-1;1.855999976E-1
6.150350000E0;-4.557999969E-1;-1.553999931E-1;2.115999907E-1
6.170201562E0;1.036999971E-1;-1.759999990E-1;2.690999806E-1
6.190054687E0;5.528999567E-1;1.179999951E-2;-3.150000051E-2
6.209907812E0;5.160999894E-1;1.689999998E-1;2.405999899E-1
6.229759375E0;1.389999986E-1;3.000999987E-1;2.570999861E-1
6.249612500E0;-9.829999506E-2;8.679999411E-2;4.069999754E-1
6.269465625E0;-1.261000037E-1;1.464999914E-1;6.922000051E-1
6.289317187E0;2.195999920E-1;2.915000021E-1;7.149999738E-1
6.309170312E0;2.727999985E-1;2.563000023E-1;2.260999978E-1
6.329023437E0;-4.312999845E-1;-3.689999878E-2;-2.453999966E-1
6.348875000E0;-3.432999849E-1;-1.059999969E-2;-4.500999749E-1
6.368729687E0;2.554999888E-1;3.249000013E-1;-3.233500004E0
6.388581250E0;6.147999763E-1;7.080999613E-1;-3.975999951E-1
6.408432812E0;1.192799926E0;4.585999846E-1;5.763999820E-1
6.428285937E0;1.719799995E0;4.290999770E-1;1.797000021E-1
6.448139062E0;1.554700017E0;1.422999948E-1;-1.557999998E-1
6.467996875E0;7.985000014E-1;-7.889999449E-2;-1.508999914E-1
6.487848437E0;-9.919999540E-2;-2.730999887E-1;-1.542000026E-1
6.507696875E0;-4.655999839E-1;-2.150999904E-1;2.854000032E-1
6.527548437E0;-4.944999814E-1;-3.106999993E-1;4.227999747E-1
6.547401562E0;-1.832999885E-1;5.680000037E-2;3.152000010E-1
6.567254687E0;1.693999916E-1;5.636999607E-1;6.559999585E-1
6.587106250E0;2.971999943E-1;5.554999709E-1;7.651000023E-1
6.606959375E0;5.825999975E-1;4.206999838E-1;6.861999631E-1
6.626812500E0;7.512999773E-1;3.337000012E-1;7.434999943E-1
6.646664062E0;1.692999899E-1;-1.982999891E-1;9.301999807E-1
6.666517187E0;4.614000022E-1;-6.069999933E-2;9.891999960E-1
6.686370312E0;7.238999605E-1;5.284999609E-1;1.122999936E-1
6.706221875E0;6.559999585E-1;2.588000000E-1;-5.004999638E-1
6.726075000E0;5.758999586E-1;4.002999961E-1;-2.540000081E-1
6.745928125E0;5.685999990E-1;4.733999968E-1;1.442999989E-1
6.765781250E0;4.831999838E-1;3.507999778E-1;-2.689999901E-2
6.785632812E0;6.800000072E-1;4.652999938E-1;-1.666999906E-1
6.805485937E0;5.051000118E-1;3.946000040E-1;-3.416000009E-1
6.825339062E0;6.622999907E-1;4.012999833E-1;-3.445000052E-1
6.845190625E0;7.099999487E-2;4.699999839E-2;-1.537999958E-1
6.865043750E0;-2.219000012E-1;3.173999786E-1;-1.249999925E-2
6.884896875E0;-2.345999926E-1;3.226999938E-1;-1.777999997E-1
6.904750000E0;4.499999806E-2;3.920000046E-2;-3.489999846E-2
6.924601562E0;3.982999921E-1;-1.173999980E-1;-1.459999941E-2
6.944454687E0;3.769999743E-2;1.269999985E-2;7.440000027E-2
6.964307812E0;-2.023999989E-1;-2.787999809E-1;8.669999987E-2
6.984159375E0;-2.992999852E-1;-2.449999936E-2;6.889999658E-2
7.004012500E0;6.679999828E-2;1.437000036E-1;-4.916999936E-1
7.023865625E0;2.163999975E-1;1.670999974E-1;-1.445999891E-1
7.043717187E0;6.405000091E-1;2.852999866E-1;-1.400000006E-1
7.063570312E0;2.764999866E-1;1.885000020E-1;-5.799999926E-3
7.083423437E0;1.720999926E-1;8.359999955E-2;-2.039999962E-1
7.103276562E0;-1.920000017E-1;-2.391999960E-1;1.556999981E-1
7.123128125E0;1.123999953E-1;-6.830000132E-2;8.919999748E-2
7.142981250E0;5.157999992E-1;3.378999829E-1;-8.929999918E-2
7.162834375E0;3.213999867E-1;2.533999979E-1;5.514000058E-1
7.182685937E0;4.175999761E-1;3.378999829E-1;-1.009999961E-2
7.202539062E0;7.940999866E-1;3.192999959E-1;3.845999837E-1
7.222392187E0;5.559999943E-1;3.037000000E-1;5.072000027E-1
7.242243750E0;5.260999799E-1;2.777999938E-1;2.483000010E-1
7.262096875E0;5.898999572E-1;-6.689999998E-2;3.000000026E-3
7.281953125E0;2.953000069E-1;-3.971000016E-1;4.023000002E-1
7.301801562E0;-2.601000071E-1;1.067999974E-1;-1.887999922E-1
7.321654687E0;-3.079999983E-1;1.099999994E-1;-2.903999984E-1
7.341507812E0;-3.657999933E-1;2.105000019E-1;-1.341999918E-1
7.361360937E0;2.001999915E-1;1.911000013E-1;3.358999789E-1
7.381212500E0;3.596999943E-1;-1.460999995E-1;3.243999779E-1
7.401065625E0;1.183699965E0;5.795999765E-1;-4.499999806E-2
7.420918750E0;4.054999948E-1;5.821999907E-1;6.889999658E-2
7.440770312E0;5.399000049E-1;6.275999546E-1;2.726999819E-1
7.460621875E0;4.084999859E-1;3.315999806E-1;-4.809999764E-1
7.480476562E0;1.808999926E-1;2.955999970E-1;8.676999807E-1
7.500329687E0;4.419999942E-2;-4.839999974E-2;6.309999526E-2
7.520181250E0;-5.497999787E-1;2.154999971E-1;-4.711000025E-1
7.540034375E0;-6.547999978E-1;6.799999624E-2;-1.930999905E-1
7.559887500E0;1.186999977E-1;3.658999801E-1;-2.263999879E-1
7.579739062E0;-2.818000019E-1;3.048000038E-1;-2.330999970E-1
7.599592187E0;-2.739000022E-1;2.669000030E-1;-1.829999983E-1
7.619445312E0;3.317999840E-1;1.171000004E-1;1.481999904E-1
7.639296875E0;9.180999994E-1;-1.840000041E-2;1.401999891E-1
7.659150000E0;8.790999651E-1;4.905999899E-1;1.578999907E-1
7.679001562E0;1.356000006E-1;3.080999851E-1;2.136999965E-1
7.698875000E0;-2.912999988E-1;7.841999531E-1;-1.757999957E-1
7.718707812E0;1.053999960E-1;6.855999827E-1;-5.659999847E-1
7.738559375E0;7.066000104E-1;5.426999927E-1;-2.703999877E-1
7.758412500E0;3.191999793E-1;7.696999907E-1;5.065999627E-1
7.778265625E0;3.197999895E-1;5.611999631E-1;1.967999935E-1
7.798118750E0;-1.044999957E-1;-6.549999863E-2;6.961999536E-1
7.817971875E0;1.446999907E-1;7.050000131E-2;5.629000068E-1
7.837823437E0;4.017999768E-1;1.309999973E-1;-2.532999814E-1
7.857676562E0;1.314999908E-1;1.024999991E-1;-3.563999832E-1
7.877528125E0;1.656999886E-1;4.636999965E-1;-6.979999691E-2
7.897381250E0;8.700000122E-3;2.815999985E-1;-1.994999945E-1
7.917234375E0;-1.550000012E-1;-6.309999526E-2;4.799999893E-1
7.937085937E0;8.240000159E-2;-7.979999483E-2;5.169999599E-1
7.956939062E0;6.995999813E-1;-1.271999925E-1;3.418000042E-1
7.976792187E0;8.613999486E-1;-3.874000013E-1;4.538999796E-1
7.996643750E0;-2.349999994E-1;-1.838999987E0;-3.780999780E-1
8.016496875E0;7.391999960E-1;3.722999990E-1;-1.007300019E0
8.036350000E0;-9.465999603E-1;-6.758999825E-1;7.269999981E-1
8.056203125E0;-4.879999906E-2;-3.709999919E-1;1.625999957E-1
8.076054687E0;9.271999598E-1;-1.200999990E-1;-2.617000043E-1
8.095907812E0;5.825999975E-1;-2.223999947E-1;2.164999992E-1
8.115760937E0;5.119999871E-2;-1.298999935E-1;4.747999907E-1
8.135612500E0;2.724999785E-1;-3.536999822E-1;-5.529999733E-2
8.155465625E0;2.181999981E-1;3.027999997E-1;-2.287999988E-1
8.175318750E0;2.834999859E-1;1.407999992E-1;-2.047999948E-1
8.195170312E0;2.732000053E-1;2.089999914E-1;3.517999947E-1
8.215023437E0;2.354999930E-1;2.110999972E-1;2.143999934E-1
8.234882812E0;1.727000028E-1;2.005999982E-1;1.706999987E-1
8.254729687E0;2.656999826E-1;1.724999994E-1;3.300999999E-1
8.274581250E0;6.523999572E-1;5.558999777E-1;3.869999945E-1
8.294434375E0;-7.754999995E-1;1.813099980E0;-2.699999837E-3
8.314287500E0;-2.847000062E-1;4.969999939E-2;8.323000073E-1
8.334139062E0;-9.519999474E-2;-1.674000025E-1;-2.958000004E-1
8.353992187E0;1.782999933E-1;-9.730000049E-2;-7.410999537E-1
8.373845312E0;3.211999834E-1;1.648999900E-1;-1.429999918E-1
8.393696875E0;3.784999847E-1;5.482999682E-1;1.043999940E-1
8.413550000E0;7.909999788E-2;3.206999898E-1;3.538999856E-1
8.433403125E0;7.369999588E-2;-6.549999863E-2;-2.829999924E-1
8.453256250E0;4.077999890E-1;-6.340000033E-2;-5.733999610E-1
8.473107812E0;9.206999540E-1;-2.329999954E-2;-1.574999988E-1
8.492960937E0;1.362999976E-1;-3.819999993E-1;1.074000001E-1
8.512814062E0;5.429999903E-2;3.519999981E-1;4.111000001E-1
8.532665625E0;3.594000041E-1;8.359999657E-1;2.012500048E0
8.552518750E0;4.891999960E-1;4.775999784E-1;-1.138499975E0
8.572371875E0;8.769999444E-2;3.119999915E-2;-4.580000043E-2
8.592223437E0;6.222999692E-1;3.917999864E-1;-3.370000049E-2
8.612076562E0;4.697999954E-1;1.529999971E-1;-1.609999873E-2
8.631929687E0;5.126000047E-1;6.961999536E-1;7.159999758E-2
8.651782812E0;1.189999953E-1;6.633999944E-1;-4.229999781E-1
8.671634375E0;4.245999753E-1;1.335999966E0;-6.697999835E-1
8.691487500E0;5.008000135E-1;9.875999689E-1;-3.258000016E-1
8.711340625E0;2.017000020E-1;1.187299967E0;2.931999862E-1
8.731192187E0;-1.470099926E0;1.065699935E0;-4.623000026E-1
8.751045312E0;-2.573799849E0;-1.788000017E-1;-2.488999963E-1
8.770898437E0;-2.233999968E0;-1.350600004E0;1.127799988E0
8.790750000E0;-7.924000025E-1;-1.709699988E0;1.667999923E-1
8.810603125E0;-4.790999889E-1;2.139999904E-2;2.649999969E-2
8.830456250E0;-5.776999593E-1;2.246999890E-1;-3.445999920E-1
8.850307812E0;-3.881999850E-1;8.649999499E-1;-9.134999514E-1
8.870160937E0;1.150799990E0;2.419399977E0;-1.048000008E-1
8.890014062E0;1.627200007E0;1.046000004E0;-1.285200000E0
8.909867187E0;8.654999733E-1;-1.291000009E0;1.199899912E0
8.929718750E0;4.535999894E-1;-2.126499891E0;1.149199963E0
8.949571875E0;6.247999668E-1;2.017000020E-1;7.664999962E-1
8.969425000E0;3.134999871E-1;1.462299943E0;1.381199956E0
8.989276562E0;8.450999856E-1;1.176900029E0;1.999000013E-1
9.009129687E0;1.084599972E0;-8.525999784E-1;1.569999903E-1
9.028981250E0;2.466099977E0;-2.384299994E0;5.410999656E-1
9.048834375E0;1.498600006E0;-1.365899920E0;-2.076499939E0
9.068687500E0;2.714999914E-1;1.639999896E-1;-6.721999645E-1
9.088540625E0;2.162999958E-1;1.313099980E0;9.925999641E-1
9.108392187E0;-3.339000046E-1;2.269999981E-1;7.306999564E-1
9.128245312E0;-2.802999914E-1;-5.231999755E-1;9.969999641E-2
9.148098437E0;1.519999932E-2;-8.707000017E-1;-8.249999583E-2
9.167950000E0;9.115999937E-1;1.096699953E0;7.907999754E-1
9.187803125E0;1.828999966E-1;8.783999681E-1;-1.057699919E0
9.207656250E0;-1.329399943E0;-3.542999923E-1;-2.863999903E-1
9.227507812E0;-7.874000072E-1;-2.060000040E-2;1.237800002E0
9.247360937E0;-2.308999896E-1;-9.483999610E-1;6.347000003E-1
9.267214062E0;1.314000010E0;-8.009999990E-1;-2.019999921E-2
9.287067187E0;1.820499897E0;-9.716999531E-1;-7.411999702E-1
9.306918750E0;7.098999619E-1;-1.312899947E0;2.177999914E-1
9.326771875E0;-1.509299994E0;-7.429999858E-2;9.001999497E-1
9.346625000E0;6.312999725E-1;-1.329199910E0;-2.115999907E-1
9.366476562E0;-9.156000018E-1;-3.978999853E-1;-4.257999957E-1
9.386329687E0;5.499999970E-3;9.855999947E-1;5.432000160E-1
9.406182812E0;1.845699906E0;7.299000025E-1;-2.229199886E0
9.426034375E0;2.013599873E0;1.281999946E0;3.466999829E-1
9.445887500E0;2.434299946E0;3.386600018E0;2.213999987E0
9.465740625E0;1.607499957E0;2.209499836E0;8.118999600E-1
9.485592187E0;-2.148299932E0;-7.681999803E-1;-1.159199953E0
9.505445312E0;-2.701999843E-1;-7.331999540E-1;-4.578999877E-1
9.525298437E0;8.779999614E-1;-1.198400021E0;7.257999778E-1
9.545150000E0;7.150999904E-1;-2.233999968E-1;-4.405999780E-1
9.565003125E0;-2.809999883E-1;8.179999888E-2;-1.581399918E0
9.584856250E0;-5.069999695E-1;4.452999830E-1;-1.200099945E0
9.604709375E0;4.395999908E-1;1.846300006E0;-4.870999753E-1
9.624560937E0;8.287000060E-1;7.849999517E-2;1.151799917E0
9.644414062E0;9.289999604E-1;-2.705000043E-1;1.343699932E0
9.664271875E0;1.243399978E0;1.153499961E0;-4.215999842E-1
9.684118750E0;8.847000003E-1;6.739000082E-1;-7.461999655E-1
9.703971875E0;2.114999890E-1;6.988999844E-1;6.199999899E-2
9.723825000E0;-3.657999933E-1;-1.671999991E-1;2.981999815E-1
9.743678125E0;-8.733999729E-1;-2.287299871E0;-5.167999864E-1
9.763529687E0;-6.254000068E-1;-6.679999828E-1;-8.345999718E-1
9.783382812E0;2.823999822E-1;8.969999850E-2;-1.255999923E0
9.803235937E0;9.499999881E-2;5.609999895E-1;-1.433699965E0
9.823087500E0;-7.390999794E-1;5.511000156E-1;1.173799992E0
9.842940625E0;-1.127499938E0;-3.519999981E-2;2.997699976E0
9.862793750E0;-2.644999921E-1;-4.705999792E-1;2.329999954E-1
9.882645312E0;5.770999789E-1;-8.529999852E-2;-7.351999879E-1
9.902498437E0;1.979999989E-2;4.100000020E-3;6.600999832E-1
9.922351562E0;6.714000106E-1;-6.279000044E-1;1.274999976E-1
9.942203125E0;8.323000073E-1;3.459999859E-1;-3.502999842E-1
9.962056250E0;1.003700018E0;4.942999780E-1;-4.327999949E-1
9.981909375E0;2.251999974E-1;1.444999933E0;-3.738999963E-1
1.000176250E1;-4.429000020E-1;5.345000029E-1;1.249799967E0
1.002161406E1;1.180999950E-1;-6.054999828E-1;1.351699948E0
1.004146719E1;8.698999882E-1;-1.593099952E0;-3.159999847E-2
1.006132031E1;9.932000041E-1;-1.113099933E0;-1.067299962E0
1.008117188E1;7.983999848E-1;-4.059999809E-2;-1.163999960E-1
1.010102500E1;3.209999800E-1;-2.457999885E-1;8.040999770E-1
1.012087812E1;4.803999960E-1;-9.742999673E-1;5.428999662E-1
1.014073125E1;-7.181000113E-1;-2.273000002E0;1.058099985E0
1.016058281E1;-7.379999757E-1;1.873499990E0;9.764999747E-1
1.018043594E1;-6.186000109E-1;2.172499895E0;-2.997699976E0
1.020028906E1;-8.624999523E-1;7.989000082E-1;-1.206200004E0
1.022014062E1;-1.112499952E0;-9.200999737E-1;3.480000049E-2
1.023999219E1;-3.788000047E-1;-6.032999754E-1;2.011399984E0
1.025984531E1;6.664999723E-1;-1.949999928E-1;2.183199883E0
1.027969844E1;3.366999924E-1;-3.278999925E-1;1.836999953E-1
1.029955156E1;9.978999496E-1;7.353999615E-1;-1.594900012E0
1.031940313E1;1.227900028E0;1.366599917E0;-1.483099937E0
1.033925625E1;4.316999912E-1;7.430999875E-1;-4.477999806E-1
1.035910938E1;1.486999989E-1;3.001999855E-1;4.506999850E-1
1.037896094E1;2.229999937E-2;9.200000204E-3;1.299299955E0
1.039881406E1;-3.495000005E-1;-2.985000014E-1;1.029099941E0
1.041866719E1;-7.907999754E-1;-4.729999900E-1;7.251999974E-1
1.043852031E1;-2.750999928E-1;-2.924999893E-1;5.278999805E-1
1.045837188E1;7.130999565E-1;4.502999783E-1;1.378899932E0
1.047822500E1;1.919199944E0;7.595999837E-1;-7.117999792E-1
1.049807813E1;2.802700043E0;1.584299922E0;-2.803999901E0
1.051792969E1;2.253700018E0;1.137699962E0;-1.080899954E0
1.053778281E1;4.258999825E-1;7.899999619E-3;4.239999950E-1
1.055763594E1;-4.109999835E-1;8.069999516E-2;6.130999923E-1
1.057748750E1;7.100000046E-3;4.306999743E-1;1.048999950E-1
1.059734063E1;-1.033999994E-1;-2.733999789E-1;-3.517999947E-1
1.061719375E1;1.340000033E-1;-8.709999919E-2;-6.412000060E-1
1.063704531E1;9.439999610E-2;2.976000011E-1;-1.986999959E-1
1.065689844E1;8.229999989E-2;2.764999866E-1;1.799999923E-1
1.067675156E1;-6.469999999E-2;-2.510000020E-2;-1.450999975E-1
1.069660313E1;-3.779999912E-2;-6.729999930E-2;-2.615000010E-1
1.071645625E1;-9.539999813E-2;2.049999870E-2;-2.119999975E-1
1.073630938E1;1.162999943E-1;1.733999997E-1;-1.807999909E-1
1.075616250E1;4.264999926E-1;3.401999772E-1;2.638999820E-1
1.077601406E1;5.525999665E-1;3.805999756E-1;2.219000012E-1
1.079586719E1;4.129999876E-1;2.210999876E-1;1.574999988E-1
1.081572031E1;2.281999886E-1;2.199999988E-2;-3.579999879E-2
1.083557188E1;1.445000023E-1;5.040000007E-2;2.269999869E-2
1.085542500E1;2.046999931E-1;1.428999901E-1;-8.969999850E-2
1.087527813E1;4.395999908E-1;2.669000030E-1;-1.764999926E-1
1.089513125E1;3.790999949E-1;1.298999935E-1;3.659999743E-2
1.091498281E1;3.017999828E-1;1.078999937E-1;9.899999946E-3
1.093483594E1;7.090000063E-2;1.624999940E-1;4.007999897E-1
1.095468906E1;1.731999964E-1;3.145999908E-1;2.243999988E-1
1.097454063E1;3.094999790E-1;3.340999782E-1;8.769999444E-2
1.099439375E1;2.577999830E-1;1.252999902E-1;-1.215999946E-1
1.101424688E1;1.916999966E-1;7.699999958E-2;-2.043000013E-1
1.103409844E1;9.519999474E-2;1.423999965E-1;-1.559999958E-2
1.105395156E1;-8.499999531E-3;1.310999990E-1;2.180000022E-2
1.107380469E1;1.819999889E-2;1.231999993E-1;-9.059999883E-2
1.109365625E1;6.480000168E-2;6.399999559E-2;-6.599999964E-2
1.111350938E1;1.009999961E-2;5.059999973E-2;-1.955999881E-1
1.113336250E1;4.419999942E-2;1.638000011E-1;-9.899999946E-2
1.115321563E1;7.989999652E-2;1.609999985E-1;2.463999987E-1
1.117306719E1;2.137999982E-1;2.712000012E-1;-1.224999949E-1
1.119292031E1;3.312000036E-1;1.929999888E-1;1.808999926E-1
1.121277344E1;2.960999906E-1;1.061000004E-1;1.401999891E-1
1.123262500E1;1.807999909E-1;2.665999830E-1;-1.199999941E-3
1.125247813E1;1.990000010E-1;2.119999975E-1;4.569999874E-2
1.127233125E1;5.250999928E-1;1.815000027E-1;-1.140000001E-1
1.129218281E1;7.532999516E-1;1.277000010E-1;6.889999658E-2
1.131203594E1;4.608999789E-1;7.869999856E-2;1.802999973E-1
1.133188906E1;4.169999808E-2;1.858000010E-1;9.679999948E-2
1.135174219E1;-1.014999971E-1;1.577999890E-1;-4.230000079E-2
1.137159375E1;-2.679999918E-2;1.105000004E-1;-9.849999845E-2
1.139144688E1;-6.920000166E-2;1.201999933E-1;-9.499999881E-2
1.141130000E1;-1.229999959E-1;1.758999974E-1;-6.619999558E-2
1.143115156E1;-4.289999977E-2;1.521999985E-1;-1.715999991E-1
1.145100469E1;2.698999941E-1;5.699999630E-3;-3.890999854E-1
1.147085781E1;4.447000027E-1;-3.859999776E-2;-2.737999856E-1
1.149070938E1;2.472999990E-1;8.909999579E-2;2.769999951E-2
1.151056250E1;-5.669999868E-2;2.122000009E-1;2.228000015E-1
1.153041562E1;-1.277000010E-1;2.666999996E-1;7.979999483E-2
1.155026719E1;5.509999767E-2;3.156999946E-1;-4.449999705E-2
1.157012031E1;2.079999894E-1;2.606000006E-1;-9.109999985E-2
1.158997344E1;3.195999861E-1;1.384000033E-1;-5.309999734E-2
1.160982500E1;4.109999835E-1;2.769999951E-2;1.359999925E-2
1.162967812E1;4.813999832E-1;3.299999982E-2;-3.089999966E-2
1.164953125E1;4.176999927E-1;-4.699999932E-3;3.790000081E-2
1.166938438E1;2.096000016E-1;1.017000005E-1;8.240000159E-2
1.168923594E1;8.179999888E-2;1.484999955E-1;6.159999967E-2
1.170908906E1;9.749999642E-2;1.472000033E-1;-7.400000095E-2
1.172894062E1;3.399999812E-2;1.833999902E-1;1.389999967E-2
1.174879375E1;3.779999912E-2;2.301999927E-1;-1.840000041E-2
1.176864688E1;9.739999473E-2;2.307999879E-1;5.139999837E-2
1.178850000E1;1.040999964E-1;2.624000013E-1;-3.339999914E-2
1.180835156E1;1.889999956E-1;1.773999929E-1;-1.287999898E-1
1.182820938E1;3.375999928E-1;9.299999475E-2;-1.942999959E-1
1.184805625E1;4.255999923E-1;-2.139999904E-2;-2.823999822E-1
1.186790938E1;2.717999816E-1;-7.970000058E-2;-3.935000002E-1
1.188776250E1;9.999999776E-3;-8.579999954E-2;-2.414999902E-1
1.190761562E1;-9.510000050E-2;4.369999841E-2;-1.198999956E-1
1.192747344E1;-1.020999998E-1;2.029999942E-1;9.019999951E-2
1.194732031E1;-5.329999700E-2;2.680999935E-1;1.869999915E-1
1.196717500E1;1.784999967E-1;3.010999858E-1;2.100999951E-1
1.198702656E1;3.492999971E-1;2.430999875E-1;1.612000018E-1
1.200687812E1;3.910000026E-1;2.155999988E-1;1.199999941E-3
1.202673125E1;6.295999885E-1;1.255999953E-1;-5.979999900E-2
1.204658438E1;8.149999976E-1;2.699999837E-3;7.699999958E-3
1.206643594E1;3.271999955E-1;-2.799999900E-2;2.259999886E-2
1.208628906E1;-1.318999976E-1;6.439999491E-2;-1.023999974E-1
1.210614219E1;-1.516999900E-1;1.463999897E-1;-2.020999938E-1
1.212599375E1;4.439999908E-2;1.613999903E-1;-1.440999955E-1
1.214584688E1;1.154999956E-1;2.093999982E-1;-3.130000085E-2
1.216570000E1;1.090999991E-1;1.911999881E-1;-4.299999680E-3
1.218555156E1;1.595999897E-1;1.427000016E-1;-5.009999871E-2
1.220540469E1;2.762999833E-1;7.409999520E-2;-8.159999549E-2
1.222525781E1;1.645999998E-1;8.299999684E-2;-1.485999972E-1
1.224511094E1;3.359999880E-2;9.119999409E-2;-1.072999984E-1
1.226496250E1;9.019999951E-2;1.396999955E-1;-2.389999852E-2
1.228481562E1;2.458999902E-1;1.013999954E-1;-6.699999794E-3
1.230466875E1;2.849999964E-1;1.508999914E-1;1.260000002E-2
1.232452031E1;2.557999790E-1;1.507000029E-1;-2.609999850E-2
1.234437344E1;2.069999874E-1;1.206999943E-1;-5.499999970E-2
1.236422656E1;1.384999901E-1;8.029999584E-2;-3.529999778E-2
1.238407812E1;7.019999623E-2;1.083999947E-1;-1.132999957E-1
1.240393125E1;1.300999969E-1;1.468999982E-1;-8.190000057E-2
1.242378438E1;1.993999928E-1;1.275999993E-1;-9.999999404E-2
1.244363594E1;2.093999982E-1;7.899999619E-2;-8.009999990E-2
1.246348906E1;1.599999964E-1;1.174999997E-1;-1.229999959E-2
1.248334219E1;7.159999758E-2;1.846999973E-1;-2.269999869E-2
1.250319531E1;7.169999927E-2;1.832999885E-1;-6.189999729E-2
1.252304688E1;1.497000009E-1;1.442999989E-1;-1.021999940E-1
1.254290000E1;1.578999907E-1;9.449999779E-2;-6.650000066E-2
1.256275312E1;2.630999982E-1;7.409999520E-2;-1.017999947E-1
1.258260469E1;3.586999774E-1;1.130999997E-1;-1.265999973E-1
1.260245781E1;2.400999963E-1;1.720999926E-1;8.799999952E-3
1.262231094E1;1.229999959E-1;1.817999929E-1;9.999999747E-5
1.264216406E1;1.145999953E-1;1.635999978E-1;-8.469999582E-2
1.266201562E1;1.160999984E-1;6.719999760E-2;-1.008999944E-1
1.268186875E1;1.269000024E-1;9.719999880E-2;-5.949999765E-2
1.270172031E1;8.819999546E-2;1.445999891E-1;-4.879999906E-2
1.272157344E1;1.371999979E-1;1.422999948E-1;-1.278000027E-1
1.274142656E1;2.151999921E-1;1.418000013E-1;-1.682000011E-1
1.276127969E1;2.437999994E-1;1.217999980E-1;-8.169999719E-2
1.278113125E1;1.542000026E-1;1.404999942E-1;-2.589999884E-2
1.280098438E1;5.489999801E-2;1.781999916E-1;-5.819999799E-2
1.282084062E1;1.324999928E-1;1.101999953E-1;-1.286000013E-1
1.284069062E1;2.597999871E-1;2.429999970E-2;-8.929999918E-2
1.286054219E1;1.228000000E-1;1.028999984E-1;1.929999888E-2
1.288039531E1;2.469999902E-2;1.401999891E-1;-4.999999702E-2
1.290024688E1;1.516000032E-1;9.999999404E-2;-1.788000017E-1
1.292010000E1;2.295999974E-1;1.098999977E-1;-1.306999922E-1
1.293995312E1;2.282999903E-1;1.096999943E-1;-3.539999947E-2
1.295980469E1;1.190999970E-1;1.472000033E-1;2.989999950E-2
1.297965781E1;9.820000082E-2;1.656000018E-1;-1.297999918E-1
1.299951094E1;1.861999929E-1;1.367999911E-1;-1.008999944E-1
1.301936250E1;1.767999977E-1;9.799999744E-2;-3.130000085E-2
1.303921562E1;1.862999946E-1;1.079999954E-1;-7.109999657E-2
1.305906875E1;1.466999948E-1;1.271999925E-1;-6.219999865E-2
1.307892031E1;1.169999987E-1;1.460999995E-1;-1.216999963E-1
1.309877344E1;1.466999948E-1;1.165999994E-1;-1.015999988E-1
1.311862656E1;1.468999982E-1;1.166999936E-1;-9.149999917E-2
1.313847812E1;1.463999897E-1;1.163999960E-1;-9.239999950E-2
1.315833125E1;1.553999931E-1;1.160999984E-1;-1.235999987E-1
1.317818438E1;1.740999967E-1;1.165999994E-1;-7.649999857E-2
1.319803594E1;2.123999894E-1;8.739999682E-2;-8.819999546E-2
1.321788906E1;1.530999988E-1;7.779999822E-2;-5.979999900E-2
1.323774219E1;1.432999969E-1;1.356000006E-1;-1.089999974E-1
1.325759531E1;1.336999983E-1;1.063999981E-1;-6.929999590E-2
1.327744688E1;1.338000000E-1;1.162000000E-1;-5.920000002E-2
1.329730000E1;1.431999952E-1;9.609999508E-2;-7.989999652E-2
1.331715312E1;1.425999999E-1;1.150999963E-1;-1.008000001E-1
1.333700469E1;1.718000025E-1;8.529999852E-2;-1.013999954E-1
1.335685781E1;1.909999996E-1;1.344999969E-1;-9.250000119E-2
1.337671094E1;1.411999911E-1;1.342999935E-1;-6.480000168E-2
1.339656406E1;1.303000003E-1;1.248999983E-1;-1.061999947E-1
1.341641562E1;1.692000031E-1;8.709999919E-2;-1.162999943E-1
1.343626875E1;1.400000006E-1;7.809999585E-2;-2.749999985E-2
1.345612188E1;1.401999891E-1;1.265999973E-1;-8.590000123E-2
1.347597344E1;1.403999925E-1;1.162000000E-1;-1.151999980E-1
1.349582656E1;1.600999981E-1;1.057999954E-1;-9.529999644E-2
1.351567969E1;1.696999967E-1;9.549999982E-2;-1.156999990E-1
1.353553125E1;1.592999995E-1;1.048999950E-1;-1.072999984E-1
1.355538438E1;1.685999930E-1;9.519999474E-2;-6.909999996E-2
1.357523750E1;1.093999967E-1;1.241999939E-1;-5.040000007E-2
1.359509063E1;9.929999709E-2;1.332999915E-1;-1.098999977E-1
1.361494219E1;1.973999888E-1;5.519999936E-2;-1.392000020E-1
1.363479531E1;2.067999989E-1;5.539999902E-2;-8.109999448E-2
1.365465156E1;1.374000013E-1;1.327999979E-1;-5.350000039E-2
1.367450000E1;1.371999979E-1;1.026999950E-1;-1.128999963E-1
1.369435313E1;1.960999966E-1;1.138999984E-1;-9.290000051E-2
1.371420625E1;1.273999959E-1;9.479999542E-2;-4.380000010E-2
1.373405938E1;8.779999614E-2;1.037999988E-1;-8.410000056E-2
1.375391094E1;1.660999954E-1;6.430000067E-2;-1.629000008E-1
1.377376406E1;2.053999901E-1;9.339999408E-2;-1.039999947E-1
1.379361719E1;1.658999920E-1;1.015999988E-1;-5.590000004E-2
1.381347188E1;2.048999965E-1;1.201999933E-1;-1.155999973E-1
1.383332188E1;1.657999903E-1;7.050000131E-2;-7.620000094E-2
1.385317500E1;9.749999642E-2;1.278999895E-1;-4.619999975E-2
1.387302656E1;1.277000010E-1;1.167999953E-1;-6.449999660E-2
1.389287969E1;1.481000036E-1;8.649999648E-2;-1.218999997E-1
1.391273281E1;1.486999989E-1;8.559999615E-2;-1.207999960E-1
1.393258438E1;1.683000028E-1;1.334999949E-1;-1.112999991E-1
1.395243750E1;1.580999941E-1;1.124999970E-1;-9.279999882E-2
1.397229063E1;1.379999965E-1;1.405999959E-1;-6.480000168E-2
1.399214219E1;1.374000013E-1;1.202999949E-1;-7.589999586E-2
1.401199531E1;1.570999920E-1;8.049999923E-2;-1.150999963E-1
1.403184844E1;1.767999977E-1;6.059999764E-2;-8.549999446E-2
1.405170156E1;1.572999954E-1;8.909999579E-2;-6.589999795E-2
1.407155313E1;1.479000002E-1;1.270000041E-1;-6.539999694E-2
1.409140625E1;1.384999901E-1;1.071999967E-1;-7.429999858E-2
1.411125781E1;1.096999943E-1;8.709999919E-2;-1.026000008E-1
1.413111094E1;1.198999956E-1;6.669999659E-2;-1.017999947E-1
1.415096406E1;1.498000026E-1;1.048999950E-1;-7.159999758E-2
1.417081719E1;1.501999944E-1;7.429999858E-2;-9.059999883E-2
1.419066875E1;1.699000001E-1;9.290000051E-2;-8.100000024E-2
1.421052188E1;1.402999908E-1;1.111999974E-1;-5.219999701E-2
1.423037500E1;1.696999967E-1;6.140000001E-2;-8.190000057E-2
1.425022656E1;1.402999908E-1;9.079999477E-2;-9.160000086E-2
1.427007969E1;1.403999925E-1;6.069999933E-2;-7.189999521E-2
1.428993281E1;1.696999967E-1;8.940000087E-2;-9.179999679E-2
1.430978438E1;1.500999928E-1;8.810000122E-2;-8.229999989E-2
1.432963750E1;1.700999886E-1;1.265999973E-1;-1.013999954E-1
1.434949063E1;1.605999917E-1;9.739999473E-2;-7.129999995E-2
1.436934219E1;1.410000026E-1;1.169999987E-1;-5.159999803E-2
1.438919531E1;1.108999997E-1;6.790000200E-2;-6.300000101E-2
1.440904844E1;1.494999975E-1;4.820000008E-2;-8.389999717E-2
1.442890000E1;1.685999930E-1;4.800000042E-2;-1.046999991E-1
1.444875313E1;1.976999938E-1;6.729999930E-2;-9.559999406E-2
1.446860625E1;1.586000025E-1;7.599999756E-2;-6.610000134E-2
1.448845781E1;1.585000008E-1;1.041999981E-1;-1.058999971E-1
1.450831094E1;1.683999896E-1;8.399999887E-2;-1.644999981E-1
1.452816406E1;1.491999924E-1;8.280000091E-2;-7.580000162E-2
1.454801719E1;1.200999990E-1;1.204999983E-1;2.899999963E-3
1.456786875E1;1.197999939E-1;6.189999729E-2;-1.643999964E-1
1.458772656E1;1.790999919E-1;1.015999988E-1;-9.459999949E-2
1.460757500E1;1.498000026E-1;7.220000029E-2;-1.138999984E-1
1.462742656E1;1.592999995E-1;5.219999701E-2;-8.519999683E-2
1.464727969E1;1.395999938E-1;6.159999967E-2;-1.149999946E-1
1.466713281E1;1.687999964E-1;7.090000063E-2;-8.599999547E-2
1.468698906E1;1.489000022E-1;6.039999798E-2;-7.710000128E-2
1.470683750E1;1.486999989E-1;8.929999918E-2;-1.068999991E-1
1.472669063E1;1.588999927E-1;4.949999973E-2;-1.162000000E-1
1.474654375E1;1.493999958E-1;8.769999444E-2;-7.639999688E-2
1.476639531E1;1.398999989E-1;8.729999512E-2;-8.569999784E-2
1.478624844E1;1.494999975E-1;1.068999991E-1;-1.055999994E-1
1.480610156E1;1.392000020E-1;1.166999936E-1;-1.262999922E-1
1.482595313E1;1.583999991E-1;6.780000031E-2;-1.076999977E-1
1.484580625E1;1.876000017E-1;7.789999992E-2;-1.081999987E-1
1.486565938E1;1.577999890E-1;9.779999405E-2;-8.919999748E-2
1.488551094E1;1.476999968E-1;8.789999783E-2;-8.980000019E-2
1.490536406E1;1.379999965E-1;7.719999552E-2;-7.009999454E-2
1.492521719E1;1.481000036E-1;4.759999737E-2;-8.929999918E-2
1.494506875E1;1.386999935E-1;6.669999659E-2;-6.879999489E-2
1.496492188E1;1.384999901E-1;7.589999586E-2;-6.939999759E-2
1.498477500E1;1.772999913E-1;4.589999840E-2;-8.020000160E-2
1.500463281E1;1.673000008E-1;3.590000048E-2;-1.199999973E-1
1.502447969E1;1.768999994E-1;7.509999722E-2;-1.400000006E-1
1.504433281E1;1.378999949E-1;6.539999694E-2;-1.004000008E-1
1.506418594E1;1.181999967E-1;1.043999940E-1;-8.089999855E-2
1.508403750E1;1.278000027E-1;9.409999847E-2;-8.150000125E-2
1.510389063E1;1.375000030E-1;4.499999806E-2;-9.160000086E-2
1.512374375E1;1.173999980E-1;8.359999955E-2;-9.269999713E-2
1.514359688E1;1.561999917E-1;7.239999622E-2;-8.419999480E-2
1.516344844E1;1.560999900E-1;9.109999985E-2;-1.040999964E-1
1.518330156E1;1.562999934E-1;1.096999943E-1;-4.509999976E-2
1.520315469E1;1.366999894E-1;7.989999652E-2;-1.138999984E-1
1.522300781E1;1.366999894E-1;9.929999709E-2;-1.237000003E-1
1.524285938E1;1.856999993E-1;3.139999881E-2;-7.449999452E-2
1.526271250E1;1.562999934E-1;6.109999865E-2;-8.419999480E-2
1.528256406E1;1.172999963E-1;9.959999472E-2;-6.430000067E-2
1.530241719E1;1.468999982E-1;8.909999579E-2;-7.389999926E-2
1.532227031E1;1.765999943E-1;9.879999608E-2;-1.322999895E-1
1.534212344E1;1.369999945E-1;5.929999799E-2;-9.369999915E-2
1.536197500E1;1.366000026E-1;7.889999449E-2;-7.509999722E-2
1.538182812E1;1.560000032E-1;8.879999816E-2;-5.579999834E-2
1.540167969E1;1.460999995E-1;7.939999551E-2;-1.149000004E-1
1.542153281E1;1.753999889E-1;8.889999986E-2;-8.579999954E-2
1.544138594E1;1.750999987E-1;7.880000025E-2;-8.649999648E-2
1.546123750E1;1.553999931E-1;6.870000064E-2;-6.709999591E-2
1.548109062E1;1.259000003E-1;5.879999697E-2;-1.163999960E-1
1.550094375E1;1.552999914E-1;6.870000064E-2;-1.162999943E-1
1.552079531E1;1.747999936E-1;5.879999697E-2;-1.165999994E-1
1.554064844E1;1.551999897E-1;7.829999924E-2;-9.709999710E-2
1.556050156E1;1.550000012E-1;6.830000132E-2;-1.269000024E-1
1.558035312E1;1.744000018E-1;4.869999737E-2;-1.273999959E-1
1.560021250E1;1.447999924E-1;5.879999697E-2;-1.178999990E-1
1.562005938E1;1.352999955E-1;6.849999726E-2;-1.074999943E-1
1.563991250E1;1.450999975E-1;9.769999981E-2;-1.172999963E-1
1.565976562E1;1.353999972E-1;6.799999624E-2;-9.759999812E-2
1.567961719E1;1.545999944E-1;8.760000020E-2;-1.180000007E-1
1.569947031E1;1.932999939E-1;4.889999703E-2;-1.287999898E-1
1.571932188E1;2.027999908E-1;4.959999770E-2;-6.079999730E-2
1.573917500E1;1.435000002E-1;5.949999765E-2;-7.149999589E-2
1.575902812E1;1.336999983E-1;1.092000008E-1;-1.008000001E-1
1.577887969E1;1.630000025E-1;4.189999774E-2;-1.005999967E-1
1.579873281E1;1.336999983E-1;3.269999847E-2;-5.130000040E-2
1.581858594E1;1.518999934E-1;4.250000045E-2;-8.370000124E-2
1.583843750E1;1.603000015E-1;5.209999904E-2;-1.162000000E-1
1.585829062E1;1.694999933E-1;5.119999871E-2;-9.820000082E-2
1.587814375E1;1.596999913E-1;8.999999613E-2;-6.870000064E-2
1.589799688E1;1.598999947E-1;9.919999540E-2;-5.879999697E-2
1.591784844E1;1.306999922E-1;6.969999522E-2;-9.749999642E-2
1.593770156E1;1.309999973E-1;4.050000012E-2;-1.065999940E-1
1.595755469E1;1.310999990E-1;3.049999848E-2;-9.649999440E-2
1.597740625E1;1.605999917E-1;7.829999924E-2;-1.063999981E-1
1.599725938E1;1.703999937E-1;7.769999653E-2;-1.360999942E-1
1.601711250E1;1.606999934E-1;7.679999620E-2;-9.690000117E-2
1.603696562E1;1.313000023E-1;8.569999784E-2;-1.164999977E-1
1.605681719E1;1.411999911E-1;2.639999986E-2;-7.719999552E-2
1.607667031E1;1.415999979E-1;6.499999762E-2;-7.660000026E-2
1.609652344E1;1.711999923E-1;6.459999830E-2;-6.650000066E-2
1.611637500E1;1.614999920E-1;5.389999971E-2;-5.649999902E-2
1.613622813E1;1.517999917E-1;5.289999768E-2;-1.057999954E-1
1.615608125E1;1.520999968E-1;5.249999836E-2;-1.248999983E-1
1.617593281E1;1.428000033E-1;5.199999735E-2;-9.439999610E-2
1.619578594E1;1.238999963E-1;8.060000092E-2;-9.299999475E-2
1.621563906E1;1.340000033E-1;8.009999990E-2;-6.309999526E-2
1.623549062E1;1.537999958E-1;5.969999731E-2;-1.118999943E-1
1.625534375E1;1.534999907E-1;7.930000126E-2;-9.290000051E-2
1.627519688E1;1.335999966E-1;3.969999775E-2;-6.419999897E-2
1.629505000E1;1.432999969E-1;4.899999872E-2;-6.459999830E-2
1.631490156E1;1.630999893E-1;5.859999731E-2;-7.389999926E-2
1.633476094E1;1.341999918E-1;7.739999890E-2;-7.299999893E-2
1.635460781E1;1.349000037E-1;1.055999994E-1;-1.209999993E-1
1.637445938E1;1.647000015E-1;4.609999806E-2;-1.103999987E-1
1.639431250E1;1.551000029E-1;3.539999947E-2;-1.004000008E-1
1.641416563E1;1.356000006E-1;8.329999447E-2;-6.109999865E-2
1.643401719E1;1.554999948E-1;1.023999974E-1;-1.194999963E-1
1.645387031E1;1.948999912E-1;6.439999491E-2;-1.385999918E-1
1.647372344E1;1.554999948E-1;4.549999908E-2;-4.059999809E-2
1.649357500E1;8.599999547E-2;3.509999812E-2;-1.310000010E-2
1.651342812E1;1.347000003E-1;4.479999840E-2;-1.120999977E-1
1.653328125E1;1.741999984E-1;6.419999897E-2;-8.199999481E-2
1.655313438E1;1.645999998E-1;8.309999853E-2;-7.189999521E-2
1.657298594E1;1.547999978E-1;5.269999802E-2;-9.169999510E-2
1.659283906E1;1.353999972E-1;5.199999735E-2;-7.189999521E-2
1.661269063E1;1.160999984E-1;5.159999803E-2;-8.100000024E-2
1.663254375E1;1.457999945E-1;5.179999769E-2;-9.030000120E-2
1.665239688E1;1.753000021E-1;3.260000050E-2;-1.194999963E-1
1.667225000E1;1.554999948E-1;6.219999865E-2;-1.099999994E-1
1.669210313E1;1.552999914E-1;6.199999899E-2;-7.119999826E-2
1.671195469E1;1.649999917E-1;4.179999977E-2;-8.129999787E-2
1.673180781E1;1.747999936E-1;4.160000011E-2;-1.107999980E-1
1.675166094E1;1.651999950E-1;2.159999870E-2;-8.109999448E-2
1.677151250E1;1.259000003E-1;6.979999691E-2;-6.189999729E-2
1.679136562E1;1.357000023E-1;5.920000002E-2;-1.110999957E-1
1.681121719E1;1.753000021E-1;7.909999788E-2;-1.004000008E-1
1.683107031E1;1.557999998E-1;8.949999511E-2;-1.097999960E-1
1.685092344E1;1.456999928E-1;6.049999967E-2;-1.102999970E-1
1.687077500E1;1.649999917E-1;3.159999847E-2;-1.109999940E-1
1.689062813E1;1.356000006E-1;2.229999937E-2;-9.119999409E-2
1.691048125E1;1.456999928E-1;2.199999988E-2;-1.100999936E-1
1.693033281E1;1.657999903E-1;6.069999933E-2;-7.979999483E-2
1.695018594E1;1.270000041E-1;8.929999918E-2;-9.879999608E-2
1.697003906E1;1.467999965E-1;4.939999804E-2;-8.879999816E-2
1.698989062E1;1.369999945E-1;5.859999731E-2;-1.084999964E-1
1.700974375E1;1.562999934E-1;5.799999833E-2;-1.190999970E-1
1.702959688E1;1.560000032E-1;4.829999804E-2;-8.029999584E-2
1.704945000E1;1.363999993E-1;4.859999940E-2;-7.069999725E-2
1.706930156E1;1.167999953E-1;5.779999867E-2;-9.030000120E-2
1.708915469E1;1.852999926E-1;4.749999940E-2;-1.396999955E-1
1.710900781E1;1.660999954E-1;3.790000081E-2;-1.193000004E-1
1.712885938E1;1.661999971E-1;5.729999766E-2;-1.092000008E-1
1.714871250E1;1.468999982E-1;4.749999940E-2;-1.182999983E-1
1.716856562E1;1.177999973E-1;9.609999508E-2;-8.829999715E-2
1.718841719E1;1.370999962E-1;3.680000082E-2;-9.899999946E-2
1.720827031E1;1.661999971E-1;3.729999810E-2;-3.089999966E-2
1.722812344E1;1.459999979E-1;6.729999930E-2;-1.202999949E-1
1.724798125E1;2.039999962E-1;2.859999985E-2;-9.250000119E-2
1.726782812E1;1.644999981E-1;4.839999974E-2;-6.369999796E-2
1.728768125E1;1.349000037E-1;5.729999766E-2;-6.419999897E-2
1.730753438E1;1.744999886E-1;5.689999834E-2;-1.616999954E-1
1.732738594E1;1.653999984E-1;5.719999969E-2;-9.129999578E-2
1.734723906E1;1.362999976E-1;5.729999766E-2;-8.069999516E-2
1.736709219E1;1.169999987E-1;4.739999771E-2;-9.979999810E-2
1.738694531E1;1.367999911E-1;6.669999659E-2;-8.969999850E-2
1.740679688E1;1.464999914E-1;3.689999878E-2;-9.989999980E-2
1.742665000E1;1.854999959E-1;7.589999586E-2;-1.004000008E-1
1.744650312E1;1.361999959E-1;5.570000038E-2;-8.139999956E-2
1.746635469E1;1.359999925E-1;4.549999908E-2;-8.190000057E-2
1.748620781E1;1.556999981E-1;3.529999778E-2;-8.190000057E-2
1.750606094E1;1.363999993E-1;1.569999941E-2;-1.008999944E-1
1.752591250E1;1.366999894E-1;5.389999971E-2;-6.109999865E-2
1.754576562E1;1.169999987E-1;5.260000005E-2;-8.119999617E-2
1.756561875E1;1.463000029E-1;1.010999978E-1;-9.149999917E-2
1.758547031E1;1.949999928E-1;3.289999813E-2;-1.018999964E-1
1.760532344E1;1.650999933E-1;3.379999846E-2;-6.350000203E-2
1.762517656E1;1.445999891E-1;2.510000020E-2;-1.043999940E-1
1.764502969E1;1.348000020E-1;1.589999907E-2;-1.041999981E-1
1.766488125E1;1.546999961E-1;5.529999733E-2;-7.419999689E-2
1.768473438E1;1.352999955E-1;7.479999959E-2;-6.379999965E-2
1.770458750E1;1.647000015E-1;4.549999908E-2;-1.520999968E-1
1.772443906E1;1.648000032E-1;2.649999969E-2;-8.309999853E-2
1.774429219E1;1.349999905E-1;3.539999947E-2;-9.389999509E-2
1.776414531E1;1.250000000E-1;5.389999971E-2;-8.489999920E-2
1.778399844E1;1.641999930E-1;7.329999655E-2;-1.339000016E-1
1.780385000E1;1.840000004E-1;4.409999773E-2;-1.039999947E-1
1.782370312E1;1.542000026E-1;4.459999874E-2;-8.509999514E-2
1.784355625E1;1.242999956E-1;2.479999885E-2;-8.630000055E-2
1.786340781E1;2.022999972E-1;5.559999868E-2;-1.849000007E-1
1.788326094E1;1.930999905E-1;1.740000024E-2;-6.579999626E-2
1.790311250E1;1.145999953E-1;5.649999902E-2;-7.580000162E-2
1.792296562E1;1.238999963E-1;4.600000009E-2;-1.063999981E-1
1.794281875E1;1.241999939E-1;6.459999830E-2;-6.679999828E-2
1.796267188E1;1.339000016E-1;7.400000095E-2;-1.061999947E-1
1.798253438E1;2.026000023E-1;5.439999700E-2;-1.256999969E-1
1.800237656E1;1.727000028E-1;4.470000044E-2;-7.769999653E-2
1.802222969E1;1.524000019E-1;7.409999520E-2;-6.949999928E-2
1.804208281E1;1.420999914E-1;7.419999689E-2;-9.989999980E-2
1.806193438E1;1.228000000E-1;5.549999699E-2;-8.929999918E-2
1.808178594E1;1.621000022E-1;-1.159999985E-2;-1.573999971E-1
1.810163906E1;1.718999892E-1;9.200000204E-3;-1.080999970E-1
1.812149219E1;1.620000005E-1;8.799999952E-3;-8.879999816E-2
1.814134531E1;1.324999928E-1;9.589999914E-2;-7.939999551E-2
1.816119688E1;1.228000000E-1;7.509999722E-2;-8.929999918E-2
1.818105000E1;1.524000019E-1;4.600000009E-2;-1.279999912E-1
1.820090312E1;1.526999921E-1;4.679999873E-2;-7.809999585E-2
1.822075469E1;1.228000000E-1;3.749999776E-2;-7.899999619E-2
1.824060781E1;1.516000032E-1;2.799999900E-2;-1.097999960E-1
1.826046094E1;1.807999909E-1;2.809999883E-2;-1.002999991E-1
1.828031406E1;1.805000007E-1;2.789999917E-2;-1.010999978E-1
1.830016562E1;1.506000012E-1;7.649999857E-2;-9.239999950E-2
1.832001875E1;1.700000018E-1;3.779999912E-2;-8.289999515E-2
1.833987188E1;1.995999962E-1;9.800000116E-3;-1.115999967E-1
1.835972344E1;9.259999543E-2;1.049999986E-2;-4.089999944E-2
1.837957656E1;1.026999950E-1;2.989999950E-2;-1.186999977E-1
1.839942969E1;8.339999616E-2;4.800000042E-2;-1.281999946E-1
1.841928125E1;1.614999920E-1;5.619999766E-2;-1.393000036E-1
1.843913438E1;2.195999920E-1;4.600000009E-2;-1.310999990E-1
1.845898750E1;2.287999988E-1;1.039999947E-1;-3.449999914E-2
1.847884531E1;1.484999955E-1;6.430000067E-2;-9.749999642E-2
1.849869219E1;1.281999946E-1;5.480000004E-2;-9.879999608E-2
1.851854531E1;1.774999946E-1;7.799999788E-3;-1.567000002E-1
1.853839844E1;1.585000008E-1;9.300000034E-3;-5.689999834E-2
1.855825000E1;1.484999955E-1;-2.999999851E-4;-8.659999818E-2
1.857810313E1;1.387999952E-1;3.839999810E-2;-7.669999450E-2
1.859795625E1;1.298999935E-1;9.609999508E-2;-6.539999694E-2
1.861780781E1;1.499999911E-1;5.659999698E-2;-1.819999963E-1
1.863766094E1;1.796000004E-1;6.719999760E-2;-1.224999949E-1
1.865751406E1;1.004000008E-1;5.729999766E-2;-1.630000025E-2
1.867736562E1;1.283999979E-1;3.779999912E-2;-7.809999585E-2
1.869721875E1;1.867999882E-1;1.919999905E-2;-1.279999912E-1
1.871707188E1;2.255999893E-1;-1.950000040E-2;-9.939999878E-2
1.873692500E1;1.859000027E-1;5.869999900E-2;-7.099999487E-2
1.875677656E1;1.270000041E-1;5.790000036E-2;-4.189999774E-2
1.877662969E1;4.879999906E-2;5.700000003E-2;-5.130000040E-2
1.879648281E1;9.809999913E-2;1.740000024E-2;-9.999999404E-2
1.881633438E1;1.860999912E-1;1.750000007E-2;-1.298999935E-1
1.883618750E1;1.458999962E-1;4.649999738E-2;-8.299999684E-2
1.885604063E1;1.440999955E-1;5.549999699E-2;-9.699999541E-2
1.887589219E1;2.108999938E-1;3.590000048E-2;-6.159999967E-2
1.889574531E1;1.410999894E-1;5.509999767E-2;-7.400000095E-2
1.891559844E1;1.201999933E-1;5.480000004E-2;-7.710000128E-2
1.893545000E1;9.919999540E-2;6.489999592E-2;-1.093999967E-1
1.895530312E1;1.166999936E-1;4.639999941E-2;-1.233999953E-1
1.897515625E1;1.535999924E-1;2.769999951E-2;-7.919999957E-2
1.899500938E1;1.309999973E-1;1.730000041E-2;-2.709999867E-2
1.901486094E1;1.081999987E-1;8.419999480E-2;-4.439999908E-2
1.903471406E1;1.246999949E-1;4.389999807E-2;-1.102999970E-1
1.905456719E1;2.685000002E-1;1.589999907E-2;-1.661999971E-1
1.907441875E1;2.850999832E-1;3.619999811E-2;-6.469999999E-2
1.909427188E1;1.261000037E-1;9.439999610E-2;-4.010000080E-2
1.911412500E1;1.152999997E-1;6.480000168E-2;-1.501999944E-1
1.913397813E1;2.231999934E-1;-1.129999943E-2;-1.986999959E-1
1.915382969E1;1.843999922E-1;-2.950000018E-2;-7.970000058E-2
1.917368125E1;1.450999975E-1;-2.969999984E-2;-8.969999850E-2
1.919353594E1;1.352999955E-1;8.100000210E-3;-7.050000131E-2
1.921338750E1;1.066999957E-1;7.429999858E-2;-4.949999973E-2
1.923324062E1;8.899999410E-2;1.409000009E-1;-6.539999694E-2
1.925309375E1;1.688999981E-1;4.319999740E-2;-1.308999956E-1
1.927295156E1;2.674999833E-1;2.539999969E-2;-1.879999936E-1
1.929279844E1;1.600999981E-1;4.609999806E-2;-1.019999944E-2
1.931265156E1;1.300999969E-1;6.799999624E-3;-9.969999641E-2
1.933250313E1;1.801999956E-1;1.719999872E-2;-7.769999653E-2
1.935235625E1;1.631999910E-1;7.499999832E-3;-1.209999993E-1
1.937220938E1;1.757999957E-1;4.639999941E-2;-7.559999824E-2
1.939206094E1;1.481000036E-1;3.539999947E-2;-1.114000008E-1
1.941191406E1;1.096000001E-1;8.299999684E-2;-8.079999685E-2
1.943176719E1;1.396999955E-1;7.229999453E-2;-1.087999940E-1
1.945161875E1;2.875999808E-1;4.459999874E-2;-1.459999979E-1
1.947147656E1;1.900999993E-1;7.589999586E-2;-1.689999923E-2
1.949132500E1;2.203999907E-1;1.263999939E-1;-3.409999982E-2
1.951117656E1;5.467999578E-1;1.039000005E-1;-2.518999875E-1
1.953102969E1;-1.511999965E-1;-5.409999937E-2;2.184000015E-1
1.955088281E1;-2.192000002E-1;7.789999992E-2;-4.380000010E-2
1.957073438E1;3.555999994E-1;1.520999968E-1;-3.545999825E-1
1.959058750E1;5.314999819E-1;-9.510000050E-2;4.789999872E-2
1.961044063E1;1.570999920E-1;-1.528999954E-1;-7.329999655E-2
1.963029375E1;1.530999988E-1;-8.259999752E-2;-2.678999901E-1
1.965014531E1;-6.399999838E-3;-2.259999886E-2;-3.810000047E-2
1.966999844E1;-4.979999736E-2;1.045999974E-1;-1.551000029E-1
1.968985156E1;2.211999893E-1;2.518999875E-1;-1.823000014E-1
1.970970312E1;3.247999847E-1;1.665000021E-1;3.190000057E-1
1.972955625E1;2.761999965E-1;1.046999991E-1;3.977999985E-1
1.974940938E1;-1.948999912E-1;6.999999750E-4;-7.509999722E-2
1.976926094E1;-5.649999902E-2;-3.599999845E-2;-5.644999743E-1
1.978911406E1;2.305999994E-1;-1.013000011E-1;-3.833999932E-1
1.980896719E1;1.151999980E-1;-1.410999894E-1;-9.649999440E-2
1.982881875E1;-9.989999980E-2;-7.299999706E-3;-5.939999968E-2
1.984867188E1;-1.034999937E-1;1.546999961E-1;-2.185999900E-1
1.986853125E1;1.189999934E-2;7.989999652E-2;-1.006999984E-1
1.988837813E1;1.002999991E-1;5.480000004E-2;-5.579999834E-2
1.990822969E1;1.131999940E-1;6.889999658E-2;-1.612000018E-1
1.992808281E1;1.099999994E-1;2.399999881E-3;-2.096999884E-1
1.994793594E1;3.251999915E-1;-5.229999870E-2;-3.495999873E-1
1.996778750E1;4.342999756E-1;-7.580000162E-2;-2.694000006E-1
1.998764062E1;4.169999957E-1;-1.109999977E-2;-1.765999943E-1
2.000749375E1;1.571999937E-1;9.169999510E-2;6.889999658E-2
2.002734531E1;-1.010999978E-1;1.360999942E-1;2.369999886E-2
2.004719844E1;1.580999941E-1;1.753999889E-1;-1.915999949E-1
2.006705156E1;3.495999873E-1;7.939999551E-2;-3.189999983E-2
2.008690313E1;2.390999943E-1;6.059999764E-2;4.349999875E-2
2.010675625E1;1.664000005E-1;6.059999764E-2;-7.059999555E-2
2.012660938E1;9.119999409E-2;3.089999966E-2;-8.269999921E-2
2.014646094E1;-1.489999983E-2;2.089999989E-2;-6.929999590E-2
2.016631406E1;4.309999943E-2;2.029999904E-2;-1.885999888E-1
2.018616875E1;1.982000023E-1;2.909999900E-2;-1.439999938E-1
2.020602031E1;2.340999991E-1;2.709999867E-2;-7.379999757E-2
2.022587188E1;2.098999918E-1;6.369999796E-2;-1.630000025E-2
2.024572500E1;1.847999990E-1;4.169999808E-2;-6.870000064E-2
2.026557812E1;2.199999988E-1;3.079999983E-2;-1.077999994E-1
2.028542969E1;2.377000004E-1;4.099999741E-2;-1.316999942E-1
2.030528281E1;2.773999870E-1;3.229999915E-2;-1.304000020E-1
2.032513594E1;2.008000016E-1;4.239999875E-2;-5.739999935E-2
2.034498906E1;1.344999969E-1;2.329999954E-2;-8.119999617E-2
2.036484063E1;8.789999783E-2;1.469999924E-2;-1.439999938E-1
2.038469375E1;1.097999960E-1;1.569999941E-2;-1.286000013E-1
2.040454688E1;1.407999992E-1;6.509999931E-2;-1.150999963E-1
2.042439844E1;1.418000013E-1;1.589999907E-2;-9.319999814E-2
2.044425156E1;1.810999960E-1;4.539999738E-2;-7.329999655E-2
2.046410469E1;1.317999959E-1;2.559999935E-2;-1.033999994E-1
2.048395625E1;1.411999911E-1;4.509999976E-2;-1.239999980E-1
2.050380938E1;1.509999931E-1;6.199999712E-3;-9.449999779E-2
2.052366250E1;1.413999945E-1;6.480000168E-2;-1.235999987E-1
2.054351406E1;1.612000018E-1;1.579999924E-2;-1.133999974E-1
2.056336719E1;1.515000015E-1;2.569999918E-2;-1.327999979E-1
2.058322031E1;1.419000030E-1;3.509999812E-2;-1.127999946E-1
2.060307188E1;1.616999954E-1;6.000000052E-3;-8.280000091E-2
2.062292500E1;1.327999979E-1;4.529999942E-2;-9.139999747E-2
2.064278438E1;1.722999960E-1;3.529999778E-2;-1.299999952E-1
2.066262969E1;1.627999991E-1;2.559999935E-2;-1.195999980E-1
2.068248281E1;1.630000025E-1;4.479999840E-2;-7.999999821E-2
2.070233594E1;1.632999927E-1;4.490000010E-2;-9.869999439E-2
2.072218906E1;1.245999932E-1;5.489999801E-2;-1.072999984E-1
2.074204219E1;1.149000004E-1;7.449999452E-2;-8.739999682E-2
2.076189375E1;1.440999955E-1;2.649999969E-2;-1.171999946E-1
2.078175312E1;1.437999904E-1;2.709999867E-2;-9.809999913E-2
2.080159844E1;1.433999985E-1;-1.169999968E-2;-1.086999997E-1
2.082145156E1;1.724999994E-1;7.999999449E-3;-1.092999950E-1
2.084130312E1;1.723999977E-1;1.789999940E-2;-1.096999943E-1
2.086116250E1;1.625999957E-1;8.599999361E-3;-1.093999967E-1
2.088100938E1;1.724999994E-1;2.879999951E-2;-1.189999953E-1
2.090086250E1;1.333999932E-1;3.909999877E-2;-9.879999608E-2
2.092071406E1;1.532000005E-1;-1.899999939E-2;-8.839999884E-2
2.094056719E1;1.632999927E-1;3.019999899E-2;-7.779999822E-2
2.096042031E1;1.342999935E-1;3.989999741E-2;-1.162000000E-1
2.098027188E1;1.737999916E-1;5.949999765E-2;-1.253999919E-1
2.100012500E1;1.638000011E-1;2.060000040E-2;-1.158999950E-1
2.101997812E1;1.244999990E-1;2.080000006E-2;-8.659999818E-2
2.103983125E1;1.440999955E-1;2.099999972E-2;-8.669999987E-2
2.105968281E1;1.636999995E-1;7.009999454E-2;-9.640000015E-2
2.107953594E1;1.932999939E-1;3.139999881E-2;-1.057999954E-1
2.109938906E1;1.932999939E-1;2.199999988E-2;-1.741999984E-1
2.111924062E1;1.737999916E-1;6.119999662E-2;-1.151999980E-1
2.113909375E1;1.345999986E-1;5.169999972E-2;-1.247999966E-1
2.115894688E1;1.151999980E-1;4.209999740E-2;-1.340999901E-1
2.117879844E1;1.643999964E-1;3.289999813E-2;-9.439999610E-2
2.119865156E1;1.741999984E-1;3.359999880E-2;-9.429999441E-2
2.121850469E1;1.641999930E-1;4.900000058E-3;-1.042999998E-1
2.123835625E1;1.736999899E-1;3.509999812E-2;-1.046999991E-1
2.125820938E1;1.638000011E-1;1.599999890E-2;-9.499999881E-2
2.127806250E1;1.538999975E-1;-2.799999900E-3;-8.529999852E-2
2.129791562E1;1.733999997E-1;2.709999867E-2;-1.342999935E-1
2.131776719E1;1.340000033E-1;2.789999917E-2;-1.442999989E-1
2.133762031E1;1.437999904E-1;1.860000007E-2;-9.529999644E-2
2.135747344E1;1.340000033E-1;2.840000018E-2;-9.529999644E-2
2.137732500E1;1.240999997E-1;3.819999844E-2;-9.539999813E-2
2.139717812E1;1.533999890E-1;4.820000008E-2;-1.349999905E-1
2.141703125E1;1.727000028E-1;2.909999900E-2;-1.159999967E-1
2.143688438E1;1.916999966E-1;-9.099999443E-3;-1.169999987E-1
2.145673594E1;1.815000027E-1;5.079999939E-2;-1.079999954E-1
2.147658906E1;1.419999897E-1;4.189999774E-2;-9.839999676E-2
2.149644219E1;1.516000032E-1;7.279999554E-2;-1.181999967E-1
2.151629375E1;1.216999963E-1;1.499999966E-2;-8.949999511E-2
2.153614688E1;1.310999990E-1;6.419999897E-2;-7.090000063E-2
2.155600000E1;1.798999906E-1;3.500000015E-2;-1.204999983E-1
2.157585156E1;1.799999923E-1;3.509999812E-2;-1.005999967E-1
2.159570469E1;1.700000018E-1;1.529999916E-2;-1.207999960E-1
2.161555781E1;1.700999886E-1;4.459999874E-2;-1.008999944E-1
2.163541094E1;1.898999959E-1;-4.699999932E-3;-1.298999935E-1
2.165526250E1;1.411999911E-1;1.319999993E-2;-9.049999714E-2
2.167511562E1;1.218999997E-1;1.129999943E-2;-1.097999960E-1
2.169496875E1;1.322000027E-1;2.859999985E-2;-1.189999953E-1
2.171482031E1;1.525999904E-1;1.052999943E-1;-1.077999994E-1
2.173467344E1;1.825999916E-1;8.500000089E-2;-8.699999750E-2
2.175452656E1;1.529999971E-1;4.589999840E-2;-9.719999880E-2
2.177437969E1;1.330000013E-1;6.999999750E-3;-1.174999997E-1
2.179423125E1;1.430999935E-1;-2.399999881E-3;-1.365000010E-1
2.181408281E1;1.733999997E-1;1.750000007E-2;-1.048999950E-1
2.183393594E1;2.229999900E-1;3.669999912E-2;-7.419999689E-2
2.185379531E1;1.441999972E-1;3.529999778E-2;-7.559999824E-2
2.187364219E1;7.539999485E-2;4.399999976E-2;-1.252000034E-1
2.189349531E1;1.643999964E-1;4.419999942E-2;-1.136000007E-1
2.191334688E1;1.846999973E-1;-4.199999850E-3;-7.249999791E-2
2.193320000E1;1.849000007E-1;2.529999986E-2;-1.211999953E-1
2.195305312E1;1.456999928E-1;3.509999812E-2;-8.190000057E-2
2.197290469E1;1.358000040E-1;5.499999970E-3;-8.219999820E-2
2.199275781E1;1.649999917E-1;1.469999924E-2;-7.310000062E-2
2.201260938E1;1.545999944E-1;-3.509999812E-2;-1.432999969E-1
2.203246250E1;1.344999969E-1;1.239999942E-2;-1.840000004E-1
2.205231563E1;1.939999908E-1;5.029999837E-2;-1.042999998E-1
2.207216875E1;2.141999900E-1;7.779999822E-2;-5.399999674E-3
2.209202031E1;1.350999922E-1;5.639999732E-2;-6.599999964E-2
2.211187344E1;4.659999907E-2;1.140000001E-1;-9.640000015E-2
2.213172500E1;1.645999998E-1;6.599999964E-3;-1.445000023E-1
2.215157812E1;2.335999906E-1;-1.999999862E-3;-1.140999943E-1
2.217143125E1;1.847999990E-1;5.689999834E-2;-8.399999887E-2
2.219128438E1;1.649999917E-1;5.659999698E-2;-8.449999988E-2
2.221113594E1;1.253999919E-1;4.719999805E-2;-1.146999970E-1
2.223098906E1;9.579999745E-2;7.710000128E-2;-8.559999615E-2
2.225084219E1;1.448999941E-1;-2.999999851E-4;-9.510000050E-2
2.227069375E1;2.037999928E-1;1.999999955E-2;-4.569999874E-2
2.229054688E1;1.934999973E-1;3.940000013E-2;-1.153999940E-1
2.231040000E1;1.541000009E-1;9.200000204E-3;-1.162000000E-1
2.233025156E1;1.445999891E-1;1.869999990E-2;-1.447999924E-1
2.235010469E1;1.648999900E-1;1.869999990E-2;-8.449999988E-2
2.236995781E1;2.140999883E-1;1.789999940E-2;-4.499999806E-2
2.238981094E1;1.550000012E-1;2.649999969E-2;-8.519999683E-2
2.240966250E1;1.154999956E-1;1.559999958E-2;-8.599999547E-2
2.242951562E1;1.548999995E-1;4.399999976E-2;-1.152999997E-1
2.244936875E1;1.845999956E-1;4.259999841E-2;-1.150999963E-1
2.246922031E1;1.650999933E-1;7.109999657E-2;-7.580000162E-2
2.248907344E1;1.744999886E-1;3.089999966E-2;-6.719999760E-2
2.250892656E1;1.445999891E-1;1.090000011E-2;-9.779999405E-2
2.252877813E1;1.151999980E-1;3.049999848E-2;-1.467999965E-1
2.254863125E1;1.939999908E-1;2.999999933E-2;-1.070000008E-1
2.256848438E1;1.842999905E-1;2.939999849E-2;-1.067999974E-1
2.258833750E1;1.352999955E-1;4.820000008E-2;-9.709999710E-2
2.260818906E1;1.450999975E-1;4.719999805E-2;-1.169999987E-1
2.262804219E1;1.451999992E-1;6.659999490E-2;-6.780000031E-2
2.264789531E1;1.455999911E-1;6.749999523E-2;-1.059999987E-1
2.266774688E1;1.946999878E-1;4.910000041E-2;-9.559999406E-2
2.268760000E1;1.655000001E-1;2.089999989E-2;-1.048000008E-1
2.270745312E1;1.655000001E-1;2.499999944E-3;-1.141999960E-1
2.272730469E1;1.755999923E-1;3.399999812E-3;-7.400000095E-2
2.274715781E1;1.855999976E-1;2.349999920E-2;-8.329999447E-2
2.276701094E1;1.366000026E-1;4.289999977E-2;-7.349999994E-2
2.278686406E1;1.561999917E-1;1.349999942E-2;-9.299999475E-2
2.280671563E1;1.563999951E-1;4.319999740E-2;-1.022999957E-1
2.282656875E1;1.661999971E-1;3.499999875E-3;-1.023999974E-1
2.284642188E1;1.459999979E-1;-1.689999923E-2;-1.432999969E-1
2.286627344E1;1.555999964E-1;2.169999853E-2;-1.143999994E-1
2.288612500E1;1.655000001E-1;2.989999950E-2;-8.519999683E-2
2.290597969E1;1.650999933E-1;5.779999867E-2;-1.158999950E-1
2.292583125E1;1.356000006E-1;5.700000003E-2;-8.689999580E-2
2.294568438E1;1.747999936E-1;2.749999985E-2;-1.065999940E-1
2.296553750E1;1.947999895E-1;3.810000047E-2;-9.579999745E-2
2.298539062E1;1.366000026E-1;3.879999742E-2;-1.039999947E-1
2.300524219E1;1.366999894E-1;3.009999916E-2;-1.427000016E-1
2.302509531E1;1.366999894E-1;1.139999926E-2;-6.390000135E-2
2.304494844E1;1.562999934E-1;2.399999881E-3;-6.390000135E-2
2.306480000E1;1.754999906E-1;1.289999951E-2;-6.449999660E-2
2.308465313E1;1.753000021E-1;2.339999937E-2;-1.234999970E-1
2.310450625E1;2.146999985E-1;-5.299999844E-3;-1.231999993E-1
2.312435781E1;2.249999940E-1;3.429999948E-2;-1.118999943E-1
2.314421094E1;1.764999926E-1;6.399999559E-2;-1.106999964E-1
2.316406250E1;1.080999970E-1;5.429999903E-2;-6.119999662E-2
2.318391562E1;1.081999987E-1;5.399999768E-2;-1.001999974E-1
2.320376875E1;1.867000014E-1;-4.299999680E-3;-1.096999943E-1
2.322362188E1;1.570999920E-1;-5.200000014E-3;-1.004999951E-1
2.324348125E1;1.472999901E-1;3.139999881E-2;-1.305999905E-1
2.326332656E1;1.869999915E-1;5.920000002E-2;-1.103999987E-1
2.328317813E1;1.867000014E-1;5.709999800E-2;-7.229999453E-2
2.330303438E1;1.172999963E-1;6.520000100E-2;-8.439999819E-2
2.332288438E1;1.363999993E-1;8.500000089E-2;-1.639000028E-1
2.334273750E1;1.563999951E-1;5.659999698E-2;-7.459999621E-2
2.336258906E1;1.659999937E-1;6.749999523E-2;-6.489999592E-2
2.338244219E1;1.750999987E-1;0.000000000E0;-1.446999907E-1
2.340229531E1;1.546999961E-1;-8.499999531E-3;-1.068999991E-1
2.342214688E1;1.450999975E-1;1.179999951E-2;-1.061999947E-1
2.344200000E1;1.655000001E-1;5.179999769E-2;-6.499999762E-2
2.346185312E1;1.662999988E-1;6.250000000E-2;-2.369999886E-2
2.348170469E1;1.469999999E-1;4.369999841E-2;-1.208999977E-1
2.350155781E1;1.374000013E-1;2.609999850E-2;-1.198999956E-1
2.352141094E1;1.182999983E-1;2.789999917E-2;-1.083999947E-1
2.354126406E1;1.772999913E-1;1.950000040E-2;-9.789999574E-2
2.356111563E1;1.868999898E-1;1.999999955E-2;-6.899999827E-2
2.358096875E1;1.571999937E-1;-1.889999956E-2;-1.086999997E-1
2.360082188E1;1.670999974E-1;2.049999870E-2;-1.083000004E-1
2.362067344E1;1.673000008E-1;3.029999882E-2;-1.078999937E-1
2.364052656E1;1.674999893E-1;5.929999799E-2;-8.799999952E-2
2.366037969E1;2.066999972E-1;2.969999984E-2;-9.789999574E-2
2.368023281E1;1.669999957E-1;-9.800000116E-3;-1.284999996E-1
2.370008438E1;1.374000013E-1;-5.999999703E-4;-8.980000019E-2
2.371993750E1;1.278000027E-1;7.799999788E-3;-8.980000019E-2
2.373978906E1;1.671999991E-1;2.609999850E-2;-7.000000030E-2
2.375964219E1;1.767999977E-1;4.479999840E-2;-8.039999753E-2
2.377949531E1;1.567000002E-1;3.439999744E-2;-1.209999993E-1
2.379934844E1;1.463000029E-1;1.031999961E-1;-9.290000051E-2
2.381920000E1;1.362999976E-1;2.539999969E-2;-8.339999616E-2
2.383905313E1;1.847999990E-1;3.649999946E-2;-1.136999950E-1
2.385890625E1;1.745999902E-1;-1.799999969E-3;-6.549999863E-2
2.387875938E1;1.350999922E-1;4.729999974E-2;-6.589999795E-2
2.389861094E1;1.248999983E-1;6.729999930E-2;-8.639999479E-2
2.391846406E1;1.544999927E-1;4.899999872E-2;-6.610000134E-2
2.393832500E1;1.546999961E-1;4.030000046E-2;-9.470000118E-2
2.395816875E1;2.038999945E-1;2.699999837E-3;-8.399999887E-2
2.397802188E1;2.138999999E-1;1.429999992E-2;-1.322000027E-1
2.399787500E1;1.356000006E-1;-4.100000020E-3;-1.611000001E-1
2.401772656E1;1.648000032E-1;-3.700000001E-3;-1.220999956E-1
2.403757969E1;1.644999981E-1;5.519999936E-2;-1.128999963E-1
2.405743281E1;1.547999978E-1;1.589999907E-2;-5.389999971E-2
2.407728438E1;1.451999992E-1;7.440000027E-2;-5.359999835E-2
2.409713750E1;1.843999922E-1;-2.429999970E-2;-1.027999967E-1
2.411699063E1;1.349999905E-1;-2.559999935E-2;-1.432999969E-1
2.413684219E1;1.353999972E-1;1.179999951E-2;-1.133999974E-1
2.415669531E1;1.648999900E-1;1.939999871E-2;-1.331999898E-1
2.417654844E1;1.353999972E-1;7.599999756E-2;-7.519999892E-2
2.419640156E1;1.446999907E-1;8.349999785E-2;-4.749999940E-2
2.421625312E1;1.730999947E-1;3.350000083E-2;-4.039999843E-2
2.423610625E1;1.234999970E-1;3.350000083E-2;-7.099999487E-2
2.425595938E1;1.630000025E-1;4.299999680E-3;-1.488000005E-1
2.427581094E1;2.125999928E-1;1.389999967E-2;-1.377999932E-1
2.429566406E1;1.835999936E-1;6.179999933E-2;-9.779999405E-2
2.431551719E1;1.146999970E-1;8.029999584E-2;-7.909999788E-2
2.433537031E1;7.559999824E-2;1.098999977E-1;-5.920000002E-2
2.435522188E1;1.348000020E-1;1.399999950E-2;-7.739999890E-2
2.437507500E1;1.940999925E-1;-3.199999919E-3;-8.549999446E-2
2.439492812E1;2.633000016E-1;-4.079999775E-2;-1.133999974E-1
2.441477969E1;2.346999943E-1;-1.300000004E-3;-1.308999956E-1
2.443463281E1;1.180999950E-1;5.680000037E-2;-1.089999974E-1
2.445448594E1;7.959999889E-2;4.629999772E-2;-8.799999952E-2
2.447433750E1;1.289999932E-1;7.530000061E-2;-1.068999991E-1
2.449419062E1;1.680999994E-1;5.639999732E-2;-1.070999950E-1
2.451404375E1;1.969999969E-1;8.100000210E-3;-8.829999715E-2
2.453389531E1;2.058999985E-1;-1.129999943E-2;-8.060000092E-2
2.455374844E1;2.149999887E-1;-2.149999887E-2;-9.219999611E-2
2.457360000E1;1.757999957E-1;1.640000008E-2;-9.239999950E-2
2.459345312E1;2.154999971E-1;2.539999969E-2;-1.307999939E-1
2.461330625E1;1.966999918E-1;7.339999825E-2;-7.019999623E-2
2.463315938E1;1.577000022E-1;5.109999701E-2;-1.699999906E-3
2.465301094E1;5.969999731E-2;5.959999934E-2;-6.069999933E-2
2.467286406E1;1.284999996E-1;9.599999525E-3;-1.782999933E-1
2.469271719E1;1.876000017E-1;1.899999939E-2;-1.582999974E-1
2.471256875E1;1.577999890E-1;2.740000002E-2;-9.079999477E-2
2.473242188E1;1.468999982E-1;5.480000004E-2;-5.460000038E-2
2.475227500E1;1.555999964E-1;6.199999899E-2;-5.779999867E-2
2.477212656E1;1.648999900E-1;4.179999977E-2;-9.849999845E-2
2.479197969E1;1.749999970E-1;2.300000004E-2;-5.819999799E-2
2.481183281E1;1.567000002E-1;8.359999955E-2;-7.440000027E-2
2.483168438E1;1.872999966E-1;3.720000014E-2;-1.101999953E-1
2.485153750E1;2.075999975E-1;-8.999999613E-3;-1.275999993E-1
2.487139062E1;1.686999947E-1;2.239999920E-2;-1.066999957E-1
2.489124375E1;1.788000017E-1;-5.299999844E-3;-1.448999941E-1
2.491109531E1;1.885000020E-1;-1.409999933E-2;-1.349999905E-1
2.493094844E1;1.784999967E-1;4.999999888E-3;-9.629999846E-2
2.495080156E1;1.194999963E-1;6.319999695E-2;-3.810000047E-2
2.497065313E1;1.981000006E-1;6.279999763E-2;-8.679999411E-2
2.499050625E1;2.275999933E-1;-5.399999674E-3;-6.700000167E-2
2.501035938E1;1.485999972E-1;-1.609999873E-2;-1.075999960E-1
2.503021250E1;9.939999878E-2;1.139999926E-2;-1.476999968E-1
2.505006406E1;1.881999969E-1;6.839999557E-2;-1.175999939E-1
2.506991719E1;2.171999961E-1;3.610000014E-2;-5.059999973E-2
2.508977031E1;1.371999979E-1;5.249999836E-2;-2.559999935E-2
2.510962188E1;1.163999960E-1;1.092999950E-1;-8.769999444E-2
2.512947500E1;1.653999984E-1;-1.809999906E-2;-1.269000024E-1
2.514932812E1;2.157999873E-1;-1.759999990E-2;-1.334999949E-1
2.516917969E1;1.776999980E-1;3.059999831E-2;-1.017999947E-1
2.518903281E1;1.286000013E-1;5.869999900E-2;-1.119999960E-1
2.520888594E1;7.919999957E-2;5.759999901E-2;-5.419999734E-2
2.522873750E1;1.083999947E-1;6.749999523E-2;-1.134999990E-1
2.524859063E1;1.182999983E-1;3.979999945E-2;-6.379999965E-2
2.526844375E1;2.069999874E-1;4.230000079E-2;-9.169999510E-2
2.528829688E1;2.563999891E-1;-4.299999680E-3;-7.069999725E-2
2.530814844E1;1.881999969E-1;-2.300000051E-3;-1.083000004E-1
2.532800156E1;1.888999939E-1;1.860000007E-2;-1.259000003E-1
2.534785469E1;1.307999939E-1;1.040000003E-2;-1.042999998E-1
2.536771406E1;9.179999679E-2;4.069999978E-2;-8.379999548E-2
2.538755938E1;1.308999956E-1;2.169999853E-2;-3.500000015E-2
2.540741250E1;1.797000021E-1;3.179999813E-2;-6.480000168E-2
2.542726562E1;1.695999950E-1;4.140000045E-2;-7.530000061E-2
2.544711719E1;1.886999905E-1;-8.899999782E-3;-9.649999440E-2
2.546697031E1;1.488000005E-1;3.749999776E-2;-1.378999949E-1
2.548682344E1;1.393000036E-1;4.569999874E-2;-1.768999994E-1
2.550667500E1;2.186999917E-1;7.379999757E-2;-4.759999737E-2
2.552652813E1;1.697999984E-1;7.180000097E-2;-3.790000081E-2
2.554638125E1;8.100000024E-2;7.019999623E-2;-7.889999449E-2
2.556623281E1;1.194999963E-1;3.070000000E-2;-1.100999936E-1
2.558608594E1;1.685999930E-1;1.169999968E-2;-9.999999404E-2
2.560593906E1;1.789999902E-1;2.209999971E-2;-1.080999970E-1
2.562579062E1;2.184999883E-1;3.179999813E-2;-9.779999405E-2
2.564564375E1;1.793999970E-1;3.130000085E-2;-4.859999940E-2
2.566549531E1;9.109999985E-2;6.030000001E-2;-7.829999924E-2
2.568535000E1;7.180000097E-2;8.100000024E-2;-8.699999750E-2
2.570520156E1;1.313000023E-1;1.489999983E-2;-1.239999980E-1
2.572505469E1;2.201000005E-1;1.750000007E-2;-1.123999953E-1
2.574490625E1;2.201999873E-1;9.300000034E-3;-8.219999820E-2
2.576475938E1;1.808999926E-1;5.999999703E-4;-9.200000018E-2
2.578461094E1;1.806000024E-1;1.109999977E-2;-1.218999997E-1
2.580446406E1;1.607999951E-1;2.109999955E-2;-6.340000033E-2
2.582431719E1;1.416999996E-1;2.129999921E-2;-7.199999690E-2
2.584417031E1;1.912999898E-1;4.089999944E-2;-8.049999923E-2
2.586402344E1;2.013999969E-1;-8.799999952E-3;-6.049999967E-2
2.588387500E1;1.711999923E-1;-2.039999887E-2;-1.509999931E-1
2.590372812E1;1.316999942E-1;6.799999624E-3;-1.620000005E-1
2.592357969E1;1.711999923E-1;4.399999976E-2;-9.329999983E-2
2.594343281E1;2.004999965E-1;5.139999837E-2;-6.459999830E-2
2.596328594E1;1.409000009E-1;7.819999754E-2;-3.769999743E-2
2.598313750E1;1.008000001E-1;7.629999518E-2;-4.010000080E-2
2.600299063E1;1.691000015E-1;1.740000024E-2;-1.389999986E-1
2.602284375E1;1.596999913E-1;1.730000041E-2;-9.889999777E-2
2.604269688E1;2.188999951E-1;2.699999884E-2;-1.472000033E-1
2.606254844E1;1.891999990E-1;6.599999964E-3;-1.086999997E-1
2.608240156E1;1.398999989E-1;8.460000157E-2;-7.019999623E-2
2.610225469E1;1.010999978E-1;8.579999954E-2;-7.889999449E-2
2.612210625E1;1.114999950E-1;6.889999658E-2;-8.649999648E-2
2.614195938E1;1.611000001E-1;4.380000010E-2;-1.330000013E-1
2.616181250E1;2.105000019E-1;-2.070000023E-2;-1.018999964E-1
2.618166562E1;1.912999898E-1;-7.799999788E-3;-5.119999871E-2
2.620151719E1;1.415999979E-1;-6.000000052E-3;-1.206999943E-1
2.622137031E1;1.407999992E-1;-5.299999844E-3;-9.299999475E-2
2.624122344E1;1.797999889E-1;1.449999958E-2;-3.469999880E-2
2.626107500E1;1.996999979E-1;3.469999880E-2;-9.259999543E-2
2.628092813E1;1.904999912E-1;7.379999757E-2;-9.139999747E-2
2.630078125E1;1.908999979E-1;3.489999846E-2;-9.019999951E-2
2.632063281E1;1.515000015E-1;1.559999958E-2;-7.090000063E-2
2.634048594E1;1.213999987E-1;-4.389999807E-2;-9.229999781E-2
2.636033906E1;8.169999719E-2;-2.569999918E-2;-1.428999901E-1
2.638019219E1;2.096999884E-1;8.089999855E-2;-1.127000004E-1
2.640004375E1;2.689000070E-1;3.049999848E-2;-1.389999967E-2
2.641989688E1;1.405999959E-1;8.709999919E-2;1.289999951E-2
2.643975000E1;4.129999876E-2;8.509999514E-2;-5.900000036E-2
2.645960156E1;1.481999904E-1;-2.799999900E-3;-1.394999921E-1
2.647945469E1;2.559999824E-1;-2.119999938E-2;-1.001999974E-1
2.649930781E1;2.072999924E-1;1.789999940E-2;-7.989999652E-2
2.651916719E1;2.172999978E-1;2.669999935E-2;-6.019999832E-2
2.653901250E1;1.678999960E-1;4.479999840E-2;-9.070000052E-2
2.655886563E1;5.040000007E-2;1.129999980E-1;-7.090000063E-2
2.657871719E1;4.140000045E-2;9.489999712E-2;-1.175999939E-1
2.659857031E1;1.403999925E-1;5.959999934E-2;-1.340000033E-1
2.661842344E1;2.585999966E-1;-1.459999941E-2;-8.289999515E-2
2.663827656E1;2.876999974E-1;-3.130000085E-2;-9.269999713E-2
2.665812812E1;2.090999931E-1;-1.040000003E-2;-9.269999713E-2
2.667798125E1;1.499999911E-1;-9.699999355E-3;-1.027999967E-1
2.669783438E1;1.208999977E-1;5.929999799E-2;-8.240000159E-2
2.671768594E1;1.607999951E-1;5.989999697E-2;-6.119999662E-2
2.673753906E1;2.102999985E-1;3.089999966E-2;-1.088999957E-1
2.675739219E1;1.612000018E-1;2.119999938E-2;-1.483999938E-1
2.677724531E1;2.003999949E-1;2.129999921E-2;-5.999999866E-2
2.679709688E1;1.509999931E-1;-5.749999732E-2;-1.197999939E-1
2.681695000E1;1.305999905E-1;-3.949999809E-2;-1.516000032E-1
2.683680313E1;1.401999891E-1;4.629999772E-2;-1.330000013E-1
2.685665469E1;2.285999954E-1;4.419999942E-2;-5.469999835E-2
2.687650781E1;2.286999971E-1;6.109999865E-2;-6.199999712E-3
2.689635938E1;8.139999956E-2;1.273999959E-1;-1.699999906E-2
2.691621250E1;1.004000008E-1;1.840000041E-2;-1.070000008E-1
2.693606562E1;1.683999896E-1;-1.049999986E-2;-1.768999994E-1
2.695591875E1;2.179999948E-1;9.999999747E-5;-1.166999936E-1
2.697577031E1;1.987999976E-1;-4.999999655E-4;1.699999906E-3
2.699562344E1;1.493999958E-1;8.630000055E-2;-2.879999951E-2
2.701547500E1;8.039999753E-2;7.599999756E-2;-1.080999970E-1
2.703532813E1;1.008000001E-1;6.780000031E-2;-5.700000003E-2
2.705518125E1;1.709999889E-1;1.219999976E-2;-1.211999953E-1
2.707503438E1;2.504000068E-1;-2.410000004E-2;-1.181999967E-1
2.709488594E1;2.311999947E-1;-3.199999919E-3;-1.071999967E-1
2.711473906E1;1.726000011E-1;-2.799999900E-3;-1.066999957E-1
2.713459219E1;1.232999936E-1;2.620000020E-2;-8.769999444E-2
2.715444531E1;1.332999915E-1;1.599999890E-2;-7.759999484E-2
2.717429688E1;1.729999930E-1;2.539999969E-2;-7.660000026E-2
2.719415000E1;2.223999947E-1;4.459999874E-2;-8.559999615E-2
2.721400156E1;2.129999995E-1;5.399999768E-2;-6.509999931E-2
2.723385469E1;1.544999927E-1;3.359999880E-2;-6.459999830E-2
2.725370781E1;1.441999972E-1;1.249999925E-2;-1.052999943E-1
2.727355938E1;1.138999984E-1;7.999999798E-4;-1.471000016E-1
2.729341250E1;1.627999991E-1;-1.199999941E-3;-9.889999777E-2
2.731326563E1;2.513999939E-1;1.599999890E-2;-6.929999590E-2
2.733311875E1;1.729999930E-1;3.280000016E-2;-1.099999994E-2
2.735297031E1;9.399999678E-2;9.889999777E-2;-7.180000097E-2
2.737282344E1;1.033999994E-1;4.879999906E-2;-6.319999695E-2
2.739267656E1;1.718000025E-1;-3.879999742E-2;-1.419999897E-1
2.741252812E1;2.113999873E-1;2.019999921E-2;-1.314000040E-1
2.743238125E1;2.314999998E-1;1.950000040E-2;-6.179999933E-2
2.745223438E1;1.824999899E-1;4.759999737E-2;-4.230000079E-2
2.747208594E1;1.140000001E-1;7.609999925E-2;-1.010999978E-1
2.749193906E1;1.143999994E-1;5.689999834E-2;-1.195999980E-1
2.751179219E1;1.447999924E-1;3.959999979E-2;-1.167999953E-1
2.753164531E1;2.142999917E-1;2.799999900E-3;-5.539999902E-2
2.755149688E1;1.947999895E-1;1.409999933E-2;-9.389999509E-2
2.757135000E1;1.946999878E-1;-4.499999806E-3;-1.036999971E-1
2.759120313E1;1.552999914E-1;1.549999975E-2;-9.439999610E-2
2.761105469E1;1.552999914E-1;2.529999986E-2;-8.439999819E-2
2.763090781E1;1.850000024E-1;2.549999952E-2;-8.370000124E-2
2.765076094E1;1.754999906E-1;2.559999935E-2;-1.123999953E-1
2.767061406E1;1.757999957E-1;3.480000049E-2;-9.239999950E-2
2.769046562E1;1.858000010E-1;2.469999902E-2;-9.209999442E-2
2.771031875E1;1.066999957E-1;3.359999880E-2;-1.132999957E-1
2.773017188E1;1.159999967E-1;4.239999875E-2;-1.342999935E-1
2.775002344E1;1.845999956E-1;2.169999853E-2;-5.619999766E-2
2.776987656E1;1.741999984E-1;1.979999989E-2;-2.869999968E-2
2.778972969E1;1.440999955E-1;7.609999925E-2;-5.049999803E-2
2.780958906E1;1.339000016E-1;5.599999800E-3;-7.149999589E-2
2.782943438E1;1.636999995E-1;-4.799999762E-3;-7.079999894E-2
2.784928750E1;2.233999968E-1;2.400000021E-2;-9.829999506E-2
2.786913906E1;2.735999823E-1;4.100000020E-3;-1.153999940E-1
2.788899219E1;1.661999971E-1;1.249999925E-2;-4.600000009E-2
2.790884531E1;1.270999908E-1;2.109999955E-2;-6.570000201E-2
2.792869844E1;8.859999478E-2;6.939999759E-2;-4.449999705E-2
2.794855000E1;7.069999725E-2;1.388999969E-1;-1.188999936E-1
2.796840313E1;1.797999889E-1;8.269999921E-2;-1.350999922E-1
2.798825625E1;2.384999990E-1;1.779999956E-2;-1.050999984E-1
2.800810781E1;1.589999944E-1;1.109999977E-2;-4.769999906E-2
2.802796094E1;1.475999951E-1;-4.479999840E-2;-8.999999613E-2
2.804781406E1;1.757999957E-1;-1.349999942E-2;-1.313000023E-1
2.806766562E1;2.251999974E-1;-1.219999976E-2;-8.129999787E-2
2.808751875E1;1.963000000E-1;1.769999973E-2;-1.092000008E-1
2.810737188E1;1.280999929E-1;7.620000094E-2;-9.860000014E-2
2.812722500E1;1.185999960E-1;4.639999941E-2;-1.174999997E-1
2.814707656E1;1.577000022E-1;1.740000024E-2;-1.077999994E-1
2.816692969E1;1.669999957E-1;-1.099999994E-2;-1.286000013E-1
2.818678125E1;1.568000019E-1;2.899999917E-2;-8.989999443E-2
2.820663438E1;1.759999990E-1;9.499999695E-3;-5.169999972E-2
2.822648750E1;2.049999982E-1;9.899999946E-3;-6.219999865E-2
2.824634688E1;1.855999976E-1;3.969999775E-2;-8.139999956E-2
2.826619219E1;1.665000021E-1;5.949999765E-2;-8.999999613E-2
2.828604531E1;1.570999920E-1;2.099999972E-2;-1.279999912E-1
2.830589844E1;1.864999980E-1;5.139999837E-2;-1.180999950E-1
2.832575000E1;1.469999999E-1;1.229999959E-2;-8.919999748E-2
2.834560312E1;1.758999974E-1;-6.999999750E-3;-6.079999730E-2
2.836545469E1;1.756999940E-1;3.219999745E-2;-1.102999970E-1
2.838530781E1;1.168999970E-1;1.209999993E-2;-7.119999826E-2
2.840516094E1;1.953999996E-1;5.099999905E-2;-1.103999987E-1
2.842501406E1;2.246999890E-1;2.209999971E-2;-1.202999949E-1
2.844486563E1;2.048999965E-1;3.229999915E-2;-7.159999758E-2
2.846471875E1;1.162999943E-1;7.159999758E-2;-1.017999947E-1
2.848457188E1;1.354999989E-1;6.250000000E-2;-1.026000008E-1
2.850442344E1;1.938999891E-1;2.499999851E-2;-1.030000001E-1
2.852427656E1;1.445999891E-1;3.590000048E-2;-3.469999880E-2
2.854412969E1;1.440999955E-1;-2.099999925E-3;-5.529999733E-2
2.856398125E1;1.828999966E-1;7.999999449E-3;-1.149000004E-1
2.858383438E1;2.219999880E-1;7.599999662E-3;-7.609999925E-2
2.860368750E1;2.021999955E-1;6.999999750E-3;-6.689999998E-2
2.862353906E1;1.630999893E-1;5.539999902E-2;-6.669999659E-2
2.864339219E1;1.244999990E-1;1.489999983E-2;-4.609999806E-2
2.866324531E1;1.250000000E-1;5.279999971E-2;-6.489999592E-2
2.868309844E1;1.547999978E-1;4.219999909E-2;-1.425999999E-1
2.870295000E1;2.043000013E-1;3.240000084E-2;-1.414999962E-1
2.872280313E1;1.754999906E-1;3.229999915E-2;-2.259999886E-2
2.874265625E1;1.850999892E-1;5.240000039E-2;-8.159999549E-2
2.876250781E1;1.649999917E-1;-5.899999756E-3;-8.269999921E-2
2.878236094E1;1.254999936E-1;4.279999807E-2;-4.419999942E-2
2.880222188E1;1.550000012E-1;2.309999987E-2;-1.125999987E-1
2.882206562E1;1.847999990E-1;1.310000010E-2;-6.279999763E-2
2.884191875E1;1.849000007E-1;4.189999774E-2;-7.249999791E-2
2.886177188E1;1.552999914E-1;6.030000001E-2;-5.359999835E-2
2.888162500E1;2.041999996E-1;3.029999882E-2;-9.339999408E-2
2.890148281E1;1.454000026E-1;3.019999899E-2;-2.469999902E-2
2.892132969E1;1.543999910E-1;5.909999833E-2;-5.599999800E-2
2.894118281E1;2.117999941E-1;3.070000000E-2;-1.275999993E-1
2.896103438E1;2.278999984E-1;-5.419999734E-2;-1.349999905E-1
2.898088750E1;1.057999954E-1;1.579999924E-2;-7.599999756E-2
2.900074063E1;5.189999938E-2;3.599999845E-2;-7.729999721E-2
2.902059375E1;5.590000004E-2;5.599999800E-2;1.730000041E-2
2.904044531E1;-8.299999870E-3;6.390000135E-2;-1.539999992E-2
2.906029844E1;4.679999873E-2;3.309999779E-2;-1.027999967E-1
2.908015156E1;5.260000005E-2;-3.559999913E-2;-4.349999875E-2
2.910000312E1;-5.089999735E-2;3.070000000E-2;1.159999985E-2
2.911985625E1;-6.799999624E-2;4.679999873E-2;-8.489999920E-2
2.913970938E1;1.668999940E-1;-2.399999946E-1;-1.586000025E-1
2.915956094E1;3.984999955E-1;-4.228999913E-1;-1.340000033E-1
2.917941406E1;2.942999899E-1;-4.940999746E-1;-5.810000002E-2
2.919926719E1;1.922999918E-1;-2.559999824E-1;-3.068999946E-1
2.921911875E1;-1.548999995E-1;-3.700000001E-3;-1.668999940E-1
2.923897188E1;-7.199999690E-2;4.301999807E-1;5.700000003E-2
2.925882500E1;5.762999654E-1;3.686999977E-1;8.005999923E-1
2.927867656E1;1.078999996E0;2.118999958E-1;-7.229999453E-2
2.929852969E1;7.764999866E-1;-4.939999804E-2;-2.586999834E-1
2.931838281E1;5.961999893E-1;-1.215999946E-1;3.086999953E-1
2.933823594E1;5.449000001E-1;6.260000169E-2;1.149999946E-1
2.935809844E1;2.897999883E-1;1.933999956E-1;-7.479999959E-2
2.937794062E1;6.488999724E-1;2.823999822E-1;-1.940999925E-1
2.939779375E1;4.570999742E-1;-4.619999975E-2;-9.059999883E-2
2.941764688E1;8.700000122E-3;-1.592999995E-1;-3.276000023E-1
2.943749844E1;-2.610999942E-1;9.649999440E-2;-3.479000032E-1
2.945735156E1;-4.651999772E-1;2.588000000E-1;5.309999734E-2
2.947720313E1;-5.343999863E-1;4.115999937E-1;5.539999604E-1
2.949705625E1;-9.404999614E-1;7.087999582E-1;5.475000143E-1
2.951690938E1;-1.176100016E0;6.941999793E-1;2.506999969E-1
2.953676094E1;-6.762999892E-1;5.957999825E-1;-2.841999829E-1
2.955661406E1;-2.751999795E-1;1.659999937E-1;-9.918999672E-1
2.957646719E1;-2.380999923E-1;-3.568999767E-1;-1.397699952E0
2.959632031E1;-1.239999942E-2;-6.222000122E-1;-1.102499962E0
2.961617188E1;8.459999561E-1;-3.729999810E-2;-3.983999789E-1
2.963602500E1;8.941999674E-1;-1.026000008E-1;-2.381999940E-1
2.965587812E1;2.739999890E-1;-2.518999875E-1;3.935999870E-1
2.967572969E1;-1.134999990E-1;-1.092000008E-1;1.471000016E-1
2.969558281E1;-6.729999930E-2;-2.065999955E-1;-3.940999806E-1
2.971543438E1;-1.070000008E-1;-2.915000021E-1;-4.210000038E-1
2.973528750E1;8.889999986E-2;-1.239999942E-2;-1.158999950E-1
2.975514063E1;2.554000020E-1;2.532999814E-1;2.076999992E-1
2.977499219E1;3.995999992E-1;4.578000009E-1;4.755999744E-1
2.979484688E1;7.297999859E-1;6.635000110E-1;3.100999892E-1
2.981469844E1;7.095999718E-1;3.122999966E-1;2.185999900E-1
2.983455156E1;7.026000023E-1;-3.219999745E-2;4.215999842E-1
2.985440312E1;9.851999879E-1;2.459999919E-1;-4.490000010E-2
2.987425625E1;1.196599960E0;4.605999887E-1;8.299999870E-3
2.989410938E1;8.734999895E-1;3.542999923E-1;8.518999815E-1
2.991396094E1;9.299999475E-1;5.214999914E-1;9.390999675E-1
2.993381406E1;7.566999793E-1;3.173999786E-1;8.324999809E-1
2.995366719E1;-9.769999981E-2;2.314999998E-1;-2.465000004E-1
2.997351875E1;-1.067399979E0;7.518999577E-1;-2.402999997E-1
2.999337188E1;-1.288399935E0;-2.436999977E-1;-2.352499962E0
3.001322500E1;-5.442000031E-1;-1.217599988E0;-1.536299944E0
3.003307813E1;2.748999894E-1;-1.381500006E0;-1.054700017E0
3.005292969E1;8.999999845E-4;-5.503000021E-1;-3.657999933E-1
3.007278281E1;-2.339999937E-2;1.738999933E-1;-2.079999894E-1
3.009263594E1;-1.463000029E-1;5.229999870E-2;2.510000020E-2
3.011248750E1;-7.699999958E-2;1.999999955E-2;-3.574000001E-1
3.013234062E1;2.201000005E-1;1.344999969E-1;-2.621999979E-1
3.015219375E1;5.232999921E-1;-6.889999658E-2;2.872999907E-1
3.017204688E1;5.917999744E-1;-9.719999880E-2;4.266999960E-1
3.019190469E1;3.562999964E-1;-1.709999889E-2;2.037999928E-1
3.021175156E1;1.493999958E-1;2.956999838E-1;-1.516000032E-1
3.023160625E1;3.005999923E-1;3.513000011E-1;-1.269999985E-2
3.025145625E1;7.997999787E-1;1.062999964E-1;-1.171000004E-1
3.027130938E1;6.233999729E-1;-4.450999796E-1;-9.799999744E-2
3.029116250E1;4.570999742E-1;-3.058999777E-1;-5.719999969E-2
3.031101406E1;4.569999874E-2;4.449999705E-2;-1.623999923E-1
3.033086719E1;-4.617999792E-1;1.048999950E-1;-1.314000040E-1
3.035072031E1;-1.152999997E-1;-8.429999650E-2;3.999999899E-4
3.037057188E1;6.220999956E-1;-1.485999972E-1;1.889999956E-2
3.039042500E1;5.364999771E-1;-1.459999941E-2;4.143999815E-1
3.041027812E1;3.134000003E-1;5.609999970E-2;2.469999902E-2
3.043013125E1;-2.759999968E-2;7.689999789E-2;-4.209999740E-2
3.044998281E1;-3.489999771E-1;1.560000032E-1;4.749999940E-2
3.046983594E1;-9.380000085E-2;2.489999980E-1;-1.648999900E-1
3.048968906E1;1.694999933E-1;-1.177999973E-1;-4.524999857E-1
3.050954063E1;1.418000013E-1;-3.252999783E-1;-4.810999930E-1
3.052939375E1;1.168999970E-1;-2.299999893E-1;-2.522000074E-1
3.054924688E1;1.987999976E-1;-2.359999903E-2;-2.536000013E-1
3.056909844E1;2.395000011E-1;2.060000002E-1;-1.764999926E-1
3.058895156E1;1.521999985E-1;1.985999942E-1;-9.149999917E-2
3.060880469E1;4.429999739E-2;1.166999936E-1;-2.574999928E-1
3.062865781E1;-7.339999825E-2;2.589999884E-2;-2.572999895E-1
3.064850938E1;-2.379999869E-2;-1.389999967E-2;-2.053999901E-1
3.066836250E1;1.241999939E-1;3.379999846E-2;-1.807999909E-1
3.068821562E1;2.628999949E-1;-2.819999866E-2;-1.938000023E-1
3.070806719E1;3.242000043E-1;-1.800999939E-1;-1.039000005E-1
3.072792031E1;3.276999891E-1;-1.255999953E-1;1.939999871E-2
3.074777344E1;1.923999935E-1;-1.328999996E-1;1.557999998E-1
3.076762500E1;2.985999882E-1;-2.520000003E-2;1.290999949E-1
3.078748594E1;4.815999866E-1;-1.395999938E-1;1.246999949E-1
3.080733125E1;4.142999947E-1;-2.066999972E-1;1.102999970E-1
3.082718281E1;3.748999834E-1;-8.699999750E-2;-1.433999985E-1
3.084703594E1;5.986999869E-1;1.287999898E-1;-3.844999969E-1
3.086688906E1;5.899999738E-1;3.596999943E-1;-2.316999882E-1
3.088674219E1;4.242999852E-1;3.099999949E-2;-9.039999545E-2
3.090659375E1;6.452999711E-1;-2.421000004E-1;-3.932999969E-1
3.092644688E1;1.559000015E-1;-1.621000022E-1;-5.749999732E-2
3.094630625E1;1.199999973E-1;4.419999942E-2;-2.215999961E-1
3.096615156E1;-5.219999701E-2;5.229999870E-2;4.869999737E-2
3.098600469E1;3.729999810E-2;-1.488000005E-1;-6.549999863E-2
3.100585625E1;4.032999873E-1;-9.065999985E-1;-8.015999794E-1
3.102570938E1;7.691999674E-1;-4.144999981E-1;-3.749999776E-2
3.104556250E1;8.930000067E-1;-4.999999702E-2;9.697999954E-1
3.106541406E1;7.745999694E-1;9.299999475E-2;1.198899984E0
3.108526719E1;9.090999961E-1;4.793999791E-1;5.687999725E-1
3.110512031E1;3.006999791E-1;1.259500027E0;4.695999920E-1
3.112497188E1;3.581999838E-1;-8.866999745E-1;-1.655000001E-1
3.114482500E1;-5.388999581E-1;-2.861999869E-1;-6.293999553E-1
3.116467813E1;-1.439099908E0;9.095999599E-1;-3.577999771E-1
3.118453125E1;-1.493799925E0;1.735399961E0;-8.287000060E-1
3.120438281E1;-1.944499969E0;1.975099921E0;-1.036399961E0
3.122423594E1;-2.476599932E0;1.263599992E0;-1.316999912E0
3.124408906E1;-2.401999950E0;1.372200012E0;-1.533899903E0
3.126394063E1;-8.610999584E-1;9.423999786E-1;-1.531099916E0
3.128379375E1;1.694000006E0;1.629000008E-1;-6.538000107E-1
3.130364688E1;3.310299873E0;-7.809999585E-1;2.802999914E-1
3.132350000E1;1.167400002E0;-2.117399931E0;1.340699911E0
3.134335156E1;3.364999890E-1;-1.518499970E0;1.424899936E0
3.136321094E1;2.275999933E-1;-2.404999882E-1;1.361899972E0
3.138305781E1;7.759000063E-1;5.123999715E-1;8.549000025E-1
3.140290938E1;6.370999813E-1;5.381000042E-1;-3.892000020E-1
3.142276250E1;-4.375999868E-1;3.068999946E-1;-5.234999657E-1
3.144261563E1;-2.290999889E-1;3.872999847E-1;-1.064999998E-1
3.146246719E1;4.899999797E-1;1.277000010E-1;-4.039999843E-2
3.148232031E1;1.262699962E0;-1.825999916E-1;-7.799999788E-3
3.150217344E1;1.373099923E0;-5.065999627E-1;1.059999987E-1
3.152202656E1;8.866999745E-1;-4.287000000E-1;-1.437999904E-1
3.154187812E1;4.470000044E-2;-4.324999750E-1;-4.158999920E-1
3.156173125E1;-4.409999847E-1;-3.667999804E-1;-4.053999782E-1
3.158158438E1;-4.714999795E-1;-9.950000048E-2;-2.926999927E-1
3.160143594E1;-2.404999882E-1;1.754999906E-1;-3.076999784E-1
3.162128906E1;9.489999712E-2;5.328999758E-1;-2.839999795E-1
3.164114219E1;-1.219999939E-1;6.486999989E-1;-1.499999966E-2
3.166099375E1;-3.412999809E-1;4.375000000E-1;5.169999972E-2
3.168084688E1;-6.539999694E-2;2.176999897E-1;-4.120000079E-2
3.170070000E1;1.986999959E-1;5.069999769E-2;-2.180000022E-2
3.172055313E1;1.863999963E-1;-1.658999920E-1;-3.729999810E-2
3.174040469E1;2.750999928E-1;-1.462000012E-1;-2.106999904E-1
3.176025781E1;2.994000018E-1;-9.290000051E-2;-2.064999938E-1
3.178011094E1;2.186999917E-1;-8.439999819E-2;-9.699999541E-2
3.179996250E1;1.243999973E-1;-2.889999934E-2;6.960000098E-2
3.181981562E1;1.018999964E-1;6.300000101E-2;6.929999590E-2
3.183966875E1;2.092999965E-1;5.629999936E-2;-6.079999730E-2
3.185952031E1;2.117999941E-1;1.079999935E-2;-8.349999785E-2
3.187937344E1;8.829999715E-2;6.430000067E-2;-1.407999992E-1
3.189923438E1;9.089999646E-2;1.096999943E-1;-1.331999898E-1
3.191907969E1;1.997999996E-1;8.789999783E-2;-1.207999960E-1
3.193893125E1;2.291999906E-1;7.710000128E-2;-2.279999852E-2
3.195878438E1;1.900999993E-1;-2.600000007E-3;-1.289999951E-2
3.197863750E1;2.399999946E-1;-3.000000026E-3;-6.920000166E-2
3.199848906E1;2.417999953E-1;-4.259999841E-2;-7.360000163E-2
3.201834219E1;1.459999979E-1;5.699999630E-3;-5.669999868E-2
3.203819531E1;1.485999972E-1;2.479999885E-2;-9.769999981E-2
3.205805938E1;9.219999611E-2;3.379999846E-2;-1.590999961E-1
3.207790000E1;1.037999988E-1;5.240000039E-2;-1.340999901E-1
3.209775156E1;1.636999995E-1;2.249999903E-2;-8.179999888E-2
3.211760469E1;1.348000020E-1;5.189999938E-2;-9.019999951E-2
3.213745781E1;1.348000020E-1;6.119999662E-2;-1.097999960E-1
3.215730938E1;1.543999910E-1;3.189999983E-2;-9.999999404E-2
3.217716250E1;1.938000023E-1;1.279999968E-2;-9.939999878E-2
3.219701562E1;1.644999981E-1;-1.549999975E-2;-5.949999765E-2
3.221686719E1;1.645999998E-1;-4.900000058E-3;-1.083000004E-1
3.223672031E1;1.647000015E-1;-1.439999975E-2;-1.272999942E-1
3.225657344E1;1.746999919E-1;1.480000000E-2;-7.769999653E-2
3.227642969E1;1.552999914E-1;1.389999967E-2;-8.699999750E-2
3.229627969E1;1.556999981E-1;2.799999900E-3;-9.609999508E-2
3.231613125E1;1.366999894E-1;1.129999943E-2;-8.460000157E-2
3.233598438E1;1.472000033E-1;9.999999747E-5;-9.250000119E-2
3.235583594E1;1.771000028E-1;-1.139999926E-2;-7.169999927E-2
3.237569531E1;2.167999893E-1;5.499999970E-2;-7.079999894E-2
3.239554219E1;1.583999991E-1;8.209999651E-2;-1.092000008E-1
3.241539375E1;1.685999930E-1;5.130000040E-2;-1.080999970E-1
3.243524688E1;1.393999904E-1;3.139999881E-2;-8.779999614E-2
3.245510156E1;1.591999978E-1;4.129999876E-2;-3.819999844E-2
3.247495625E1;1.297999918E-1;1.229999959E-2;-1.164999977E-1
3.249480469E1;1.594000012E-1;3.209999949E-2;-1.061000004E-1
3.251465781E1;1.304000020E-1;3.189999983E-2;-1.049999967E-1
3.253451094E1;1.990999877E-1;2.300000051E-3;-7.539999485E-2
3.255436250E1;1.891999990E-1;1.179999951E-2;-6.589999795E-2
3.257421562E1;1.596999913E-1;2.080000006E-2;-8.609999716E-2
3.259406875E1;1.695999950E-1;9.999999747E-5;-1.053999960E-1
3.261392344E1;1.603000015E-1;9.200000204E-3;-6.489999592E-2
3.263377344E1;1.410999894E-1;2.779999934E-2;-6.379999965E-2
3.265362656E1;1.903999895E-1;1.740000024E-2;-1.316999942E-1
3.267347969E1;2.002999932E-1;2.740000002E-2;-8.229999989E-2
3.269333125E1;1.612999886E-1;7.999999449E-3;-7.189999521E-2
3.271318438E1;1.613999903E-1;1.809999906E-2;-1.009999961E-1
3.273303750E1;1.717000008E-1;1.869999990E-2;-1.287000030E-1
3.275288906E1;1.134999990E-1;3.849999979E-2;-8.749999851E-2
3.277274219E1;1.430999935E-1;1.860000007E-2;-9.669999778E-2
3.279259531E1;1.726000011E-1;8.499999531E-3;-1.064999998E-1
3.281244688E1;1.626999974E-1;8.399999700E-3;-8.699999750E-2
3.283230000E1;1.527999938E-1;2.769999951E-2;-8.739999682E-2
3.285216094E1;1.529999971E-1;1.799999923E-2;-9.669999778E-2
3.287200625E1;1.533999890E-1;2.759999968E-2;-7.589999586E-2
3.289185781E1;1.928000003E-1;4.749999940E-2;-1.045999974E-1
3.291171094E1;1.832000017E-1;8.700000122E-3;-8.429999650E-2
3.293156406E1;1.735000014E-1;-9.999999311E-4;-8.389999717E-2
3.295141562E1;1.735999882E-1;-1.199999941E-3;-1.032999977E-1
3.297126875E1;1.834999919E-1;8.700000122E-3;-9.329999983E-2
3.299112188E1;1.640999913E-1;3.749999776E-2;-7.310000062E-2
3.301097969E1;1.740999967E-1;1.769999973E-2;-9.200000018E-2
3.303082656E1;1.647000015E-1;1.759999990E-2;-9.099999815E-2
3.305067969E1;1.845999956E-1;3.739999980E-2;-9.989999980E-2
3.307053281E1;1.454999894E-1;2.730000019E-2;-9.959999472E-2
3.309038438E1;1.552999914E-1;1.779999956E-2;-1.092999950E-1
3.311023750E1;1.454999894E-1;1.769999973E-2;-6.009999663E-2
3.313008906E1;1.455999911E-1;2.749999985E-2;-7.959999889E-2
3.314994219E1;1.652999967E-1;1.799999923E-2;-9.869999439E-2
3.316980469E1;2.339999974E-1;2.819999866E-2;-6.929999590E-2
3.318964844E1;1.649999917E-1;2.829999849E-2;-7.029999793E-2
3.320950000E1;1.451999992E-1;3.769999743E-2;-1.100999936E-1
3.322935312E1;1.841999888E-1;2.909999900E-2;-1.299999952E-1
3.324920625E1;1.940999925E-1;4.030000046E-2;-8.049999923E-2
3.326905781E1;1.156999990E-1;1.109999977E-2;-8.049999923E-2
3.328891094E1;1.743000001E-1;2.129999921E-2;-8.100000024E-2
3.330876406E1;1.841999888E-1;1.189999934E-2;-1.100999936E-1
3.332862656E1;1.940999925E-1;2.219999954E-2;-8.999999613E-2
3.334846875E1;1.550000012E-1;2.259999886E-2;-8.959999681E-2
3.336832188E1;2.041999996E-1;2.239999920E-2;-8.919999748E-2
3.338817500E1;1.257999986E-1;3.199999779E-2;-7.919999957E-2
3.340802656E1;1.845999956E-1;2.219999954E-2;-1.085999981E-1
3.342787969E1;1.651999950E-1;1.209999993E-2;-3.940000013E-2
3.344773125E1;1.752000004E-1;1.099999994E-2;-4.910000041E-2
3.346758750E1;1.752000004E-1;2.979999967E-2;-7.840000093E-2
3.348744063E1;1.460999995E-1;3.900000080E-2;-7.769999653E-2
3.350729062E1;1.464999914E-1;1.860000007E-2;-7.649999857E-2
3.352714219E1;1.467999965E-1;4.739999771E-2;-9.539999813E-2
3.354699531E1;1.468999982E-1;1.789999940E-2;-8.529999852E-2
3.356684688E1;1.567000002E-1;3.729999810E-2;-7.580000162E-2
3.358670000E1;2.055999935E-1;7.999999449E-3;-7.609999925E-2
3.360655313E1;1.858000010E-1;7.899999619E-3;-5.700000003E-2
3.362640625E1;1.762000024E-1;3.680000082E-2;-4.669999704E-2
3.364625781E1;1.668999940E-1;6.699999794E-3;-4.529999942E-2
3.366611094E1;1.574999988E-1;2.559999935E-2;-7.360000163E-2
3.368596406E1;1.675999910E-1;6.390000135E-2;-1.021999940E-1
3.370581719E1;1.579999924E-1;4.339999706E-2;-1.215000004E-1
3.372566875E1;1.482999921E-1;4.270000011E-2;-6.239999831E-2
3.374552188E1;1.679999977E-1;2.259999886E-2;-8.179999888E-2
3.376537500E1;1.876999885E-1;1.249999925E-2;-8.169999719E-2
3.378522656E1;1.682000011E-1;1.179999951E-2;-9.129999578E-2
3.380507969E1;1.779999882E-1;3.070000000E-2;-1.110999957E-1
3.382493281E1;1.779999882E-1;2.049999870E-2;-1.013999954E-1
3.384478438E1;1.581999958E-1;1.979999989E-2;-6.269999593E-2
3.386464219E1;1.583999991E-1;2.889999934E-2;-7.209999859E-2
3.388449063E1;1.780999899E-1;3.830000013E-2;-1.013999954E-1
3.390434219E1;1.977999955E-1;1.819999889E-2;-6.199999899E-2
3.392419531E1;1.880999953E-1;3.729999810E-2;-1.206000000E-1
3.394404844E1;1.684999913E-1;1.779999956E-2;-8.129999787E-2
3.396390000E1;1.486999989E-1;1.799999923E-2;-6.209999695E-2
3.398375312E1;1.386999935E-1;-1.169999968E-2;-5.309999734E-2
3.400360625E1;1.582999974E-1;2.759999968E-2;-8.249999583E-2
3.402345938E1;1.779999882E-1;8.299999870E-3;-9.200000018E-2
3.404331094E1;1.877999902E-1;1.799999923E-2;-6.250000000E-2
3.406316406E1;1.683000028E-1;1.759999990E-2;-6.219999865E-2
3.408301719E1;1.585000008E-1;-1.899999916E-3;-5.249999836E-2
3.410286875E1;1.393999904E-1;-1.899999916E-3;-8.039999753E-2
3.412272188E1;1.198999956E-1;-1.219999976E-2;-7.999999821E-2
3.414257656E1;1.787000000E-1;1.679999940E-2;-8.999999613E-2
3.416242813E1;2.081999928E-1;6.599999964E-3;-7.039999962E-2
3.418227969E1;1.691000015E-1;2.569999918E-2;-7.979999483E-2
3.420213281E1;1.497000009E-1;2.549999952E-2;-6.939999759E-2
3.422198438E1;1.498999894E-1;4.490000010E-2;-7.849999517E-2
3.424183750E1;1.696999967E-1;3.539999947E-2;-7.809999585E-2
3.426169062E1;1.893000007E-1;1.589999907E-2;-6.830000132E-2
3.428155156E1;1.596999913E-1;2.599999867E-2;-3.920000046E-2
3.430139531E1;1.695999950E-1;2.599999867E-2;-8.819999546E-2
3.432124844E1;1.599999964E-1;-4.100000020E-3;-7.789999992E-2
3.434110156E1;1.506000012E-1;2.469999902E-2;-5.709999800E-2
3.436095312E1;1.800999939E-1;1.420000009E-2;-7.660000026E-2
3.438080625E1;1.410000026E-1;2.319999970E-2;-9.609999508E-2
3.440065938E1;1.800999939E-1;5.209999904E-2;-7.669999450E-2
3.442051250E1;1.507000029E-1;4.230000079E-2;-1.799999923E-2
3.444036406E1;1.798999906E-1;1.339999959E-2;-7.719999552E-2
3.446021719E1;1.700999886E-1;2.410000004E-2;-1.163999960E-1
3.448007031E1;1.601999998E-1;-3.999999724E-3;-5.749999732E-2
3.449992188E1;1.405999959E-1;-2.899999963E-3;-9.649999440E-2
3.451977500E1;1.699000001E-1;7.599999662E-3;-1.065999940E-1
3.453962812E1;1.110999957E-1;3.700000048E-2;-7.689999789E-2
3.455947969E1;1.794999987E-1;7.999999449E-3;-9.739999473E-2
3.457933281E1;1.988999993E-1;1.809999906E-2;-4.879999906E-2
3.459918594E1;1.790999919E-1;3.790000081E-2;-7.869999856E-2
3.461903906E1;1.692999899E-1;2.829999849E-2;-9.820000082E-2
3.463889062E1;1.299999952E-1;5.810000002E-2;-9.839999676E-2
3.465874219E1;1.394999921E-1;3.949999809E-2;-9.910000116E-2
3.467859531E1;1.292999983E-1;-8.499999531E-3;-9.049999714E-2
3.469844844E1;1.777999997E-1;1.169999968E-2;-7.209999859E-2
3.471830156E1;2.362999916E-1;2.499999944E-3;-9.279999882E-2
3.473815469E1;2.166000009E-1;-1.709999889E-2;-3.419999778E-2
3.475800625E1;1.873999983E-1;2.149999887E-2;-5.339999869E-2
3.477785938E1;1.581999958E-1;4.050000012E-2;-9.179999679E-2
3.479771094E1;1.779999882E-1;3.059999831E-2;-6.189999729E-2
3.481756406E1;1.292999983E-1;-8.499999531E-3;-5.109999701E-2
3.483741719E1;1.880999953E-1;-8.899999782E-3;-6.129999831E-2
3.485727031E1;1.781999916E-1;-4.959999770E-2;-4.199999943E-2
3.487712188E1;1.199999973E-1;-3.399999812E-3;-5.069999769E-2
3.489697500E1;1.206999943E-1;3.199999779E-2;-1.079999954E-1
3.491683281E1;1.215000004E-1;4.849999771E-2;-9.649999440E-2
3.493667969E1;2.786999941E-1;7.299999706E-3;-1.448999941E-1
3.495653281E1;2.778999805E-1;6.999999750E-3;-1.375999898E-1
3.497638594E1;1.004000008E-1;5.469999835E-2;-2.329999954E-2
3.499623750E1;7.999999821E-2;4.319999740E-2;-7.499999553E-2
3.501609063E1;1.089999974E-1;7.169999927E-2;-7.639999688E-2
3.503594375E1;8.879999816E-2;5.119999871E-2;-5.869999900E-2
3.505579531E1;2.541999817E-1;5.260000005E-2;-1.702999920E-1
3.507564844E1;3.420999944E-1;-4.129999876E-2;-6.279999763E-2
3.509550156E1;3.014999926E-1;-3.749999776E-2;-1.641999930E-1
3.511535313E1;1.248999983E-1;-5.599999800E-2;-3.669999912E-2
3.513520625E1;7.649999857E-2;3.000000026E-3;-1.034999937E-1
3.515505938E1;1.263999939E-1;2.169999853E-2;-1.009999961E-1
3.517491250E1;1.268000007E-1;-8.799999952E-3;-6.079999730E-2
3.519476406E1;1.557999998E-1;3.859999776E-2;-6.250000000E-2
3.521461719E1;3.790000081E-2;1.134999990E-1;-4.999999888E-3
3.523447344E1;1.162999943E-1;1.412999928E-1;-1.721999943E-1
3.525432969E1;2.926000059E-1;2.529999986E-2;-9.409999847E-2
3.527417500E1;1.930999905E-1;9.300000034E-3;-1.074000001E-1
3.529402813E1;9.329999983E-2;-8.100000210E-3;-2.410000004E-2
3.531388125E1;1.483999938E-1;-6.000000052E-3;-1.820999980E-1
3.533373281E1;3.122999966E-1;-5.279999971E-2;-3.329999745E-2
3.535358750E1;2.999999821E-1;-2.190000005E-2;8.100000210E-3
3.537343906E1;2.402999997E-1;2.749999985E-2;4.490000010E-2
3.539329375E1;2.701999843E-1;-7.959999889E-2;-9.079999477E-2
3.541314375E1;2.821999788E-1;-9.910000116E-2;-5.460000038E-2
3.543299688E1;2.463999987E-1;-9.129999578E-2;-1.509999949E-2
3.545285313E1;1.920000017E-1;-6.899999920E-3;-1.219999976E-2
3.547270156E1;7.959999889E-2;7.639999688E-2;-5.579999834E-2
3.549255469E1;3.599999845E-2;1.015999988E-1;-1.383000016E-1
3.551240781E1;4.999999702E-2;8.929999918E-2;-1.753000021E-1
3.553226250E1;1.017999947E-1;7.789999992E-2;-1.378999949E-1
3.555211875E1;1.429999918E-1;4.809999838E-2;-1.711999923E-1
3.557196563E1;2.505999804E-1;6.799999624E-2;-1.229999959E-1
3.559181719E1;1.406999975E-1;8.669999987E-2;4.729999974E-2
3.561167031E1;1.084999964E-1;1.730000041E-2;-2.989999950E-2
3.563152344E1;3.314999938E-1;1.469999999E-1;-8.609999716E-2
3.565137812E1;4.960999787E-1;1.230999976E-1;2.027999908E-1
3.567122812E1;2.979999781E-1;-5.619999766E-2;1.687999964E-1
3.569108125E1;2.292999923E-1;-4.789999872E-2;-1.589999907E-2
3.571094219E1;1.718000025E-1;-5.839999765E-2;-2.354999930E-1
3.573078594E1;4.167999923E-1;4.919999838E-2;-7.750000060E-2
3.575063906E1;1.802999973E-1;-4.069999978E-2;1.265999973E-1
3.577049219E1;-2.343999892E-1;-1.132999957E-1;-1.949999928E-1
3.579034375E1;-3.373000026E-1;-4.219999909E-2;-3.856999874E-1
3.581019688E1;-3.959999979E-2;1.331999898E-1;-9.119999409E-2
3.583005000E1;-7.789999992E-2;5.279999971E-2;1.063999981E-1
3.584990156E1;-2.149999887E-2;-7.100000046E-3;1.889999956E-2
3.586975469E1;1.865999997E-1;1.087999940E-1;-1.736999899E-1
3.588960781E1;3.665999770E-1;1.451999992E-1;-1.380999982E-1
3.590946094E1;2.170999944E-1;-8.139999956E-2;-7.059999555E-2
3.592931250E1;1.988999993E-1;-1.411999911E-1;-7.949999720E-2
3.594916562E1;2.885999978E-1;4.209999740E-2;-8.839999884E-2
3.596901875E1;4.562999904E-1;1.172999963E-1;-1.096999943E-1
3.598887031E1;1.648999900E-1;-3.170000017E-2;-1.144999936E-1
3.600872344E1;7.220000029E-2;-5.370000005E-2;-4.230000079E-2
3.602857500E1;1.645999998E-1;3.130000085E-2;1.529999916E-2
3.604842812E1;1.586000025E-1;-5.159999803E-2;-1.669999957E-2
3.606828125E1;7.719999552E-2;-1.174999997E-1;-1.070000008E-1
3.608813438E1;-6.109999865E-2;2.099999972E-2;-4.071999788E-1
3.610798594E1;-3.150000051E-2;4.140000045E-2;-4.281999767E-1
3.612783906E1;1.938000023E-1;3.379999846E-2;-2.836999893E-1
3.614769531E1;6.710999608E-1;1.142999977E-1;-7.149999589E-2
3.616754375E1;5.679999590E-1;1.184999943E-1;3.598999977E-1
3.618739688E1;-1.313000023E-1;6.319999695E-2;2.682999969E-1
3.620725000E1;1.230999976E-1;1.498999894E-1;-2.141999900E-1
3.622710156E1;8.017999530E-1;9.339999408E-2;-1.766999960E-1
3.624695469E1;5.263999701E-1;-1.265999973E-1;1.120999977E-1
3.626680625E1;1.269999985E-2;-5.209999904E-2;8.169999719E-2
3.628665938E1;-1.578999907E-1;4.079999775E-2;-1.571999937E-1
3.630651250E1;-3.999999911E-2;-1.459999941E-2;-1.807999909E-1
3.632636562E1;9.219999611E-2;2.749999985E-2;-6.610000134E-2
3.634621719E1;5.370000005E-2;-9.999999311E-4;-2.400000021E-2
3.636607031E1;1.004000008E-1;2.719999850E-2;-9.089999646E-2
3.638592344E1;1.753000021E-1;5.299999844E-3;-1.035999954E-1
3.640577500E1;1.820999980E-1;-6.799999624E-3;-5.539999902E-2
3.642562812E1;2.486999929E-1;9.899999946E-3;-3.379999846E-2
3.644548125E1;2.274999917E-1;4.669999704E-2;-2.999999933E-2
3.646533281E1;1.969999969E-1;6.390000135E-2;-1.125999987E-1
3.648518594E1;2.160999924E-1;4.289999977E-2;-7.549999654E-2
3.650503906E1;1.961999983E-1;2.249999903E-2;-7.669999450E-2
3.652489219E1;1.573999971E-1;1.289999951E-2;1.289999951E-2
3.654474375E1;1.685999930E-1;1.339999959E-2;-5.079999939E-2
3.656459688E1;2.284999937E-1;4.199999850E-3;-1.154999956E-1
3.658445000E1;1.802999973E-1;1.469999924E-2;-9.299999475E-2
3.660430156E1;1.902999878E-1;-4.799999762E-3;-6.269999593E-2
3.662415469E1;1.510999948E-1;-4.900000058E-3;-6.260000169E-2
3.664400781E1;1.512999982E-1;4.360000044E-2;-7.209999859E-2
3.666385938E1;1.511999965E-1;5.309999734E-2;-7.220000029E-2
3.668371250E1;1.118999943E-1;5.269999802E-2;-7.270000130E-2
3.670356562E1;1.805000007E-1;4.199999850E-3;-8.249999583E-2
3.672341875E1;1.608999968E-1;-1.420000009E-2;-9.200000018E-2
3.674327031E1;1.900999993E-1;1.559999958E-2;-8.269999921E-2
3.676312344E1;2.093999982E-1;-3.899999894E-3;-4.470000044E-2
3.678297656E1;1.895999908E-1;-4.299999680E-3;-7.479999959E-2
3.680282813E1;1.797999889E-1;1.449999958E-2;-9.449999779E-2
3.682268125E1;1.800999939E-1;3.409999982E-2;-9.369999915E-2
3.684253438E1;1.608999968E-1;3.399999812E-2;-5.279999971E-2
3.686238750E1;1.612999886E-1;1.409999933E-2;-9.089999646E-2
3.688223906E1;2.005999982E-1;3.379999846E-2;-1.002999991E-1
3.690209219E1;1.712999940E-1;1.459999941E-2;-8.999999613E-2
3.692194531E1;1.808999926E-1;-4.799999762E-3;-8.089999855E-2
3.694179688E1;1.513999999E-1;-1.449999958E-2;-5.199999735E-2
3.696165000E1;1.513999999E-1;3.429999948E-2;-6.159999967E-2
3.698150312E1;2.005999982E-1;3.379999846E-2;-8.079999685E-2
3.700135469E1;2.203999907E-1;1.439999975E-2;-9.979999810E-2
3.702120781E1;1.811999977E-1;1.439999975E-2;-4.089999944E-2
3.704106094E1;1.321000010E-1;4.100000020E-3;-9.019999951E-2
3.706091406E1;1.809999943E-1;3.700000001E-3;-1.004999951E-1
3.708076563E1;1.906999946E-1;-6.300000008E-3;-8.129999787E-2
3.710061875E1;2.101999968E-1;-6.399999838E-3;-4.250000045E-2
3.712047188E1;1.808999926E-1;2.799999900E-3;-6.189999729E-2
3.714032344E1;1.028999984E-1;6.079999730E-2;-8.029999584E-2
3.716017656E1;1.326999962E-1;4.089999944E-2;-9.849999845E-2
3.718002812E1;1.816999912E-1;3.189999983E-2;-7.899999619E-2
3.719988125E1;1.909999996E-1;3.329999745E-2;-8.039999753E-2
3.721973438E1;1.510999948E-1;1.539999992E-2;-7.229999453E-2
3.723958750E1;2.096000016E-1;-2.300000051E-3;-9.279999882E-2
3.725943906E1;2.387999892E-1;-2.009999938E-2;-8.299999684E-2
3.727929219E1;1.896999925E-1;1.030000020E-2;-6.350000203E-2
3.729914531E1;1.211999953E-1;2.929999866E-2;-7.289999723E-2
3.731899688E1;1.212999970E-1;5.829999968E-2;-1.020999998E-1
3.733885000E1;1.897999942E-1;2.939999849E-2;-7.329999655E-2
3.735870313E1;1.796000004E-1;2.989999950E-2;-5.489999801E-2
3.737855469E1;1.793999970E-1;1.300000004E-3;-1.043999940E-1
3.739840781E1;1.695999950E-1;2.159999870E-2;-9.420000017E-2
3.741826094E1;1.500999928E-1;2.099999925E-3;-7.419999689E-2
3.743812031E1;1.990000010E-1;-7.599999662E-3;-9.429999441E-2
3.745796562E1;2.085999995E-1;2.300000051E-3;-6.549999863E-2
3.747781875E1;1.401000023E-1;4.149999842E-2;-7.509999722E-2
3.749767031E1;1.794999987E-1;2.199999988E-2;-8.410000056E-2
3.751752344E1;1.501999944E-1;3.099999856E-3;-5.389999971E-2
3.753737656E1;1.502999961E-1;2.239999920E-2;-6.350000203E-2
3.755722812E1;1.992999911E-1;2.269999869E-2;-1.027999967E-1
3.757708125E1;2.189999968E-1;1.370000001E-2;-6.309999526E-2
3.759693438E1;1.210999936E-1;4.299999680E-3;-5.279999971E-2
3.761679219E1;1.114000008E-1;3.359999880E-2;-1.013000011E-1
3.763663906E1;1.997999996E-1;1.420000009E-2;-4.219999909E-2
3.765649219E1;1.701999903E-1;1.389999967E-2;-8.199999481E-2
3.767634531E1;1.992999911E-1;-5.699999630E-3;-7.349999994E-2
3.769619688E1;1.893000007E-1;4.279999807E-2;-5.439999700E-2
3.771605000E1;1.500999928E-1;3.269999847E-2;-6.430000067E-2
3.773590312E1;1.598999947E-1;2.279999852E-2;-5.449999869E-2
3.775575469E1;1.891999990E-1;3.199999919E-3;-3.529999778E-2
3.777560781E1;2.184000015E-1;1.339999959E-2;-7.530000061E-2
3.779546094E1;2.084999979E-1;1.359999925E-2;-6.560000032E-2
3.781531406E1;1.791999936E-1;2.359999903E-2;-4.569999874E-2
3.783516562E1;1.498999894E-1;1.389999967E-2;-8.439999819E-2
3.785501875E1;1.596999913E-1;1.409999933E-2;-5.469999835E-2
3.787487188E1;1.304000020E-1;2.319999970E-2;-9.399999678E-2
3.789472344E1;2.184000015E-1;-6.599999964E-3;-7.509999722E-2
3.791457656E1;2.184999883E-1;2.099999925E-3;-3.610000014E-2
3.793442969E1;2.087999880E-1;1.069999952E-2;-3.579999879E-2
3.795428125E1;1.993999928E-1;5.879999697E-2;-7.389999926E-2
3.797413438E1;1.508999914E-1;8.779999614E-2;-8.179999888E-2
3.799398750E1;1.511999965E-1;4.879999906E-2;-9.070000052E-2
3.801383906E1;1.215999946E-1;1.059999969E-2;-5.169999972E-2
3.803369219E1;1.313000023E-1;1.300000004E-3;-6.179999933E-2
3.805354531E1;1.996999979E-1;-1.779999956E-2;-8.219999820E-2
3.807339844E1;1.897999942E-1;2.099999972E-2;-7.289999723E-2
3.809325000E1;1.701999903E-1;9.699999355E-3;-8.299999684E-2
3.811310312E1;1.801999956E-1;1.860000007E-2;-8.259999752E-2
3.813295625E1;1.509999931E-1;3.810000047E-2;-7.189999521E-2
3.815280938E1;1.217999980E-1;1.829999872E-2;-7.129999995E-2
3.817266094E1;2.099999934E-1;-1.069999952E-2;-5.179999769E-2
3.819251406E1;1.709000021E-1;-7.999999798E-4;-8.079999685E-2
3.821236563E1;1.905999929E-1;1.809999906E-2;-6.079999730E-2
3.823221875E1;2.104000002E-1;3.729999810E-2;-7.019999623E-2
3.825207188E1;1.322999895E-1;2.709999867E-2;-5.920000002E-2
3.827192500E1;1.520999968E-1;1.709999889E-2;-9.789999574E-2
3.829177656E1;1.717000008E-1;-2.300000051E-3;-7.829999924E-2
3.831162969E1;1.814000010E-1;1.730000041E-2;-6.889999658E-2
3.833148594E1;1.810999960E-1;-2.499999944E-3;-6.019999832E-2
3.835133438E1;1.809999943E-1;-3.000000026E-3;-1.169999968E-2
3.837118750E1;1.907999963E-1;4.490000010E-2;-8.060000092E-2
3.839104062E1;2.006999999E-1;-4.600000102E-3;-6.069999933E-2
3.841089375E1;2.106999904E-1;1.480000000E-2;-4.030000046E-2
3.843074531E1;1.326999962E-1;3.390000015E-2;-4.899999872E-2
3.845059844E1;1.623999923E-1;1.370000001E-2;-9.709999710E-2
3.847045156E1;1.920999885E-1;2.400000021E-2;-8.599999547E-2
3.849030313E1;1.629000008E-1;2.410000004E-2;-1.679999940E-2
3.851015625E1;1.824999899E-1;4.799999762E-3;-9.529999644E-2
3.853000938E1;1.629000008E-1;-1.480000000E-2;-6.589999795E-2
3.854986094E1;1.626999974E-1;1.469999924E-2;-7.620000094E-2
3.856971406E1;1.721999943E-1;1.449999958E-2;-4.779999703E-2
3.858956719E1;1.919000000E-1;2.369999886E-2;-9.659999609E-2
3.860941875E1;1.722999960E-1;3.350000083E-2;-5.739999935E-2
3.862927188E1;2.113999873E-1;-1.529999916E-2;-5.790000036E-2
3.864912500E1;2.016000003E-1;4.499999806E-3;-4.800000042E-2
3.866897812E1;1.428999901E-1;7.279999554E-2;-6.709999591E-2
3.868882969E1;1.527999938E-1;4.329999909E-2;-9.609999508E-2
3.870870156E1;1.919000000E-1;3.439999744E-2;-7.679999620E-2
3.872853438E1;1.525999904E-1;2.449999936E-2;-4.789999872E-2
3.874838750E1;1.817999929E-1;-4.799999762E-3;-6.830000132E-2
3.876824063E1;2.110999972E-1;5.200000014E-3;-6.859999895E-2
3.878809219E1;1.815999895E-1;1.480000000E-2;-3.949999809E-2
3.880794531E1;1.913999915E-1;-4.799999762E-3;-6.889999658E-2
3.882779844E1;1.524000019E-1;2.389999852E-2;-8.789999783E-2
3.884765000E1;1.916999966E-1;2.369999886E-2;-7.769999653E-2
3.886750312E1;1.427000016E-1;4.499999806E-3;-6.759999692E-2
3.888735625E1;1.820999980E-1;4.600000102E-3;-6.709999591E-2
3.890720781E1;1.528999954E-1;1.429999992E-2;-8.619999886E-2
3.892706094E1;1.923999935E-1;3.359999880E-2;-9.499999881E-2
3.894691406E1;1.727999896E-1;1.379999984E-2;-9.499999881E-2
3.896676719E1;2.019999921E-1;3.350000083E-2;-4.659999907E-2
3.898661875E1;1.823999882E-1;3.319999948E-2;-4.690000042E-2
3.900647188E1;1.920000017E-1;1.339999959E-2;-5.739999935E-2
3.902632500E1;2.017000020E-1;-5.799999926E-3;-6.749999523E-2
3.904617656E1;1.819999963E-1;3.289999813E-2;-8.739999682E-2
3.906602969E1;1.819999963E-1;1.299999934E-2;-7.759999484E-2
3.908588281E1;1.626999974E-1;3.240000084E-2;-8.649999648E-2
3.910573438E1;1.627999991E-1;5.189999938E-2;-9.579999745E-2
3.912558750E1;1.727000028E-1;-6.199999712E-3;-8.549999446E-2
3.914544062E1;1.727999896E-1;-5.599999800E-3;-8.519999683E-2
3.916529375E1;1.431999952E-1;2.379999869E-2;-6.619999558E-2
3.918514531E1;1.723999977E-1;3.700000001E-3;-4.729999974E-2
3.920499844E1;1.527999938E-1;2.279999852E-2;-9.659999609E-2
3.922485156E1;1.823999882E-1;3.260000050E-2;-6.639999896E-2
3.924470312E1;1.827999949E-1;2.329999954E-2;-6.499999762E-2
3.926455625E1;1.729999930E-1;1.420000009E-2;-6.469999999E-2
3.928440938E1;1.728999913E-1;-5.699999630E-3;-4.549999908E-2
3.930426250E1;1.727000028E-1;3.280000016E-2;-5.619999766E-2
3.932411406E1;1.627999991E-1;5.130000040E-2;-9.609999508E-2
3.934396719E1;2.021999955E-1;1.200000010E-2;-5.629999936E-2
3.936381875E1;2.022999972E-1;1.200000010E-2;-7.549999654E-2
3.938367188E1;1.925999969E-1;3.170000017E-2;-5.539999902E-2
3.940352500E1;1.242999956E-1;3.130000085E-2;-9.380000085E-2
3.942337812E1;1.342999935E-1;6.059999764E-2;-9.299999475E-2
3.944322969E1;1.538999975E-1;2.499999944E-3;-6.359999627E-2
3.946308281E1;1.141999960E-1;1.269999985E-2;-3.549999744E-2
3.948293594E1;1.727000028E-1;-2.620000020E-2;-9.559999406E-2
3.950278750E1;1.920000017E-1;-6.399999838E-3;-6.700000167E-2
3.952264219E1;1.819999963E-1;2.259999886E-2;-4.829999804E-2
3.954249375E1;2.308999896E-1;2.229999937E-2;-5.859999731E-2
3.956234531E1;1.819999963E-1;2.239999920E-2;-4.849999771E-2
3.958219844E1;1.429999918E-1;3.219999745E-2;-4.759999737E-2
3.960205156E1;1.334999949E-1;2.899999963E-3;-7.609999925E-2
3.962190938E1;1.826999933E-1;-6.199999712E-3;-9.489999712E-2
