"Time (s)";"Linear Acceleration x (m/s^2)";"Linear Acceleration y (m/s^2)";"Linear Acceleration z (m/s^2)"
2.382343800E-2;3.089999855E-1;7.400999665E-1;-2.220299959E0
4.367656300E-2;9.809999466E-1;1.319999933E0;-5.462399960E0
6.352812500E-2;6.917999983E-1;5.027999878E-1;-5.028800011E0
8.338125000E-2;-7.033999562E-1;-1.226199985E0;-8.839999884E-2
1.032343750E-1;-6.011999846E-1;-1.870000005E0;5.200799942E0
1.230859380E-1;-1.515000015E-1;-1.567899942E0;5.048999786E0
1.429390630E-1;-1.224999949E-1;-3.439999819E-1;1.976199985E0
1.627921880E-1;8.439999819E-1;2.506999969E-1;-2.438299894E0
1.826453130E-1;-1.709000021E-1;5.099999905E-1;-3.800899982E0
2.024968750E-1;-4.603999853E-1;3.061999977E-1;-2.410799980E0
2.223562500E-1;3.077999949E-1;2.927999794E-1;-2.206999958E-1
2.422031250E-1;8.879999816E-2;2.972999811E-1;7.184000015E-1
2.620546880E-1;4.567999840E-1;-3.509999812E-1;1.349299908E0
2.819078130E-1;2.635000050E-1;-7.753999829E-1;1.086799979E0
3.017609380E-1;2.459999919E-2;-3.300999999E-1;6.567999721E-1
3.216140630E-1;4.490000010E-2;2.333000004E-1;-2.874000072E-1
3.414656250E-1;3.193999827E-1;5.771999955E-1;-1.429999948E0
3.613187500E-1;8.101999760E-1;1.076399922E0;-2.671900034E0
3.811718750E-1;-9.820000082E-2;3.560999930E-1;-2.560299873E0
4.010234380E-1;-4.140000045E-2;-2.250399828E0;-1.313499928E0
4.208765630E-1;8.551999927E-1;-1.888799906E0;1.551499963E0
4.407296880E-1;1.109499931E0;-4.206999838E-1;3.389999866E0
4.605812500E-1;5.607999563E-1;2.163999975E-1;5.618599892E0
4.804343750E-1;-2.913999856E-1;-1.216999963E-1;5.622299671E0
5.002875000E-1;-4.101999998E-1;-2.328799963E0;2.879499912E0
5.201406250E-1;-1.501999944E-1;-3.769500017E0;3.718999922E-1
5.399921880E-1;-1.223099947E0;-4.287499905E0;-9.440000057E-1
5.598453130E-1;-3.731799841E0;-3.905999899E0;-2.328999996E0
5.796984380E-1;-3.886099815E0;-2.222499847E0;-1.666099906E0
5.995500000E-1;2.645999789E-1;7.576000094E-1;-1.670499921E0
6.194031250E-1;4.587000012E-1;5.479000092E0;-3.423699856E0
6.392562500E-1;-1.799399972E0;-2.178900003E0;1.877999902E-1
6.591078130E-1;-1.172599912E0;-3.488600016E0;3.605700016E0
6.789609380E-1;-9.899999946E-3;-1.435999990E0;2.795099974E0
6.988140630E-1;-4.377999902E-1;-1.614899993E0;-4.443999827E-1
7.186671880E-1;-1.214599967E0;-6.710999608E-1;-1.926599979E0
7.385187500E-1;-4.769999906E-2;-1.415199995E0;-2.179399967E0
7.583750000E-1;1.365199924E0;-1.381899953E0;-1.894999981E0
7.782250000E-1;1.745299935E0;-1.574499965E0;-1.375199914E0
7.980765630E-1;-4.490000010E-2;-3.973299980E0;1.293799996E0
8.179296880E-1;2.282299995E0;-3.566299915E0;2.092399836E0
8.377828130E-1;2.800400019E0;-5.764999986E-1;-2.240999937E-1
8.576343750E-1;1.502799988E0;-5.336999893E-1;-2.561800003E0
8.774875000E-1;5.796999931E-1;-1.807199955E0;-3.445299864E0
8.973406250E-1;9.042999744E-1;-1.101199985E0;-2.727499962E0
9.171921880E-1;1.262300014E0;-8.258000016E-1;-8.967999816E-1
9.370453130E-1;8.143999577E-1;-9.315999746E-1;6.620000005E-1
9.568984380E-1;9.248999953E-1;-1.149999976E0;1.064899921E0
9.767500000E-1;8.931999803E-1;-1.134699941E0;2.025099993E0
9.966031250E-1;1.555999964E-1;-7.742999792E-1;1.732499957E0
1.016456250E0;1.405999959E-1;1.531299949E0;3.994999826E-1
1.036307813E0;9.752999544E-1;1.816299915E0;1.392099977E0
1.056160938E0;2.226099968E0;3.330699921E0;4.087500095E0
1.076014063E0;1.911099911E0;3.379999876E0;3.491099834E0
1.095865625E0;-1.992999911E-1;1.516600013E0;1.384999990E0
1.115718750E0;1.798999906E-1;4.053999782E-1;-3.836999834E-1
1.135571875E0;-6.341999769E-1;6.161999702E-1;4.937999845E-1
1.155425000E0;-1.250699997E0;4.193999767E-1;1.940099955E0
1.175276563E0;-6.448000073E-1;1.094099998E0;1.952099919E0
1.195129688E0;-2.775000036E-1;9.937999845E-1;1.826200008E0
1.214981250E0;9.495999813E-1;2.304600000E0;-3.308999836E-1
1.234834375E0;1.192999959E0;4.205899715E0;-3.310099840E0
1.254687500E0;1.949999928E0;5.917900085E0;-4.867799759E0
1.274539063E0;2.567199945E0;7.184099674E0;-6.171599865E0
1.294392188E0;2.014899969E0;6.967799664E0;-6.641499996E0
1.314245313E0;4.466099739E0;7.460999966E0;-5.750499725E0
1.334098438E0;4.808300018E0;1.997199893E0;-4.051599979E0
1.353951563E0;4.393700123E0;2.080499887E0;-6.516999722E0
1.373804688E0;4.532399654E0;6.841199875E0;1.351899981E0
1.393656250E0;4.263000011E0;3.242399931E0;1.052359962E1
1.413507813E0;4.800099850E0;5.812900066E0;3.107199907E0
1.433362500E0;3.427599907E0;4.129999876E-2;7.729199886E0
1.453214063E0;-3.555599928E0;-7.242399693E0;1.412159920E1
1.473067188E0;-4.632100105E0;-6.302599907E0;7.917699814E0
1.492920313E0;-3.639099836E0;-3.026499987E0;7.397999763E-1
1.512773438E0;-3.200999975E0;1.638000011E-1;-9.664699554E0
1.532625000E0;-3.657999992E0;1.863899946E0;-3.413399935E0
1.552476563E0;-4.470799923E0;-1.194999963E-1;-1.740000024E-2
1.572329688E0;-2.236899853E0;-5.229499817E0;6.740000099E-2
1.592182813E0;-3.560999930E-1;-4.286600113E0;3.563399792E0
1.612035938E0;3.407599926E0;6.007999778E-1;4.452999830E-1
1.631887500E0;3.106799841E0;-1.427699924E0;-2.759699821E0
1.651740625E0;-9.099999666E-1;-1.905299902E0;-1.901799917E0
1.671593750E0;-2.964099884E0;2.303999960E-1;-1.706299901E0
1.691446875E0;-4.345799923E0;7.479999661E-1;-3.868999779E-1
1.711298438E0;-3.774199963E0;1.330000013E-1;-2.757900000E0
1.731151563E0;6.640999913E-1;3.100600004E0;-1.630699992E0
1.751004688E0;-8.329999447E-2;1.249099970E0;7.324100018E0
1.770856250E0;6.110000014E-1;1.911700010E0;9.283199310E0
1.790709375E0;4.594099998E0;3.301199913E0;4.293099880E0
1.810562500E0;5.921999931E0;2.213000059E0;8.127999902E-1
1.830414063E0;4.466599941E0;-1.532059956E1;-7.896999717E-1
1.850267188E0;-5.559000015E0;-1.767140007E1;6.173299789E0
1.870120313E0;-4.852900028E0;-4.621299744E0;5.567899704E0
1.889971875E0;-2.184200048E0;3.188199997E0;4.099999741E-2
1.909825000E0;1.423299909E0;5.227299690E0;-9.800999761E-1
1.929678125E0;1.521600008E0;4.138999939E0;-2.067999989E-1
1.949529688E0;1.236799955E0;2.816699982E0;8.745999932E-1
1.969382813E0;1.065999985E0;1.471099973E0;1.270699978E0
1.989235938E0;1.740000024E-2;-7.026000023E-1;1.133099914E0
2.009089063E0;7.189999521E-2;-1.600499988E0;7.459999919E-1
2.028940625E0;4.511999786E-1;-8.600999713E-1;4.183999896E-1
2.048793750E0;1.280200005E0;5.970999599E-1;1.092000008E-1
2.068646875E0;1.731599927E0;1.647300005E0;-3.497999907E-1
2.088498438E0;1.992599964E0;1.937599897E0;-4.726999998E-1
2.108351563E0;1.350600004E0;2.138999999E-1;1.169999987E-1
2.128204688E0;1.088699937E0;-1.465899944E0;1.388999969E-1
2.148057813E0;1.394699931E0;-1.597099900E0;-8.258999586E-1
2.167909375E0;1.232900023E0;-1.173599958E0;-1.274999976E-1
2.187762500E0;1.296599984E0;-8.829999566E-1;3.753999770E-1
2.207615625E0;1.538100004E0;-7.725999951E-1;4.220999777E-1
2.227467188E0;1.803699970E0;-7.955999970E-1;-4.629999772E-2
2.247320313E0;9.720000029E-1;-1.207199931E0;-9.855999947E-1
2.267173438E0;5.375999808E-1;-9.175999761E-1;-1.355899930E0
2.287025000E0;7.675999999E-1;-9.749999642E-2;-1.021000028E0
2.306878125E0;9.991999865E-1;1.421999931E-1;-9.422000051E-1
2.326731250E0;1.199899912E0;2.259999886E-2;-4.684000015E-1
2.346590625E0;1.035699964E0;6.125000119E-1;1.820899963E0
2.366435938E0;2.989999950E-1;-3.010999858E-1;6.377999783E-1
2.386289063E0;5.569999814E-1;-3.366999924E-1;-8.813999891E-1
2.406140625E0;9.086999893E-1;-2.798999846E-1;1.715299964E0
2.425993750E0;3.146600008E0;8.696999550E-1;-8.952999711E-1
2.445846875E0;1.214499950E0;5.483999848E-1;-9.443999529E-1
2.465698438E0;-1.052999943E-1;8.469999582E-2;-6.305999756E-1
2.485551563E0;5.713999867E-1;1.744000018E-1;5.688999891E-1
2.505403125E0;1.658399940E0;-1.092100024E0;1.269699931E0
2.525257813E0;3.273099899E0;-1.197799921E0;2.408499956E0
2.545109375E0;2.093600035E0;-1.247799993E0;2.496899843E0
2.564960938E0;2.152999938E-1;-3.685999811E-1;1.934299946E0
2.584814063E0;-1.505299926E0;8.497999907E-1;-3.559999913E-2
2.604667188E0;-2.195499897E0;1.679199934E0;-1.321399927E0
2.624518750E0;-1.616999984E0;1.057399988E0;-1.660699964E0
2.644375000E0;-4.836999774E-1;6.017000079E-1;-1.041999936E0
2.664246875E0;4.714999795E-1;-8.222000003E-1;3.874999881E-1
2.684078125E0;1.534600019E0;-6.281999946E-1;6.484000087E-1
2.703929688E0;1.465799928E0;-1.788999885E-1;7.270999551E-1
2.723782813E0;9.230999947E-1;2.197999954E-1;-7.924999595E-1
2.743635938E0;6.886999607E-1;1.250100017E0;-1.596899986E0
2.763489063E0;5.062999725E-1;1.330999970E0;-7.171999812E-1
2.783342188E0;-7.499999553E-2;9.720999599E-1;2.562999964E0
2.803193750E0;-1.407400012E0;4.219999909E-1;1.735299945E0
2.823046875E0;-1.045799971E0;1.892599940E0;-2.028499842E0
2.842898438E0;-1.684299946E0;3.458999991E-1;-5.748799801E0
2.862751563E0;3.747999966E-1;1.746699929E0;-2.115000010E0
2.882604688E0;1.711399913E0;1.169000030E0;-3.683999777E-1
2.902456250E0;3.031299829E0;-4.652999938E-1;-1.078499913E0
2.922309375E0;1.522899985E0;-5.791999698E-1;-1.864099979E0
2.942162500E0;-1.113999963E0;-1.197999939E-1;-8.150000125E-2
2.962014063E0;2.986399889E0;3.137099981E0;6.812299728E0
2.981867188E0;-2.213599920E0;-1.703999996E0;-2.790699959E0
3.001720313E0;-4.337500095E0;-3.123699903E0;-1.966599941E0
3.021573438E0;-3.297999859E0;6.557999849E-1;1.502099991E0
3.041426563E0;-3.735999763E-1;4.935999811E-1;-2.501499891E0
3.061278125E0;6.291999817E-1;1.339299917E0;1.489799976E0
3.081131250E0;-6.000599861E0;-5.204099655E0;7.850899696E0
3.100982813E0;-4.914999962E0;-4.285099983E0;4.172800064E0
3.120835938E0;-2.384599924E0;-4.448299885E0;-7.465199947E0
3.140689063E0;5.981000066E-1;-3.149099827E0;-8.204500198E0
3.160540625E0;2.994400024E0;-2.940599918E0;-9.109999537E-1
3.180393750E0;-1.184999943E-1;-3.312099934E0;3.529899836E0
3.200246875E0;-9.912999868E-1;-2.046399832E0;-1.974999905E-1
3.220100000E0;7.860999703E-1;3.340999782E-1;-1.084200025E0
3.239951563E0;1.517799973E0;-1.495999992E-1;1.173699975E0
3.259804688E0;1.625499964E0;1.630499959E0;7.356999516E-1
3.279657813E0;-7.713999748E-1;3.677599907E0;-1.961999983E-1
3.299509375E0;-5.169999599E-1;9.829899788E0;6.202999949E-1
3.319362500E0;6.975699902E0;9.661799431E0;-2.344899893E0
3.339215625E0;4.082099915E0;1.976699948E0;3.129000068E-1
3.359067188E0;2.456199884E0;3.392999887E0;-1.356400013E0
3.378920313E0;-1.664000005E-1;6.256299973E0;-3.827699900E0
3.398773438E0;-3.488399982E0;7.670399666E0;-2.851399899E0
3.418625000E0;-5.463699818E0;-4.651299953E0;1.816599965E0
3.438478125E0;2.196599960E0;-7.744199753E0;-2.382699966E0
3.458331250E0;-2.570199966E0;-9.486000061E0;6.711699963E0
3.478185938E0;-3.112399817E0;-5.839600086E0;-2.493000031E0
3.498035938E0;-2.562599897E0;1.483399987E0;5.514000058E-1
3.517887500E0;-2.705000043E-1;-1.455999911E-1;2.757799864E0
3.537742188E0;4.423500061E0;8.363999724E-1;5.936999917E-1
3.557595313E0;5.271399975E0;-6.498000026E-1;-1.571299911E0
3.577446875E0;5.802499771E0;2.329799891E0;1.474099994E0
3.597298438E0;3.118099928E0;2.554999828E0;-1.708799958E0
3.617153125E0;3.313999891E0;-7.409999520E-2;-2.440799952E0
3.637004688E0;3.294199944E0;-1.596999913E-1;-1.943999976E-1
3.656857813E0;4.373999834E-1;-3.975999951E-1;3.371199846E0
3.676709375E0;8.969999850E-2;3.185999990E-1;3.433199883E0
3.696562500E0;-2.117699862E0;1.703799963E0;1.352299929E0
3.716415625E0;-3.479099989E0;-2.276999950E-1;1.100600004E0
3.736267188E0;-2.908999920E0;-1.212000012E0;-1.219099998E0
3.756120313E0;-2.522099972E0;-1.930299997E0;-6.800999641E-1
3.775971875E0;7.308999896E-1;8.959999681E-2;-9.818999767E-1
3.795825000E0;1.619499922E0;2.014099836E0;-3.135900021E0
3.815678125E0;-7.188000083E-1;2.630399942E0;-3.190599918E0
3.835531250E0;-1.023999929E0;4.156999886E-1;1.513899922E0
3.855382813E0;-7.719999552E-1;-8.201999664E-1;1.839299917E0
3.875235938E0;-1.927699924E0;6.599999964E-2;-2.363899946E0
3.895089063E0;-1.259400010E0;1.735799909E0;-1.300099969E0
3.914940625E0;1.026000023E0;1.836599946E0;-2.387899876E0
3.934793750E0;-3.502399921E0;1.549999952E0;-2.491999865E-1
3.954648438E0;1.076799989E0;6.162999868E-1;-5.162999630E-1
3.974500000E0;3.830599785E0;-3.505399942E0;-1.486099958E0
3.994351563E0;1.939700007E0;-6.003699780E0;3.483399868E0
4.014204688E0;-2.412999868E-1;-3.743299961E0;1.750999928E0
4.034057813E0;5.979999900E-1;-2.299499989E0;-6.592999697E-1
4.053910938E0;2.524999976E-1;-2.782299995E0;-7.777999640E-1
4.073764063E0;-2.104000002E-1;-2.008100033E0;4.789999872E-2
4.093615625E0;-8.603000045E-1;-1.902999997E0;-1.342999935E0
4.113468750E0;-2.642999887E0;-1.317999959E0;-1.002999991E-1
4.133320313E0;-1.673299909E0;3.563099861E0;1.479300022E0
4.153175000E0;-1.653699994E0;3.342099905E0;-4.346999824E-1
4.173026563E0;-1.713899970E0;3.718999922E-1;-1.042299986E0
4.192879688E0;-3.227999806E-1;2.762999833E-1;5.428999662E-1
4.212732813E0;1.142899990E0;2.953999937E-1;3.900000080E-2
4.232584375E0;8.991999626E-1;2.623899937E0;-1.299399972E0
4.252437500E0;-1.212999970E-1;3.177399874E0;-1.229099989E0
4.272290625E0;1.150099993E0;2.496999979E0;-8.344999552E-1
4.292142188E0;1.462199926E0;9.125999808E-1;8.129999638E-1
4.311995313E0;7.482999563E-1;-6.800999641E-1;2.251499891E0
4.331846875E0;1.789999940E-2;-1.732800007E0;1.938199997E0
4.351700000E0;3.657999933E-1;-1.756199956E0;1.246799946E0
4.371553125E0;1.148899913E0;-8.331999779E-1;8.059999943E-1
4.391404688E0;9.942999482E-1;-4.649999738E-2;1.618999988E-1
4.411257813E0;-5.599999800E-2;4.298999906E-1;-2.839999795E-1
4.431110938E0;-1.012099981E0;2.062999904E-1;-3.480999768E-1
4.450964063E0;-5.242999792E-1;-5.150000006E-2;-3.993999958E-1
4.470815625E0;1.054999977E-1;-1.574999988E-1;-1.645999998E-1
4.490668750E0;6.438999772E-1;3.269999847E-2;2.067999989E-1
4.510521875E0;3.479999900E-1;1.255999953E-1;3.112999797E-1
4.530373438E0;-1.317999959E-1;1.036999971E-1;7.119999826E-2
4.550226563E0;-4.394999743E-1;3.528999984E-1;-1.215000004E-1
4.570079688E0;-6.243000031E-1;-1.269999985E-2;-4.444999993E-1
4.589931250E0;2.620999813E-1;-3.382999897E-1;-5.641999841E-1
4.609784375E0;7.732999921E-1;-8.545999527E-1;1.257200003E0
4.629642188E0;7.414000034E-1;-1.288699985E0;1.204499960E0
4.649490625E0;-3.438999951E-1;-7.271999717E-1;9.456999898E-1
4.669342188E0;-1.081599951E0;5.065999627E-1;1.138999984E-1
4.689195313E0;-7.725999951E-1;9.170999527E-1;-1.594900012E0
4.709048438E0;-2.680000067E-1;-1.491999924E-1;-1.408800006E0
4.728900000E0;2.206999958E-1;-5.200999975E-1;6.179999933E-2
4.748753125E0;1.218599916E0;-6.274999976E-1;9.929999709E-1
4.768606250E0;1.784999967E0;-4.007000029E-1;1.758899927E0
4.788457813E0;1.753699899E0;2.169999927E-1;1.513199925E0
4.808310938E0;1.810999990E0;6.444999576E-1;1.462099910E0
4.828164063E0;4.226000011E-1;2.529000044E-1;5.027999878E-1
4.848017188E0;-7.468000054E-1;4.921999872E-1;-1.182199955E0
4.867868750E0;-5.954999924E-1;6.879999638E-1;-1.418299913E0
4.887721875E0;-6.807000041E-1;7.342000008E-1;-1.396899939E0
4.907575000E0;-2.057999969E-1;6.417999864E-1;-1.048099995E0
4.927426563E0;-1.781999916E-1;4.472000003E-1;-6.439999938E-1
4.947279688E0;-3.906999826E-1;-5.986999869E-1;-1.555899978E0
4.967132813E0;-6.635000110E-1;-8.363999724E-1;-1.733699918E0
4.986984375E0;-3.788999915E-1;-3.316999972E-1;-1.106599927E0
5.006837500E0;-3.769999743E-2;3.236999810E-1;-3.709999919E-1
5.026690625E0;-1.306999922E-1;5.184000134E-1;1.713999957E-1
5.046543750E0;-4.329999983E-1;6.274999976E-1;3.630000055E-1
5.066395313E0;-3.447999954E-1;7.998999953E-1;2.716000080E-1
5.086248438E0;6.709999591E-2;7.224000096E-1;2.331999987E-1
5.106100000E0;3.921999931E-1;3.188000023E-1;2.205999941E-1
5.125953125E0;4.253000021E-1;-2.153999954E-1;4.319999740E-2
5.145806250E0;-2.019999921E-2;-4.041999876E-1;1.585000008E-1
5.165657813E0;-2.289999872E-1;-4.522999823E-1;2.540000081E-1
5.185510938E0;1.028999984E-1;-4.417999983E-1;-2.999999851E-4
5.205364063E0;4.749999940E-1;-3.632999957E-1;-2.820000052E-1
5.225215625E0;6.604999900E-1;-2.891999781E-1;-3.349999785E-1
5.245068750E0;4.902999997E-1;-2.680000067E-1;-3.170000017E-2
5.264921875E0;3.561999798E-1;-1.111999974E-1;2.299999893E-1
5.284773438E0;-3.449999914E-2;5.609999970E-2;4.583999813E-1
5.304626563E0;-3.086999953E-1;-2.989999950E-2;4.341999888E-1
5.324479688E0;-5.349999666E-1;-1.935999990E-1;3.920999765E-1
5.344332813E0;-3.704999983E-1;-2.460999936E-1;3.014000058E-1
5.364184375E0;-6.599999964E-2;-4.845999777E-1;-1.006999984E-1
5.384037500E0;1.428999901E-1;-7.764999866E-1;-2.778999805E-1
5.403889063E0;1.648999900E-1;-7.317000031E-1;-9.589999914E-2
5.423742188E0;-7.849999517E-2;-5.907999873E-1;-1.539999992E-1
5.443595313E0;-1.352999955E-1;-3.975999951E-1;-4.731999934E-1
5.463448438E0;4.250000045E-2;-1.512999982E-1;-5.212999582E-1
5.483300000E0;1.816999912E-1;-3.539999947E-2;-3.003999889E-1
5.503154688E0;1.448999941E-1;-4.889999703E-2;-2.714000046E-1
5.523006250E0;3.879999742E-2;-7.329999655E-2;-1.781999916E-1
5.542859375E0;5.999999703E-4;-3.720000014E-2;-5.260000005E-2
5.562710938E0;1.295000017E-1;1.265999973E-1;-5.109999701E-2
5.582564063E0;2.193000019E-1;2.463999987E-1;-1.159999967E-1
5.602415625E0;1.717000008E-1;9.679999948E-2;-2.506999969E-1
5.622268750E0;-9.129999578E-2;-1.888999939E-1;-3.234999776E-1
5.642121875E0;-6.969999522E-2;-4.420999885E-1;-3.159999847E-1
5.661973438E0;2.268999964E-1;-2.825999856E-1;-1.952999979E-1
5.681826563E0;2.793000042E-1;-2.602999806E-1;-1.834999919E-1
5.701679688E0;7.649999857E-2;-4.043000042E-1;-1.731999964E-1
5.721532813E0;-1.950000040E-2;-4.818999767E-1;-3.200999796E-1
5.741384375E0;-8.999999613E-3;-5.248000026E-1;-2.547000051E-1
5.761237500E0;4.050000012E-2;-5.773999691E-1;-3.199999919E-3
5.781090625E0;4.133999944E-1;-4.391999841E-1;3.723999858E-1
5.800942188E0;4.138000011E-1;-1.849000007E-1;3.971999884E-1
5.820795313E0;1.210999936E-1;-1.736999899E-1;3.989999741E-2
5.840650000E0;-1.238999963E-1;-8.219999820E-2;-3.629999980E-2
5.860501563E0;-1.547999978E-1;-1.026999950E-1;8.619999886E-2
5.880353125E0;8.869999647E-2;-1.158999950E-1;3.071999848E-1
5.900206250E0;2.057999969E-1;-6.989999861E-2;1.361999959E-1
5.920059375E0;-1.579999924E-1;-1.024999991E-1;4.809999838E-2
5.939910938E0;-3.755999804E-1;-1.705999970E-1;-1.171999946E-1
5.959764063E0;-3.177999854E-1;-3.472999930E-1;-2.352999896E-1
5.979617188E0;-1.506000012E-1;-5.972999930E-1;-4.369999841E-2
5.999468750E0;3.107999861E-1;-4.641999900E-1;3.362999856E-1
6.019321875E0;4.865999818E-1;-3.908999860E-1;2.942999899E-1
6.039175000E0;5.389999971E-2;-4.300999939E-1;1.589999944E-1
6.059028125E0;6.219999865E-2;-2.769999802E-1;1.683000028E-1
6.078879688E0;1.289999932E-1;-1.754999906E-1;-2.909999900E-2
6.098732813E0;-1.569999903E-1;-3.055000007E-1;-7.959999889E-2
6.118584375E0;3.629999980E-2;-3.585000038E-1;2.446999997E-1
6.138439063E0;2.603999972E-1;-3.165999949E-1;4.445999861E-1
6.158290625E0;5.534999967E-1;-1.107999980E-1;4.831999838E-1
6.178142188E0;5.412999988E-1;-3.830000013E-2;2.087999880E-1
6.197996875E0;2.043000013E-1;-1.907999963E-1;-1.632999927E-1
6.217846875E0;1.504999995E-1;-4.539999962E-1;-2.491999865E-1
6.237701563E0;1.168999970E-1;-4.648000002E-1;4.129999876E-2
6.257554688E0;2.119999975E-1;-4.438999891E-1;1.949999928E-1
6.277406250E0;2.284999937E-1;-3.695999980E-1;2.382999957E-1
6.297259375E0;7.669999450E-2;-7.029999793E-2;-7.299999893E-2
6.317112500E0;-1.913999915E-1;-1.761000007E-1;-7.791000009E-1
6.336964063E0;-2.039999962E-1;-4.902999997E-1;-3.544999957E-1
6.356817188E0;4.989999905E-2;-5.230000019E-1;-5.669999868E-2
6.376668750E0;1.074999943E-1;-2.602999806E-1;9.119999409E-2
6.396523438E0;-1.010999978E-1;1.484999955E-1;2.771999836E-1
6.416375000E0;-2.913999856E-1;1.732999980E-1;2.205999941E-1
6.436228125E0;-1.181999967E-1;-8.630000055E-2;1.500000013E-3
6.456081250E0;-1.289999951E-2;-1.366000026E-1;2.192000002E-1
6.475932813E0;1.124999970E-1;1.625999957E-1;5.062000155E-1
6.495784375E0;1.111999974E-1;3.400000036E-1;4.038999975E-1
6.515639063E0;2.190000005E-2;4.555999935E-1;1.838999987E-1
6.535492188E0;7.999999798E-4;4.527999759E-1;9.759999812E-2
6.555343750E0;1.158000007E-1;4.535999894E-1;1.598999947E-1
6.575195313E0;3.283999860E-1;6.238999963E-1;2.575999796E-1
6.595048438E0;5.604000092E-1;7.421000004E-1;2.284999937E-1
6.614901563E0;7.046999931E-1;8.185999990E-1;1.753999889E-1
6.634753125E0;6.728000045E-1;8.418999910E-1;1.460999995E-1
6.654606250E0;5.529999733E-1;7.393999696E-1;5.949999765E-2
6.674459375E0;4.341999888E-1;5.515999794E-1;-4.109999910E-2
6.694310938E0;2.080000006E-2;7.190999985E-1;9.149999917E-2
6.714164063E0;1.354999989E-1;1.056299925E0;1.384999901E-1
6.734017188E0;5.927000046E-1;1.124599934E0;-1.118000001E-1
6.753870313E0;2.055999935E-1;1.292699933E0;8.379999548E-2
6.773721875E0;-3.971999884E-1;1.513399959E0;1.511999965E-1
6.793576563E0;-5.465999842E-1;1.594799995E0;3.729999810E-2
6.813428125E0;4.231999815E-1;1.277699947E0;-1.964000016E-1
6.833281250E0;1.415899992E0;4.948000014E-1;-1.683000028E-1
6.853134375E0;1.484599948E0;1.501999944E-1;5.099999718E-3
6.872985938E0;8.028999567E-1;6.613000035E-1;6.028000116E-1
6.892837500E0;-6.653000116E-1;1.582499981E0;1.295899987E0
6.912690625E0;-1.423900008E0;2.201799870E0;6.954999566E-1
6.932543750E0;-1.832000017E-1;1.308200002E0;-6.740000099E-2
6.952396875E0;8.818999529E-1;1.788000017E-1;9.730000049E-2
6.972248438E0;1.611799955E0;-5.588999987E-1;-2.651000023E-1
6.992101563E0;1.440599918E0;-1.293399930E0;-4.641999900E-1
7.011954688E0;6.579999924E-1;-1.382499933E0;-2.013999969E-1
7.031806250E0;-1.871999949E-1;-4.682999849E-1;-1.149999946E-1
7.051659375E0;-6.970999837E-1;1.112299919E0;-1.099999994E-3
7.071512500E0;-1.191900015E0;1.907299995E0;2.978999913E-1
7.091364063E0;-1.770200014E0;1.741799951E0;4.472000003E-1
7.111218750E0;-1.729799986E0;1.164499998E0;4.034999907E-1
7.131070313E0;-6.635000110E-1;4.347999990E-1;-4.729999900E-1
7.150921875E0;2.474000007E-1;-1.335999966E-1;-2.823999822E-1
7.170775000E0;4.921999872E-1;-1.287000030E-1;-1.845999956E-1
7.190628125E0;7.566999793E-1;5.200999975E-1;-1.431999952E-1
7.210479688E0;1.070899963E0;8.666999936E-1;-2.424999923E-1
7.230332813E0;7.455999851E-1;1.001299977E0;-3.619999811E-2
7.250185938E0;2.308999896E-1;1.103500009E0;-3.159999847E-2
7.270037500E0;1.068999991E-1;8.870999813E-1;-9.982999563E-1
7.289890625E0;3.082999885E-1;1.472000033E-1;-7.351999879E-1
7.309743750E0;-3.070999980E-1;-1.030000020E-2;-5.699999630E-3
7.329596875E0;-9.769999981E-2;1.307999939E-1;5.643999577E-1
7.349448438E0;3.825999796E-1;3.549000025E-1;3.050000072E-1
7.369301563E0;7.177999616E-1;2.547999918E-1;-3.064000010E-1
7.389154688E0;6.184999943E-1;-1.754999906E-1;-2.766000032E-1
7.409006250E0;-1.099999994E-2;-4.005999863E-1;-2.283999920E-1
7.428859375E0;-7.829999924E-2;-4.599999785E-1;-7.706999779E-1
7.448710938E0;3.025999963E-1;-4.685999751E-1;-1.382499933E0
7.468564063E0;4.948999882E-1;-2.953999937E-1;-1.779999971E0
7.488417188E0;4.399999976E-1;-3.050000072E-1;-2.096899986E0
7.508268750E0;3.898999989E-1;-3.471999764E-1;-2.337399960E0
7.528121875E0;-1.752000004E-1;-4.495999813E-1;-2.309499979E0
7.547975000E0;-6.243000031E-1;-2.492999882E-1;-2.018300056E0
7.567826563E0;-6.963999867E-1;6.849999726E-2;-2.051599979E0
7.587679688E0;-1.018800020E0;5.483999848E-1;-1.645299911E0
7.607532813E0;-1.756799936E0;6.940000057E-1;-2.339499950E0
7.627385938E0;-2.721699953E0;3.006999791E-1;-4.202499866E0
7.647239063E0;-2.841799974E0;-3.364000022E-1;-3.806199789E0
7.667090625E0;-3.116299868E0;-1.730999947E-1;-4.048999846E-1
7.686943750E0;-2.499099970E0;3.946000040E-1;1.834599972E0
7.706795313E0;1.026199937E0;1.273999929E0;2.236000061E0
7.726648438E0;1.979799986E0;1.486599922E0;2.443099976E0
7.746501563E0;5.389999971E-2;1.245499969E0;3.720499992E0
7.766353125E0;-1.109099984E0;1.662099957E0;6.185899734E0
7.786206250E0;4.259999841E-2;2.302500010E0;5.567999840E0
7.806059375E0;1.474499941E0;1.548699975E0;1.528800011E0
7.825912500E0;1.377099991E0;2.987999916E-1;-7.899000049E-1
7.845764063E0;8.315999508E-1;-3.208000064E-1;-2.391700029E0
7.865617188E0;1.222899914E0;-8.920999765E-1;-1.597399950E0
7.885470313E0;9.989999533E-1;-1.602999926E0;-9.019999504E-1
7.905321875E0;7.833999991E-1;-2.189100027E0;-2.483000010E-1
7.925175000E0;1.533899903E0;-2.038300037E0;-1.251600027E0
7.945028125E0;2.769099951E0;-6.173999906E-1;-2.624799967E0
7.964881250E0;3.437399864E0;1.133199930E0;-3.506799936E0
7.984732813E0;2.887099981E0;2.349699974E0;-2.099599838E0
8.004585938E0;1.612900019E0;2.401000023E0;-1.610700011E0
8.024439063E0;5.669999868E-2;1.853799939E0;-3.003799915E0
8.044290625E0;3.150999844E-1;1.311699986E0;-4.532499790E0
8.064143750E0;4.044999778E-1;3.886999786E-1;-2.976799965E0
8.083996875E0;-3.606199980E0;1.420799971E0;-1.056999937E-1
8.103848438E0;-4.794799805E0;2.825500011E0;-8.772999644E-1
8.123701563E0;-3.700899839E0;3.024499893E0;-4.979000092E0
8.143556250E0;-8.934999704E-1;1.801999927E0;-4.740200043E0
8.163407813E0;-2.283799887E0;1.559099913E0;2.549999952E-1
8.183259375E0;-2.514400005E0;1.654599905E0;3.643999815E0
8.203112500E0;3.781999946E-1;1.995999932E0;4.285699844E0
8.222965625E0;3.273999989E-1;1.120899916E0;3.289199829E0
8.242817188E0;1.279999912E-1;-6.804999709E-1;1.525399923E0
8.262670313E0;1.602299929E0;-1.703299999E0;1.608899951E0
8.282523438E0;1.790899992E0;-2.096099854E0;2.225600004E0
8.302375000E0;1.380699992E0;-1.304499984E0;3.564199924E0
8.322228125E0;1.432399988E0;-6.347000003E-1;3.624300003E0
8.342081250E0;1.757799983E0;-4.221999943E-1;2.954799891E0
8.361934375E0;1.823699951E0;-3.990999758E-1;2.098899841E0
8.381785938E0;1.757799983E0;-1.656000018E-1;1.054299951E0
8.401639063E0;1.688099980E0;-1.469999999E-1;1.098999977E-1
8.421492188E0;1.333400011E0;-2.929999866E-2;-2.786000073E-1
8.441343750E0;1.214100003E0;1.431999952E-1;-7.015999556E-1
8.461196875E0;1.029500008E0;4.069999978E-2;-9.319999814E-1
8.481050000E0;8.015999794E-1;-2.435999960E-1;-8.833000064E-1
8.500901563E0;6.794999838E-1;-7.245999575E-1;-1.360399961E0
8.520754688E0;5.112999678E-1;-1.071900010E0;-1.579599977E0
8.540607813E0;3.729999959E-1;-1.265399933E0;-2.721499920E0
8.560460938E0;-2.708999813E-1;-9.391999841E-1;-3.805599928E0
8.580312500E0;-8.252999783E-1;-2.620999813E-1;-2.571499825E0
8.600165625E0;-9.512999654E-1;7.987999916E-1;-1.024399996E0
8.620025000E0;-8.240999579E-1;1.859000027E-1;-1.375000000E0
8.639870313E0;-1.360299945E0;-2.200500011E0;-1.679199934E0
8.659723438E0;-1.594999909E0;-4.251100063E0;-2.062000036E0
8.679576563E0;-1.127200007E0;-3.551599979E0;-1.673200011E0
8.699428125E0;-4.882699966E0;-2.547299862E0;7.394999862E-1
8.719281250E0;-6.254600048E0;-7.129999995E-2;2.647099972E0
8.739134375E0;-2.453500032E0;2.642599821E0;2.686499834E0
8.758985938E0;-2.358599901E0;3.218199968E0;3.364099979E0
8.778839063E0;-2.638000011E0;3.305500031E0;3.228899956E0
8.798692188E0;-1.606699944E0;3.360399961E0;2.154899836E0
8.818543750E0;4.113999903E-1;2.725299835E0;4.490000010E-2
8.838396875E0;2.043999910E0;1.665899992E0;-9.927999973E-1
8.858250000E0;3.690599918E0;6.256999969E-1;-2.442999929E-1
8.878101563E0;4.454099655E0;-3.093999922E-1;8.021999598E-1
8.897954688E0;4.594799995E0;-1.101999998E0;1.620999932E0
8.917807813E0;2.440399885E0;-1.913199902E0;2.078999996E0
8.937660938E0;5.848999619E-1;-1.478699923E0;1.541899920E0
8.957512500E0;1.283599973E0;6.071999669E-1;1.205699921E0
8.977365625E0;2.644700050E0;2.256099939E0;3.312999904E-1
8.997217188E0;4.396800041E0;3.026299953E0;-7.525999546E-1
9.017070313E0;4.341899872E0;2.733999968E0;-8.950999975E-1
9.036923438E0;2.883499861E0;1.395099998E0;-9.209999442E-2
9.056775000E0;2.183099985E0;4.210999906E-1;-7.734000087E-1
9.076628125E0;1.314800024E0;-2.789999843E-1;-2.025899887E0
9.096481250E0;-2.043999881E-1;-9.548999667E-1;-2.385599852E0
9.116334375E0;-1.069299936E0;-9.666999578E-1;-1.979200006E0
9.136185938E0;-4.062500000E0;-5.062999725E-1;3.111999929E-1
9.156039063E0;-4.817699909E0;2.686199903E0;-2.300899982E0
9.175892188E0;-5.120199680E0;2.535599947E0;-1.139439964E1
9.195743750E0;-2.043999881E-1;4.467999935E-1;-9.636400223E0
9.215596875E0;1.877499938E0;4.406999946E-1;3.722699881E0
9.235450000E0;-1.838699937E0;1.826999903E0;8.686599731E0
9.255303125E0;-1.469299912E0;2.276000023E0;8.477999687E0
9.275154688E0;-3.617999852E-1;2.563899994E0;7.197299957E0
9.295009375E0;-2.665699959E0;2.362799883E0;5.749199867E0
9.314860938E0;-7.103999853E-1;3.252399921E0;4.288700104E0
9.334712500E0;-4.084999859E-1;3.362399817E0;2.980499983E0
9.354565625E0;-9.822999835E-1;1.828399897E0;4.704099655E0
9.374418750E0;-1.529199958E0;7.909999788E-2;4.676000118E0
9.394270313E0;-5.575000048E-1;-8.248999715E-1;2.043799877E0
9.414123438E0;3.261999786E-1;-1.184999943E0;2.674999833E-1
9.433976563E0;1.200299978E0;-6.004999876E-1;-1.989999972E-2
9.453829688E0;1.643999934E0;4.756999910E-1;1.011500001E0
9.473681250E0;1.498399973E0;1.165599942E0;7.206000090E-1
9.493534375E0;3.195999861E-1;1.657799959E0;1.211199999E0
9.513387500E0;2.850999832E-1;3.994999826E-1;-1.974199891E0
9.533239063E0;5.313999653E-1;7.396999598E-1;-2.085700035E0
9.553092188E0;-4.529999793E-1;7.127999663E-1;-2.207299948E0
9.572945313E0;-1.231999993E-1;3.427999914E-1;-1.431599975E0
9.592796875E0;-6.920999885E-1;-6.200999618E-1;-1.148000002E0
9.612650000E0;-7.109999657E-1;-2.329499960E0;-1.500999928E0
9.632503125E0;-1.486899972E0;-2.617499828E0;-3.159999847E-1
9.652354688E0;-3.831000030E-1;4.150999784E-1;2.539999969E-2
9.672207813E0;7.453999519E-1;3.182199955E0;-5.579000115E-1
9.692060938E0;3.314999938E-1;4.094799995E0;-4.648000002E-1
9.711914063E0;-2.411700010E0;3.455399990E0;-1.721999943E-1
9.731765625E0;-5.028999805E0;9.558999538E-1;-9.871999621E-1
9.751618750E0;-6.191799641E0;-9.634999633E-1;1.545300007E0
9.771471875E0;-7.041899681E0;-2.316900015E0;3.272499800E0
9.791323438E0;-4.157400131E0;6.740000099E-2;5.528199673E0
9.811176563E0;-1.467099905E0;2.301899910E0;5.024199963E0
9.831028125E0;-5.020000041E-2;3.187000036E0;4.638299942E0
9.850881250E0;1.012300014E0;3.988299847E0;5.457200050E0
9.870734375E0;2.295300007E0;4.809799671E0;3.736099958E0
9.890587500E0;1.638799906E0;3.427599907E0;1.097299933E0
9.910439063E0;-1.127900004E0;7.572000027E-1;-2.201200008E0
9.930292188E0;-3.223999977E0;-8.862999678E-1;-2.674700022E0
9.950145313E0;-9.077999592E-1;-1.605499983E0;-3.350999951E-1
9.969996875E0;-4.206999838E-1;-2.200500011E0;8.391000032E-1
9.989850000E0;1.578499913E0;-2.028699875E0;1.103399992E0
1.000970313E1;3.332199812E0;-2.009799957E0;1.089499950E0
1.002955625E1;1.700899959E0;-2.747699976E0;-2.377999872E-1
1.004940781E1;1.736099958E0;-2.591699839E0;-1.430400014E0
1.006926094E1;4.542500019E0;-8.175999522E-1;-3.527999818E-1
1.008911250E1;7.198400021E0;1.059399962E0;5.295000076E-1
1.010896563E1;3.430999994E0;1.566900015E0;8.985999823E-1
1.012881875E1;-1.043300033E0;2.829200029E0;-1.317299962E0
1.014867031E1;6.826999784E-1;3.284399986E0;-1.301899910E0
1.016852344E1;2.173199892E0;2.141999960E0;-4.441999793E-1
1.018837656E1;1.755100012E0;1.653299928E0;-3.434999943E0
1.020822812E1;2.124999911E-1;2.135200024E0;-3.620499849E0
1.022808125E1;8.255999684E-1;3.278800011E0;-9.519999623E-1
1.024793438E1;4.231299877E0;4.096300125E0;3.595999777E-1
1.026778594E1;1.103999987E-1;1.523299932E0;-8.993999958E-1
1.028763906E1;-4.415599823E0;-1.149899960E0;-7.908999920E-1
1.030749219E1;-4.535500050E0;-2.402099848E0;1.995000005E0
1.032734531E1;-1.487299919E0;-2.421000004E0;2.823999882E0
1.034719688E1;3.422999978E-1;-1.247799993E0;3.197999954E0
1.036705000E1;-4.267999828E-1;-8.506000042E-1;4.695499897E0
1.038690312E1;2.809999883E-1;-1.069999952E-2;3.146999836E0
1.040675469E1;9.847999811E-1;5.390999913E-1;7.294999957E-1
1.042660781E1;2.762999833E-1;4.488999844E-1;6.777999997E-1
1.044646094E1;-1.445999891E-1;6.455000043E-1;8.913999796E-1
1.046631406E1;3.668999970E-1;3.597999811E-1;9.799999744E-2
1.048616562E1;1.852099895E0;-3.118000031E-1;-8.475999832E-1
1.050601875E1;2.971999884E0;-7.188000083E-1;-1.156000018E0
1.052587188E1;3.110599995E0;-1.132399917E0;-1.326499939E0
1.054572344E1;2.894500017E0;-6.557999849E-1;-7.222999930E-1
1.056557656E1;2.967700005E0;2.662999928E-1;-5.600999594E-1
1.058542969E1;3.195299864E0;4.972999990E-1;-1.744399905E0
1.060528281E1;2.901000023E0;1.929000020E-1;-2.748600006E0
1.062513438E1;1.897899985E0;1.630000025E-2;-2.291100025E0
1.064498750E1;4.758999944E-1;-5.889999866E-2;-1.197600007E0
1.066484062E1;-1.344299912E0;-4.779999852E-1;-4.787999988E-1
1.068469219E1;-2.107300043E0;-1.007300019E0;-4.466999769E-1
1.070454531E1;-3.020399809E0;-1.238600016E0;-1.106599927E0
1.072439844E1;-5.624599934E0;-8.233000040E-1;-1.843999922E-1
1.074425000E1;-6.741199970E0;-9.140999913E-1;-4.060999751E-1
1.076410469E1;-6.917999744E0;-1.501699924E0;-2.217799902E0
1.078395625E1;-6.719999790E0;-8.970999718E-1;-1.382900000E0
1.080380781E1;-5.583600044E0;2.291999906E-1;5.748000145E-1
1.082366094E1;-2.628999949E0;1.815699935E0;2.556900024E0
1.084351406E1;-1.321000010E-1;2.612200022E0;2.588999987E0
1.086336719E1;1.642099977E0;2.682600021E0;8.301999569E-1
1.088321875E1;1.737199903E0;1.870399952E0;-4.079999775E-2
1.090307188E1;1.952299953E0;1.484499931E0;8.471999764E-1
1.092292500E1;1.975999951E0;1.349399924E0;1.694799900E0
1.094277656E1;1.311800003E0;1.057600021E0;1.865700006E0
1.096262969E1;2.382999957E-1;-2.806999981E-1;3.339999914E-2
1.098248281E1;4.009999931E-1;-1.269899964E0;-2.954999804E-1
1.100233438E1;2.735800028E0;-9.706999660E-1;4.047999978E-1
1.102218750E1;3.348099947E0;-1.046499968E0;-9.149999917E-2
1.104204062E1;2.694399834E0;-8.768999577E-1;-1.712999940E-1
1.106189375E1;1.942999959E0;-1.144199967E0;-2.685999870E-1
1.108174531E1;7.626999617E-1;-1.489799976E0;-6.225999594E-1
1.110159844E1;9.580000043E-1;-1.028100014E0;-6.969999522E-2
1.112145156E1;2.937000036E0;-5.729999766E-2;-3.055999875E-1
1.114130312E1;4.530900002E0;9.513999820E-1;-7.129999995E-1
1.116115625E1;4.588399887E0;1.147799969E0;-8.907999992E-1
1.118101719E1;3.293399811E0;1.075099945E0;-5.392000079E-1
1.120086250E1;1.977499962E0;1.027199984E0;-1.675699949E0
1.122071406E1;1.089399934E0;1.988499999E0;-1.857299924E0
1.124056562E1;-2.651299953E0;2.792699814E0;-1.692399979E0
1.126041875E1;-7.689299583E0;3.042099953E0;-1.664099932E0
1.128027188E1;2.964599848E0;4.008500099E0;-1.905599952E0
1.130012500E1;4.704199791E0;2.264299870E0;-1.384499907E0
1.131997656E1;-2.348399878E0;4.966000021E-1;7.306999564E-1
1.133982969E1;-7.870100021E0;-1.617799997E0;2.379099846E0
1.135968281E1;-5.969699860E0;-2.065399885E0;1.846199989E0
1.137953438E1;-1.390399933E0;-2.002099991E0;2.188499928E0
1.139938750E1;8.339999914E-1;-1.252300024E0;3.328199863E0
1.141923906E1;1.565799952E0;-2.940999866E-1;3.555499792E0
1.143909219E1;1.449100018E0;2.933999896E-1;2.384099960E0
1.145894531E1;9.254999757E-1;5.044000149E-1;1.437999964E0
1.147879844E1;3.597999811E-1;5.918999910E-1;9.326999784E-1
1.149865156E1;7.840999961E-1;2.829999924E-1;-8.540000021E-2
1.151850312E1;2.101799965E0;-3.599999938E-3;-1.414299965E0
1.153835625E1;3.255999804E0;-2.991999984E-1;-1.834599972E0
1.155820781E1;3.696099997E0;-5.963999629E-1;-1.674699903E0
1.157806094E1;3.459399939E0;-9.017999768E-1;-7.471999526E-1
1.159791406E1;2.973299980E0;-7.044999599E-1;-9.539999813E-2
1.161776719E1;2.021399975E0;-3.231000006E-1;-1.449199915E0
1.163761875E1;1.686699986E0;-6.129999757E-1;-4.515100002E0
1.165747188E1;8.384000063E-1;-1.016600013E0;-4.027699947E0
1.167732500E1;2.514999807E-1;-1.220399976E0;-1.915399909E0
1.169717656E1;-6.628999710E-1;-1.104099989E0;1.415399909E0
1.171702969E1;-2.739199877E0;-9.524999857E-1;1.251500010E0
1.173688281E1;-4.552099705E0;-1.101099968E0;-1.990000010E-1
1.175673438E1;-5.710099697E0;-9.750999808E-1;-1.313699961E0
1.177658750E1;-6.776700020E0;-3.043999970E-1;-6.560999751E-1
1.179644062E1;-4.777100086E0;9.714999795E-1;-1.465699911E0
1.181629375E1;-4.093999863E0;5.307999849E-1;-8.795999885E-1
1.183614531E1;-2.723599911E0;8.600999713E-1;4.043999910E-1
1.185599844E1;-1.800899982E0;1.642399907E0;1.007099986E0
1.187585156E1;-8.873999715E-1;1.560400009E0;2.069999933E0
1.189570312E1;4.890999794E-1;1.440400004E0;2.370100021E0
1.191555625E1;-4.642999768E-1;1.509499907E0;2.177899837E0
1.193540938E1;-2.401399851E0;8.879999518E-1;1.112599969E0
1.195526250E1;-1.333599925E0;4.626999795E-1;4.369999766E-1
1.197511406E1;2.653800011E0;1.155300021E0;1.241999939E-1
1.199496719E1;4.539099693E0;1.016799927E0;-3.766999841E-1
1.201482031E1;3.312500000E0;-1.268000007E-1;-3.291999996E-1
1.203467188E1;4.969999790E-1;-1.004599929E0;-3.630000055E-1
1.205452500E1;-3.549999893E-1;-2.052899837E0;3.716999888E-1
1.207437812E1;1.539899945E0;-2.287600040E0;1.992199898E0
1.209422969E1;2.330100060E0;-2.243000031E0;1.303799987E0
1.211408281E1;3.719299793E0;-1.927899957E0;-3.348999918E-1
1.213393594E1;5.650399685E0;-6.198999882E-1;-1.575199962E0
1.215378750E1;6.672999859E0;7.453999519E-1;-1.998499990E0
1.217364062E1;6.681499958E0;1.105899930E0;-2.043900013E0
1.219349375E1;4.850500107E0;5.148000121E-1;-2.075899839E0
1.221334688E1;2.007999897E0;1.190500021E0;-1.655699968E0
1.223319844E1;2.897099972E0;2.256999969E0;-1.894599915E0
1.225305156E1;4.500299931E0;2.646100044E0;-9.671999812E-1
1.227290469E1;2.384500027E0;2.194900036E0;-1.599999964E-1
1.229275781E1;6.049999967E-2;1.292699933E0;-9.179999679E-2
1.231260938E1;-4.436699867E0;8.572999835E-1;6.561999917E-1
1.233246250E1;-1.332919979E1;-6.407999992E-1;-9.018999934E-1
1.235231406E1;1.688300014E0;1.366599917E0;-1.186399937E0
1.237216719E1;2.611199856E0;2.135900021E0;2.895599842E0
1.239202031E1;-4.158800125E0;2.807600021E0;3.313799858E0
1.241187344E1;-6.403499603E0;1.588799953E0;9.705999494E-1
1.243172500E1;-2.186100006E0;-1.433399916E0;3.889999986E-1
1.245157813E1;5.920999646E-1;-1.644899964E0;1.902099967E0
1.247143125E1;1.059100032E0;-1.111199975E0;2.649999857E0
1.249128281E1;4.666000009E-1;1.908999979E-1;3.265699863E0
1.251113594E1;1.138999984E-1;6.991999745E-1;2.468799829E0
1.253098750E1;6.719999760E-2;6.854000092E-1;1.100999951E0
1.255084063E1;-5.649999902E-2;6.108999848E-1;-4.311999977E-1
1.257069219E1;6.439999938E-1;4.820000008E-2;-1.689199924E0
1.259054688E1;1.985799909E0;-3.967999816E-1;-1.891799927E0
1.261040000E1;2.724799871E0;-8.039999604E-1;-1.037199974E0
1.263025156E1;2.505699873E0;-1.370299935E0;-2.664999962E-1
1.265010313E1;2.209499836E0;-1.581200004E0;1.983999908E-1
1.266995625E1;2.898399830E0;-7.020999789E-1;3.666999936E-1
1.268981563E1;1.822099924E0;-7.367999554E-1;-1.317899942E0
1.270968125E1;1.340099931E0;-2.356999964E-1;-3.267400026E0
1.272951406E1;7.166999578E-1;-3.597999811E-1;-5.190700054E0
1.274936719E1;-2.979999781E-1;-1.143999934E0;-4.182399750E0
1.276922188E1;-1.231299996E0;-1.046000004E0;4.907999933E-1
1.278907188E1;-2.265199900E0;-5.381000042E-1;9.426999688E-1
1.280892500E1;-4.210499763E0;7.970000058E-2;-4.034999907E-1
1.282877813E1;-6.223899841E0;-1.405999959E-1;-2.324300051E0
1.284862969E1;-6.553499699E0;-2.023999989E-1;-3.137399912E0
1.286848281E1;-4.797699928E0;5.241999626E-1;-3.368000031E0
1.288833594E1;-4.302199841E0;5.759999901E-2;-1.911399961E0
1.290818750E1;-2.270900011E0;5.116999745E-1;2.508899927E0
1.292804063E1;-8.669999987E-2;1.900599957E0;5.112799644E0
1.294789375E1;1.903899908E0;2.616299868E0;3.859799862E0
1.296774688E1;2.341899872E0;2.280299902E0;1.791799903E0
1.298759844E1;1.537400007E0;1.796199918E0;2.130800009E0
1.300745156E1;1.363999963E0;1.829899907E0;1.323599935E0
1.302730469E1;3.301999867E-1;1.198699951E0;-1.991999894E-1
1.304715625E1;-2.266899824E0;-2.635999918E-1;-2.089699984E0
1.306700938E1;-6.721000075E-1;-4.439999759E-1;-1.617499948E0
1.308686250E1;2.424599886E0;-4.742999971E-1;-1.173799992E0
1.310671563E1;3.202499866E0;-9.174000025E-1;-6.662999988E-1
1.312656719E1;6.791999936E-1;-1.370199919E0;-3.585000038E-1
1.314642031E1;-1.735799909E0;-2.195499897E0;-1.693999916E-1
1.316627344E1;5.040999651E-1;-2.622900009E0;1.274299979E0
1.318612500E1;3.753799915E0;-2.266499996E0;1.752299905E0
1.320597813E1;4.438999653E0;-1.214699984E0;1.221799970E0
1.322583125E1;5.146899700E0;9.249999523E-1;-3.291999996E-1
1.324568281E1;4.605499744E0;1.703999996E0;-1.912899971E0
1.326553594E1;3.534600019E0;1.353799939E0;-1.812699914E0
1.328538906E1;2.239399910E0;5.554000139E-1;-8.411999941E-1
1.330524219E1;2.552599907E0;5.318999887E-1;-1.999599934E0
1.332510156E1;2.849499941E0;1.176699996E0;-3.481099844E0
1.334494688E1;-1.008299947E0;9.516999722E-1;-2.961099863E0
1.336480000E1;-3.550599813E0;1.126099944E0;-1.872999966E-1
1.338465156E1;-2.793399811E0;2.003700018E0;1.696699977E0
1.340450469E1;-8.161000013E-1;3.523899794E0;1.074299932E0
1.342435781E1;-5.253299713E0;4.049399853E0;1.771799922E0
1.344420938E1;-5.815899849E0;2.387599945E0;2.784199953E0
1.346406250E1;-5.960999727E-1;3.721999824E-1;1.225099921E0
1.348391563E1;1.149699926E0;-1.005900025E0;-5.963999629E-1
1.350376719E1;5.999999642E-1;-1.297299981E0;-7.998999953E-1
1.352362031E1;-1.671999991E-1;-1.043200016E0;6.697999835E-1
1.354347344E1;4.769999906E-2;-8.729999661E-1;2.101699829E0
1.356332812E1;-2.549999952E-1;-7.836999893E-1;2.792899847E0
1.358317813E1;3.726999760E-1;-1.595000029E-1;1.744099975E0
1.360303125E1;5.814999938E-1;-1.821999997E-1;-1.061999947E-1
1.362288438E1;1.013899922E0;-6.753999591E-1;-1.522599936E0
1.364273594E1;1.129099965E0;-1.213999987E0;-1.840699911E0
1.366258906E1;1.150200009E0;-1.725799918E0;-1.452199936E0
1.368244219E1;1.459800005E0;-1.466899991E0;-1.143599987E0
1.370229375E1;1.798799992E0;-1.396199942E0;-1.435400009E0
1.372214688E1;3.146199942E0;-9.608999491E-1;-1.568599939E0
1.374200000E1;2.921399832E0;-9.049999714E-1;-1.200999990E-1
1.376185312E1;2.948199987E0;2.339999937E-2;1.107399940E0
1.378170469E1;2.263499975E0;4.134999812E-1;2.811999917E-1
1.380155781E1;1.368600011E0;2.621999979E-1;-1.663199902E0
1.382140938E1;-9.109999985E-2;-4.565999806E-1;-2.837499857E0
1.384126250E1;-1.926899910E0;-1.411399961E0;-2.174700022E0
1.386111406E1;-2.409699917E0;-1.466599941E0;-1.143399954E0
1.388096875E1;-2.903199911E0;-1.354900002E0;-1.409999967E0
1.390082031E1;-4.524899960E0;-1.028499961E0;-8.115999699E-1
1.392067344E1;-6.060599804E0;-5.286999941E-1;1.989999972E-2
1.394052500E1;-5.373499870E0;1.613999903E-1;-1.516399980E0
1.396037812E1;-3.747399807E0;-7.699999958E-2;-3.512300014E0
1.398023125E1;-3.233299971E0;-7.958999872E-1;-2.869499922E0
1.400008438E1;-1.922199965E0;1.283900023E0;2.509500027E0
1.401993594E1;1.105000004E-1;3.426299810E0;5.346099854E0
1.403978906E1;8.736000061E-1;3.476499796E0;4.670099735E0
1.405964062E1;1.445999891E-1;2.696300030E0;4.848999977E-1
1.407949375E1;6.056999564E-1;2.493299961E0;-1.077799916E0
1.409934688E1;1.726899981E0;2.455399990E0;1.507900000E0
1.411920000E1;3.169999838E0;2.354099989E0;2.939599991E0
1.413905156E1;3.103399992E0;1.388199925E0;1.505100012E0
1.415890469E1;1.284199953E0;-6.864999533E-1;-7.487999797E-1
1.417875781E1;1.275699973E0;-1.616899967E0;-1.095899940E0
1.419860938E1;2.200899839E0;-2.010999918E0;-8.998000026E-1
1.421846250E1;1.561199903E0;-2.377899885E0;-7.978999615E-1
1.423831562E1;5.508999825E-1;-1.939399958E0;-1.281999946E-1
1.425816719E1;4.976999760E-1;-1.715099931E0;3.748999834E-1
1.427802031E1;7.524999976E-1;-1.402699947E0;4.381999969E-1
1.429787344E1;2.649999857E-1;-1.401099920E0;-2.437999994E-1
1.431772656E1;2.323899984E0;-1.299999934E-2;-5.030999780E-1
1.433757812E1;3.313999891E0;1.124799967E0;-7.784000039E-1
1.435743125E1;3.709499836E0;1.696099997E0;-9.935999513E-1
1.437729375E1;5.115799904E0;1.769199967E0;-1.401299953E0
1.439713594E1;3.443799973E0;9.890999794E-1;-1.523699999E0
1.441698906E1;8.675999641E-1;9.508000016E-1;-1.728999972E0
1.443684219E1;-3.764799833E0;1.339599967E0;-1.932699919E0
1.445669531E1;-8.648799896E0;2.011899948E0;-2.707000017E0
1.447654688E1;-3.726099968E0;1.825999975E0;-2.672199965E0
1.449640000E1;3.281999826E0;1.952399969E0;-3.535999954E-1
1.451625312E1;5.891000032E-1;1.225499988E0;2.197000027E0
1.453610469E1;-4.150899887E0;-7.301999927E-1;2.518699884E0
1.455595781E1;-8.017999530E-1;-1.412599921E0;1.698599935E0
1.457581094E1;1.627999991E-1;-1.555099964E0;1.647300005E0
1.459566250E1;-2.321999967E-1;-3.638999760E-1;1.474299908E0
1.461551562E1;-1.468899965E0;-3.312000036E-1;1.219900012E0
1.463536875E1;-1.054999948E0;-2.005999982E-1;1.203999996E0
1.465522188E1;2.654999793E-1;3.136000037E-1;8.208000064E-1
1.467507344E1;9.511999488E-1;1.843999922E-1;4.156000018E-1
1.469492656E1;1.425699949E0;-4.702000022E-1;4.966000021E-1
1.471477969E1;1.703299999E0;-7.536999583E-1;5.336999893E-1
1.473463125E1;2.164099932E0;-1.063400030E0;-4.391999841E-1
1.475448438E1;1.642300010E0;-1.862800002E0;-1.178200006E0
1.477433750E1;1.516299963E0;-2.055799961E0;-1.281599998E0
1.479418906E1;2.237799883E0;-1.375399947E0;-3.883999884E-1
1.481404219E1;2.095700026E0;-9.444999695E-1;6.136999726E-1
1.483389531E1;1.814999938E0;-6.366999745E-1;2.078000009E-1
1.485374844E1;1.212000012E0;-6.262999773E-1;-6.092000008E-1
1.487360000E1;7.224000096E-1;-8.427999616E-1;-9.302999973E-1
1.489345312E1;4.210999906E-1;-1.073699951E0;-9.034999609E-1
1.491330469E1;1.162000000E-1;-1.084999919E0;-7.698999643E-1
1.493315781E1;-5.729999766E-2;-8.326999545E-1;-4.646999836E-1
1.495301094E1;3.814999759E-1;-1.305999905E-1;-9.438999891E-1
1.497286406E1;7.092999816E-1;2.985999882E-1;-1.300499916E0
1.499271562E1;6.273999810E-1;2.327999920E-1;-1.589800000E0
1.501256875E1;2.328999937E-1;-5.099999718E-3;-1.063799977E0
1.503242188E1;-1.272999942E-1;2.840000018E-2;-5.253999829E-1
1.505227344E1;-4.059000015E-1;3.018999994E-1;-4.369999841E-2
1.507212656E1;-7.003999949E-1;3.524000049E-1;1.989999972E-2
1.509197969E1;-1.052099943E0;2.287999988E-1;-1.252000034E-1
1.511183281E1;-1.673900008E0;9.730000049E-2;-7.100000046E-3
1.513168438E1;-2.593499899E0;-7.859999686E-2;-1.278999895E-1
1.515153594E1;-3.435499907E0;-5.087000132E-1;-8.363999724E-1
1.517138906E1;-4.912799835E0;-2.150199890E0;-1.888000011E0
1.519124219E1;-8.541500092E0;-2.499899864E0;3.058499813E0
1.521109531E1;-4.684099674E0;6.662999988E-1;5.031799793E0
1.523094688E1;3.941999972E-1;1.206699967E0;3.206399918E0
1.525080000E1;2.659199953E0;1.008199930E0;2.126499891E0
1.527065312E1;2.078500032E0;4.820999801E-1;1.530099988E0
1.529050469E1;1.445899963E0;9.223999977E-1;5.231999755E-1
1.531035781E1;1.880199909E0;2.243199825E0;-5.103999972E-1
1.533021094E1;2.256299973E0;2.942499876E0;-7.019999623E-1
1.535006250E1;2.730999947E0;2.990599871E0;-6.261999607E-1
1.536991562E1;3.129699945E0;2.787400007E0;-9.520999789E-1
1.538976875E1;2.299799919E0;1.880699992E0;-1.077199936E0
1.540962031E1;1.450500011E0;7.233999968E-1;-1.123399973E0
1.542947344E1;-2.040999979E-1;-1.475899935E0;-1.750499964E0
1.544932656E1;-2.154199839E0;-3.920099974E0;-1.519500017E0
1.546917969E1;-7.821999788E-1;-3.992499828E0;8.829999715E-2
1.548903125E1;1.410999894E-1;-3.270599842E0;1.071799994E0
1.550888438E1;-5.105000138E-1;-1.745999932E0;7.228999734E-1
1.552873750E1;-1.356899977E0;-6.836999655E-1;1.273599982E0
1.554858906E1;5.414000154E-1;-7.779999971E-1;6.403999925E-1
1.556844219E1;2.656899929E0;1.488000005E-1;-1.973999888E-1
1.558829531E1;3.768199921E0;8.689000010E-1;-1.245999932E0
1.560814844E1;4.203199863E0;9.077999592E-1;-2.139299870E0
1.562800000E1;3.085399866E0;2.890999913E-1;-2.131199837E0
1.564785313E1;1.765899897E0;-4.181999862E-1;-1.834800005E0
1.566770625E1;1.796999931E0;-8.104000092E-1;-1.467800021E0
1.568755781E1;7.500999570E-1;-7.124999762E-1;-1.461399913E0
1.570741094E1;6.895999908E-1;8.169999719E-1;-1.441999912E0
1.572726406E1;1.112900019E0;1.201300025E0;-1.883599997E0
1.574711563E1;9.508999586E-1;7.303000093E-1;-1.717399955E0
1.576696875E1;3.285999894E-1;2.365999967E-1;-1.121399999E0
1.578682188E1;-1.002200007E0;4.809999838E-2;-9.897999763E-1
1.580667344E1;-5.338000059E-1;1.009299994E0;-6.049000025E-1
1.582652656E1;2.190599918E0;3.096400023E0;4.649999738E-1
1.584637969E1;-6.336799622E0;4.285999775E0;3.373000026E-1
1.586623281E1;-1.316319942E1;4.064700127E0;-1.368099928E0
1.588608438E1;-2.540499926E0;1.382599950E0;3.551699877E0
1.590593750E1;2.132699966E0;-1.779599905E0;3.395200014E0
1.592579063E1;2.464099884E0;-1.786199927E0;1.463199973E0
1.594564219E1;1.556699991E0;-1.466999948E-1;1.878999919E-1
1.596549531E1;-1.349000037E-1;1.101999953E-1;2.757999897E-1
1.598534844E1;-2.373600006E0;-6.617999673E-1;2.101599932E0
1.600520156E1;-2.737699986E0;-5.587999821E-1;2.565399885E0
1.602505312E1;-1.840099931E0;-3.955999911E-1;1.958799958E0
1.604490625E1;2.958000004E-1;-3.455999792E-1;8.218999505E-1
1.606475938E1;1.159799933E0;-5.191999674E-1;-4.999999702E-2
1.608461094E1;1.038699985E0;-1.155799985E0;3.399999812E-2
1.610446406E1;9.918999672E-1;-1.319299936E0;3.273999989E-1
1.612431719E1;1.954899907E0;-1.342399955E0;-1.165999994E-1
1.614416875E1;2.412699938E0;-1.539799929E0;-8.404999971E-1
1.616402188E1;2.650300026E0;-1.705599904E0;-1.553299904E0
1.618387500E1;2.308500051E0;-1.728899956E0;-1.286599994E0
1.620372812E1;2.243199825E0;-1.100799918E0;-6.536999941E-1
1.622357969E1;2.328399897E0;-9.240999818E-1;-9.673999548E-1
1.624343281E1;1.694199920E0;-4.724999964E-1;-7.074999809E-1
1.626328594E1;1.485899925E0;-5.873999596E-1;-9.494999647E-1
1.628313750E1;1.266600013E0;-7.250999808E-1;-8.421999812E-1
1.630299062E1;8.391999602E-1;-6.531999707E-1;-3.324999809E-1
1.632284375E1;5.051000118E-1;-7.134999633E-1;-1.557999998E-1
1.634269531E1;7.340999842E-1;-6.218000054E-1;4.380999804E-1
1.636254844E1;1.122200012E0;6.459999830E-2;9.472999573E-1
1.638240156E1;4.954999983E-1;4.458999932E-1;4.324999750E-1
1.640225312E1;-6.039999723E-1;3.457999825E-1;-6.191999912E-1
1.642210625E1;-1.510499954E0;1.624999940E-1;-8.118999600E-1
1.644195938E1;-1.535399914E0;1.559000015E-1;-9.381999969E-1
1.646181094E1;-1.169799924E0;4.069999754E-1;-1.026099920E0
1.648166406E1;-1.582899928E0;5.942999721E-1;-8.432999849E-1
1.650151719E1;-2.563999891E0;4.627999961E-1;-8.398999572E-1
1.652136875E1;-3.677599907E0;9.899999946E-2;-1.108500004E0
1.654122188E1;-4.240999699E0;-5.781999826E-1;-1.800799966E0
1.656107500E1;-4.665699959E0;-2.219599962E0;-2.584199905E0
1.658092656E1;-6.285799980E0;-1.721899986E0;3.687999964E0
1.660077969E1;-2.189699888E0;9.764999747E-1;6.862999916E0
1.662063281E1;9.945999980E-1;1.096499920E0;4.406799793E0
1.664048438E1;1.285099983E0;-1.189999953E-1;1.663399935E0
1.666033750E1;-1.118000001E-1;-5.913999677E-1;3.024999797E-1
1.668019062E1;1.635999978E-1;-4.529999942E-2;-1.524599910E0
1.670004219E1;1.097000003E0;5.956999660E-1;-1.492699981E0
1.671989531E1;1.988899946E0;8.995999694E-1;1.630000025E-1
1.673974844E1;2.261199951E0;1.456799984E0;7.660999894E-1
1.675960156E1;1.889599919E0;1.753299952E0;3.204999864E-1
1.677945312E1;1.202099919E0;1.838799953E0;-8.989999443E-2
1.679930625E1;-1.562299967E0;-6.100000143E-1;-2.341099977E0
1.681915938E1;-2.713500023E0;-3.738899946E0;-2.722499847E0
1.683901250E1;3.559999913E-2;-3.831699848E0;-1.518199921E0
1.685886406E1;1.765999943E-1;-3.450099945E0;-1.418000013E-1
1.687871719E1;1.020799994E0;-1.892599940E0;1.648699999E0
1.689856875E1;1.987599969E0;-1.608799934E0;1.427599907E0
1.691842188E1;3.654500008E0;-8.453999758E-1;5.929999799E-2
1.693827500E1;3.935899973E0;-5.837000012E-1;-3.499999940E-1
1.695812812E1;2.817699909E0;-1.404999942E-1;-8.560999632E-1
1.697797969E1;2.187199831E0;9.969999641E-2;-8.051999807E-1
1.699783281E1;2.910499811E0;1.934999973E-1;6.693999767E-1
1.701768594E1;4.546099663E0;8.389999717E-2;5.156999826E-1
1.703753750E1;3.876699924E0;-5.669999868E-2;-6.769999862E-1
1.705739062E1;2.596199989E0;-1.796000004E-1;-9.217000008E-1
1.707724375E1;1.569099903E0;-1.956999898E-1;-1.390699983E0
1.709709688E1;1.700999975E0;-3.376999795E-1;-1.707700014E0
1.711694844E1;1.330500007E0;-7.398999929E-1;-1.692199945E0
1.713680156E1;5.536000133E-1;-2.329999954E-2;-4.526000023E-1
1.715665313E1;-3.387999833E-1;9.625999928E-1;5.604000092E-1
1.717650625E1;-4.027899742E0;1.128000021E0;5.644999743E-1
1.719635938E1;-7.658099651E0;6.627999544E-1;-3.734999895E-1
1.721621250E1;-4.757199764E0;9.503999949E-1;-1.285099983E0
1.723606406E1;-5.514000058E-1;2.541299820E0;2.637999952E-1
1.725591719E1;-4.576299667E0;3.403699875E0;1.618099928E0
1.727577031E1;-6.261999607E0;2.834399939E0;1.783399940E0
1.729562188E1;-1.464200020E0;7.058999538E-1;1.508199930E0
1.731547500E1;9.807999730E-1;-1.161199927E0;1.311800003E0
1.733532812E1;1.743499994E0;-1.147499919E0;1.064399958E0
1.735518125E1;5.198000073E-1;-7.152000070E-1;1.183899999E0
1.737503281E1;-8.852999806E-1;2.179999948E-1;2.049099922E0
1.739488594E1;-7.437999845E-1;8.676999807E-1;2.094300032E0
1.741473906E1;2.141999900E-1;1.283800006E0;1.070699930E0
1.743459063E1;1.065299988E0;1.483299971E0;-5.728999972E-1
1.745444375E1;1.241199970E0;7.069999576E-1;-9.986999631E-1
1.747429688E1;1.220600009E0;-2.635999918E-1;-6.601999998E-1
1.749414844E1;1.238199949E0;-8.464999795E-1;-3.845999837E-1
1.751400156E1;7.175999880E-1;-1.689599991E0;-1.860999912E-1
1.753385469E1;6.545999646E-1;-2.423699856E0;-2.883000076E-1
1.755370781E1;7.936999798E-1;-2.434599876E0;-2.245000005E-1
1.757355938E1;2.099900007E0;-1.644599915E0;-2.727999985E-1
1.759341250E1;2.574800014E0;-1.144599915E0;-6.350000203E-2
1.761326406E1;2.616899967E0;-9.100999832E-1;3.470000029E-1
1.763311719E1;2.163599968E0;-7.932999730E-1;5.591999888E-1
1.765297031E1;1.939000010E0;-5.213999748E-1;-2.705999911E-1
1.767282344E1;1.521600008E0;-1.225999966E-1;-7.152000070E-1
1.769267500E1;1.480399966E0;9.808999896E-1;-1.179099917E0
1.771252813E1;1.846899986E0;3.892999887E-1;-2.973699808E0
1.773238125E1;2.601300001E0;9.499999881E-2;-2.402499914E0
1.775223281E1;2.866600037E0;4.527999759E-1;-1.423399925E0
1.777208594E1;2.670500040E0;4.592999816E-1;-8.967999816E-1
1.779193906E1;1.799099922E0;4.660999775E-1;-1.244099975E0
1.781179062E1;-1.233999953E-1;1.437999904E-1;-1.386199951E0
1.783164375E1;-2.150300026E0;-6.575999856E-1;-5.138999820E-1
1.785149688E1;-3.685400009E0;-1.292799950E0;8.569999933E-1
1.787134844E1;-4.488500118E0;-1.027999997E0;4.350000024E-1
1.789120156E1;-4.826600075E0;-4.351999760E-1;-1.178900003E0
1.791105313E1;-6.117199898E0;-4.366999865E-1;-1.410699964E0
1.793090625E1;-7.957799911E0;-9.417999983E-1;-1.001299977E0
1.795075938E1;-8.698499680E0;-2.099799871E0;-2.904399872E0
1.797061250E1;-7.132799625E0;-1.760800004E0;-4.359999895E-1
1.799046406E1;-2.656199932E0;4.981999993E-1;1.233799934E0
1.801031719E1;-6.149999797E-2;1.904899955E0;1.421000004E0
1.803017031E1;1.893099904E0;2.519999981E0;2.659899950E0
1.805002188E1;2.547699928E0;1.994099975E0;2.195099831E0
1.806987500E1;1.237399936E0;1.922699928E0;1.686399937E0
1.808972812E1;7.084999681E-1;2.115000010E0;6.570999622E-1
1.810958125E1;2.039499998E0;2.539099932E0;1.284999996E-1
1.812943281E1;3.589499950E0;2.316400051E0;6.872999668E-1
1.814928594E1;3.451399803E0;1.594599962E0;9.824000001E-1
1.816913906E1;2.970000029E0;1.275799990E0;8.726999760E-1
1.818899063E1;2.562099934E0;1.029399991E0;3.461000025E-1
1.820884375E1;2.459499836E0;9.012999535E-1;-2.110999972E-1
1.822869688E1;2.155499935E0;6.556000113E-1;-2.780999839E-1
1.824855469E1;1.311699986E0;-1.869999990E-2;-7.137999535E-1
1.826840156E1;1.197099924E0;-5.162999630E-1;-4.926999807E-1
1.828825469E1;1.327399969E0;-6.807000041E-1;2.624999881E-1
1.830810625E1;1.298699975E0;-7.447999716E-1;3.443999887E-1
1.832795938E1;1.226599932E0;-2.750000060E-1;4.356999993E-1
1.834781250E1;1.884299994E0;4.059000015E-1;3.801999986E-1
1.836766562E1;2.007200003E0;1.025300026E0;2.565999925E-1
1.838751719E1;2.227299929E0;1.484099984E0;3.729999810E-2
1.840737031E1;2.654599905E0;1.454999924E0;-1.791999936E-1
1.842722344E1;2.497999907E0;8.319000006E-1;-2.888999879E-1
1.844707656E1;1.972499967E0;9.709999710E-2;-3.188000023E-1
1.846692969E1;1.350899935E0;-3.822999895E-1;-5.782999992E-1
1.848678125E1;1.053900003E0;-4.309999943E-2;-3.361999989E-1
1.850663438E1;1.384799957E0;4.189999998E-1;-1.844999939E-1
1.852648594E1;1.853399992E0;7.382999659E-1;-4.368999898E-1
1.854633906E1;1.792799950E0;5.758999586E-1;-8.901999593E-1
1.856619219E1;6.351000071E-1;1.206000000E-1;-1.312600017E0
1.858604375E1;-6.129999757E-1;-1.863999963E-1;-1.785499930E0
1.860589688E1;-1.043399930E0;-2.008000016E-1;-2.161299944E0
1.862575000E1;-9.860000014E-1;1.946000010E-1;-2.410399914E0
1.864560312E1;-1.329399943E0;6.075999737E-1;-2.561899900E0
1.866545469E1;-2.033299923E0;1.336399913E0;-2.351599932E0
1.868530781E1;-2.561699867E0;1.842099905E0;-2.838799953E0
1.870516250E1;-2.044299841E0;1.912199974E0;-3.936800003E0
1.872501250E1;-2.000299931E0;1.417500019E0;-4.094900131E0
1.874486563E1;-3.908699989E0;1.673999906E0;-2.063299894E0
1.876471875E1;-4.123600006E0;2.492199898E0;6.372999549E-1
1.878457031E1;-1.248600006E0;1.794799924E0;2.022899866E0
1.880442344E1;1.709100008E0;5.619999766E-1;2.792099953E0
1.882427656E1;2.880899906E0;1.395999938E-1;3.247399807E0
1.884412969E1;2.198799849E0;5.648999810E-1;3.788599968E0
1.886398125E1;1.033200026E0;1.523499966E0;4.478399754E0
1.888383438E1;8.319000006E-1;2.376899958E0;4.184299946E0
1.890368750E1;1.293499947E0;2.794600010E0;3.944199800E0
1.892353906E1;7.361999750E-1;2.410199881E0;4.700099945E0
1.894339219E1;2.078999877E-1;1.885599971E0;4.230599880E0
1.896324531E1;3.172000051E-1;1.263199925E0;2.770599842E0
1.898309688E1;5.544999838E-1;1.764999926E-1;1.277699947E0
1.900295000E1;2.622999847E-1;-3.721999824E-1;8.906999826E-1
1.902280156E1;3.122999966E-1;-6.858999729E-1;9.133999944E-1
1.904265469E1;1.844999939E-1;-6.592999697E-1;1.425999999E0
1.906250781E1;-9.160000086E-2;-3.188000023E-1;1.445199966E0
1.908236094E1;-2.703999877E-1;1.077999994E-1;7.839999795E-1
1.910221250E1;-4.678999782E-1;1.608999968E-1;5.548999906E-1
1.912206875E1;-6.157999635E-1;3.779000044E-1;-4.189999774E-2
1.914191719E1;-7.130999565E-1;2.429999970E-2;-2.131899834E0
1.916177031E1;-5.073999763E-1;-7.206000090E-1;-3.867799997E0
1.918162344E1;-1.683999896E-1;-1.324000001E0;-2.885299921E0
1.920147656E1;8.859999478E-2;-1.329199910E0;-1.334699988E0
1.922132812E1;1.344299912E0;-1.041000009E0;-1.316699982E0
1.924119062E1;1.681299925E0;-4.539999738E-2;7.999999798E-4
1.926103438E1;4.833999872E-1;7.899000049E-1;7.727999687E-1
1.928088594E1;-5.378000140E-1;1.210199952E0;-7.840000093E-2
1.930073906E1;-1.064100027E0;1.457999945E0;-1.529699922E0
1.932059219E1;-1.854900002E0;1.307500005E0;-2.262300014E0
1.934044375E1;-2.822899818E0;9.887999892E-1;-2.181299925E0
1.936029688E1;-3.751799822E0;8.410999775E-1;-1.444700003E0
1.938015000E1;-5.006599903E0;2.608999908E-1;-1.727800012E0
1.940000156E1;-6.528599739E0;-4.983999729E-1;-1.943899989E0
1.941985469E1;-7.180699825E0;-1.318300009E0;7.894999981E-1
1.943970781E1;-5.917399883E0;-7.085999846E-1;2.216899872E0
1.945956094E1;-2.846599817E0;1.465999931E-1;2.950700045E0
1.947941250E1;1.987199903E0;2.021199942E0;4.365999997E-1
1.949926562E1;4.103899956E0;2.309399843E0;-7.099999487E-2
1.951911875E1;3.595099926E0;2.953399897E0;2.956999838E-1
1.953897031E1;2.713999987E0;2.693500042E0;-8.215999603E-1
1.955882344E1;2.232599974E0;1.559999943E0;-3.919000030E-1
1.957867656E1;1.396099925E0;5.358999968E-1;2.115399837E0
1.959852969E1;-6.179999933E-2;1.451099992E0;3.436299801E0
1.961838125E1;-2.034499884E0;2.614599943E0;1.737899899E0
1.963823438E1;-1.714299917E0;3.343499899E0;-9.139999747E-2
1.965808750E1;-5.209999904E-2;1.940299988E0;-8.248999715E-1
1.967793906E1;-8.693999648E-1;-1.246599913E0;-2.137999982E-1
1.969779219E1;-4.177999794E-1;-2.698099852E0;1.772599936E0
1.971764531E1;-1.817999929E-1;-2.865499973E0;1.282499909E0
1.973749688E1;-6.658999920E-1;-2.270599842E0;2.162999958E-1
1.975735000E1;-2.286200047E0;-1.985599995E0;-1.350499988E0
1.977720312E1;4.889100075E0;-7.622999549E-1;1.171199918E0
1.979705625E1;7.781599998E0;3.260000050E-1;6.272000074E-1
1.981690781E1;6.590600014E0;6.344999671E-1;-1.423499942E0
1.983676094E1;5.120800018E0;4.341000021E-1;-2.309399843E0
1.985661406E1;5.147099972E0;1.064100027E0;-1.773599982E0
1.987646562E1;8.932199478E0;1.735700011E0;-1.076599956E0
1.989631875E1;7.499699593E0;9.921999574E-1;-1.026799917E0
1.991617188E1;2.371299982E0;4.004999995E-1;3.115999997E-1
1.993602344E1;-2.439899921E0;-5.327999592E-1;2.221999913E-1
1.995587656E1;-2.686800003E0;-6.111999750E-1;2.876999974E-1
1.997572969E1;-3.831999898E-1;3.199000061E-1;2.707999945E-1
1.999558125E1;4.062999785E-1;1.403800011E0;-8.951999545E-1
2.001543438E1;-2.702600002E0;8.132999539E-1;-1.956099987E0
2.003528750E1;-1.009589958E1;-1.219699979E0;-2.547299862E0
2.005514062E1;1.255499959E0;1.637499928E0;8.569999784E-2
2.007499219E1;7.523399830E0;5.610899925E0;1.695299983E0
2.009484531E1;-5.987799644E0;6.315799713E0;4.673999846E-1
2.011469844E1;-1.479809952E1;1.002900004E0;-8.642999530E-1
2.013455000E1;-6.725699902E0;-8.675999641E-1;8.699999750E-2
2.015440312E1;3.389999866E-1;-1.197799921E0;1.269599915E0
2.017425625E1;2.638200045E0;-2.560600042E0;8.788999915E-1
2.019410938E1;3.072499990E0;-1.596399903E0;1.635899901E0
2.021396094E1;9.412999749E-1;-4.627999961E-1;3.316099882E0
2.023381406E1;1.699999906E-3;3.958999813E-1;4.083300114E0
2.025366562E1;-1.197999939E-1;5.260999799E-1;2.737099886E0
2.027351875E1;9.300000034E-3;3.967999816E-1;6.295999885E-1
2.029337188E1;2.149000019E-1;5.849999934E-2;-8.283999562E-1
2.031322344E1;1.711099982E0;-8.379999548E-2;-1.447899938E0
2.033307656E1;2.585799932E0;-7.229999900E-1;-1.457999945E0
2.035292969E1;2.782599926E0;-1.321099997E0;-7.645999789E-1
2.037278125E1;2.843199968E0;-1.700399995E0;-4.763000011E-1
2.039263438E1;3.095000029E0;-1.615000010E0;-6.139999628E-1
2.041248750E1;3.097999811E0;-1.309700012E0;-5.220999718E-1
2.043233906E1;3.512599945E0;-6.129999757E-1;2.129999921E-2
2.045219219E1;2.913599968E0;-2.820999920E-1;2.554000020E-1
2.047204531E1;1.830699921E0;-9.339999408E-2;-6.509999931E-2
2.049189844E1;3.779999912E-1;-7.539999485E-2;-8.578999639E-1
2.051175000E1;-6.128000021E-1;2.002999932E-1;-1.319700003E0
2.053160469E1;-1.427099943E0;7.249999642E-1;-1.532099962E0
2.055145625E1;-6.586999893E-1;9.394999743E-1;-2.112599850E0
2.057130781E1;-1.977699995E0;3.534999788E-1;-2.439299822E0
2.059116094E1;-3.535599947E0;-1.846999973E-1;-2.851099968E0
2.061102031E1;-4.449699879E0;-4.776999950E-1;-3.330099821E0
2.063086563E1;-5.606199741E0;-1.294799924E0;-3.428799868E0
2.065071875E1;-6.561699867E0;-2.165199995E0;-2.459199905E0
2.067057188E1;-5.505300045E0;-9.948999882E-1;1.052899957E0
2.069042500E1;-2.091399908E0;1.231199980E0;4.064300060E0
2.071027656E1;2.899999917E-2;2.447399855E0;4.864999771E0
2.073012969E1;5.487999916E-1;2.117100000E0;3.021399975E0
2.074998281E1;-6.146000028E-1;1.295799971E0;1.041599989E0
2.076983438E1;-9.591999650E-1;1.300899982E0;8.825999498E-1
2.078968750E1;2.156899929E0;2.105700016E0;1.940400004E0
2.080954062E1;4.234600067E0;2.343400002E0;2.381099939E0
2.082939219E1;3.860999823E0;1.997499943E0;1.694299936E0
2.084924531E1;2.447199821E0;1.239699960E0;1.968999952E-1
2.086909844E1;-2.797399998E0;-1.709499955E0;-2.330199957E0
2.088895000E1;-1.072299957E0;-2.613299847E0;-1.858699918E0
2.090880938E1;3.025699854E0;-2.245699883E0;-1.728999972E0
2.092865625E1;4.123999774E-1;-2.525599957E0;-2.595700026E0
2.094850938E1;-5.363999605E-1;-2.161200047E0;-1.434899926E0
2.096836250E1;8.682000041E-1;-1.918499947E0;1.186299920E0
2.098821563E1;-1.083000004E-1;-2.061399937E0;2.072900057E0
2.100806719E1;1.302099943E0;-1.346799970E0;1.742699981E0
2.102792188E1;3.337800026E0;-1.949999928E-1;-3.944000006E-1
2.104777188E1;6.176899910E0;1.230599999E0;-2.151999950E0
2.106762500E1;5.239599705E0;1.562199950E0;-2.935499907E0
2.108747969E1;3.769399881E0;2.405900002E0;-2.540599823E0
2.110732969E1;5.092499733E0;1.610199928E0;-2.176999897E-1
2.112718281E1;2.862699986E0;3.538999856E-1;-3.797999918E-1
2.114703438E1;1.310400009E0;5.482999682E-1;-1.124699950E0
2.116688750E1;6.590999961E-1;1.305999994E0;-1.020200014E0
2.118674063E1;-6.705800056E0;1.571399927E0;-1.326099992E0
2.120659375E1;-6.969799995E0;6.679999828E-2;-2.430099964E0
2.122644531E1;2.868199825E0;1.349200010E0;-2.942999899E-1
2.124629844E1;-2.407899857E0;1.463599920E0;2.281599998E0
2.126615156E1;-9.062199593E0;-2.099999972E-2;2.757200003E0
2.128600312E1;-3.247900009E0;-6.103000045E-1;2.191400051E0
2.130585625E1;1.653999984E-1;-8.533999920E-1;9.265999794E-1
2.132570938E1;6.733999848E-1;-7.558000088E-1;6.619999558E-2
2.134556250E1;1.112999991E-1;-1.248999983E-1;9.754999876E-1
2.136541406E1;-5.909999833E-2;3.964000046E-1;1.156799912E0
2.138526719E1;-6.606000066E-1;4.145999849E-1;1.251899958E0
2.140512031E1;3.709000051E-1;8.438999653E-1;1.027999997E0
2.142497188E1;7.943999767E-1;5.726999640E-1;4.837999940E-1
2.144482500E1;1.350999951E0;3.226999938E-1;-2.615999877E-1
2.146467813E1;1.997399926E0;-2.786000073E-1;-5.117999911E-1
2.148452969E1;3.218899965E0;-1.071999967E-1;-4.849999845E-1
2.150438281E1;3.962699890E0;2.461999953E-1;-3.628999889E-1
2.152423594E1;3.734599829E0;-9.380000085E-2;-2.433999926E-1
2.154408750E1;3.927399874E0;-2.182999998E-1;-2.272000015E-1
2.156394062E1;3.439599991E0;-7.881999612E-1;-1.471000016E-1
2.158379375E1;2.510099888E0;-8.464999795E-1;1.209999993E-2
2.160364531E1;1.429199934E0;-1.071900010E0;-5.482999682E-1
2.162349844E1;3.725000024E-1;-1.058300018E0;-1.229099989E0
2.164335000E1;-8.323000073E-1;-8.887999654E-1;-2.088500023E0
2.166320469E1;-5.590999722E-1;-8.084999919E-1;-2.740599871E0
2.168305625E1;-2.900999784E-1;-7.190999985E-1;-1.866699934E0
2.170290938E1;-1.372200012E0;-4.201000035E-1;-5.320000052E-1
2.172276250E1;-2.572799921E0;2.304999977E-1;-7.978000045E-1
2.174261563E1;-3.482499838E0;3.924999833E-1;-1.528699994E0
2.176246719E1;-4.145599842E0;1.509999931E-1;-8.323000073E-1
2.178232031E1;-4.745800018E0;1.488000005E-1;1.808999926E-1
2.180217188E1;-4.571799755E0;-2.748999894E-1;-3.109000027E-1
2.182202500E1;-5.155099869E0;-2.277199984E0;-1.579299927E0
2.184187812E1;-3.796899796E0;-1.129899979E0;5.417000055E-1
2.186172969E1;-1.209999919E0;1.891299963E0;3.332799911E0
2.188158281E1;-4.409999773E-2;3.037999868E0;1.867499948E0
2.190143438E1;2.640999854E-1;1.955799937E0;-1.102299929E0
2.192128750E1;1.648999900E-1;1.513199925E0;-2.060400009E0
2.194114063E1;-2.569999918E-2;1.550099969E0;-1.231400013E0
2.196099375E1;3.975999951E-1;1.080999970E0;6.150999665E-1
2.198084531E1;6.505999565E-1;3.572999835E-1;1.477499962E0
2.200069844E1;1.330600023E0;-8.449999988E-2;6.852999926E-1
2.202055156E1;1.975299954E0;-1.050999984E-1;-3.066000044E-1
2.204040312E1;2.724799871E0;3.719999790E-1;-4.725999832E-1
2.206025625E1;2.877799988E0;9.436999559E-1;3.316999972E-1
2.208010938E1;2.381299973E0;1.337399960E0;1.301100016E0
2.209996250E1;-4.699999988E-1;-2.615999877E-1;1.775499940E0
2.211981406E1;-1.417799950E0;-1.651099920E0;1.800699949E0
2.213966719E1;-4.157999754E-1;-2.104399920E0;3.012300014E0
2.215952031E1;1.910799980E0;-1.550199986E0;6.293999553E-1
2.217937188E1;3.874599934E0;-3.168999851E-1;-9.984999895E-1
2.219922812E1;4.621900082E0;1.485399961E0;-2.038499832E0
2.221907813E1;4.092400074E0;1.629099965E0;-1.607999921E0
2.223893125E1;3.634799957E0;1.619799972E0;-9.151999950E-1
2.225878281E1;2.411099911E0;1.521099925E0;-1.171700001E0
2.227863594E1;3.456300020E0;1.452000022E0;-1.808099985E0
2.229848750E1;2.467900038E0;1.122200012E0;-1.719999909E0
2.231834062E1;-5.180000067E-1;7.635999918E-1;-9.551999569E-1
2.233819375E1;-9.042200089E0;1.304000020E-1;-7.177000046E-1
2.235804688E1;-5.751899719E0;7.552999854E-1;-1.233099937E0
2.237789844E1;2.651000023E0;2.558899879E0;1.211999953E-1
2.239775156E1;3.590999842E-1;2.427700043E0;1.032799959E0
2.241760469E1;-2.518800020E0;1.015299916E0;1.804499984E0
2.243745781E1;-2.568699837E0;-5.202000141E-1;1.413800001E0
2.245730938E1;-2.225899935E0;-1.972000003E-1;4.587000012E-1
2.247716250E1;-1.711499929E0;2.850000001E-2;1.469099998E0
2.249701406E1;-1.200199962E0;-2.025000006E-1;3.093600035E0
2.251686719E1;-5.654000044E-1;-7.719999552E-1;2.984599829E0
2.253672031E1;3.425000012E-1;-8.107999563E-1;2.060099840E0
2.255657344E1;1.396899939E0;-6.038999557E-1;7.249000072E-1
2.257642500E1;2.185499907E0;-3.429999948E-1;-1.929999888E-2
2.259627812E1;2.438499928E0;-2.696999907E-1;-5.321999788E-1
2.261613125E1;2.742199898E0;-1.687999964E-1;-1.117399931E0
2.263598281E1;1.443799973E0;-1.314899921E0;-1.182899952E0
2.265583594E1;2.049799919E0;-1.260299921E0;-1.180299997E0
2.267568906E1;2.276299953E0;-1.286800027E0;-1.588699937E0
2.269554219E1;2.455600023E0;-1.059499979E0;-1.819700003E0
2.271539375E1;2.122999907E0;-8.333999515E-1;-1.312999964E0
2.273524688E1;1.718099952E0;-6.337999701E-1;-7.412999868E-1
2.275510000E1;1.423399925E0;-3.907999992E-1;-8.729999512E-2
2.277495312E1;1.308300018E0;-3.202999830E-1;-2.768999934E-1
2.279480469E1;9.824999571E-1;-4.876999855E-1;-5.685999990E-1
2.281465625E1;1.022499919E0;-4.044999778E-1;-7.682999969E-1
2.283450938E1;6.906999946E-1;-1.620000005E-1;-9.138999581E-1
2.285436250E1;2.471999973E-1;6.099999696E-2;-9.044999480E-1
2.287421562E1;3.050999939E-1;3.639999777E-2;-1.083999991E0
2.289406719E1;8.324999809E-1;1.331000030E-1;-5.097000003E-1
2.291392031E1;6.313999891E-1;2.671000063E-1;-1.036899924E0
2.293377188E1;-1.173499942E0;1.946999878E-1;-4.233999848E-1
2.295362500E1;-2.456699848E0;1.719999909E-1;7.669999450E-2
2.297348594E1;-2.794999838E0;3.479000032E-1;-3.695999980E-1
2.299333125E1;-3.372299910E0;1.198999956E-1;-9.994999766E-1
2.301318438E1;-4.701699734E0;8.009999990E-2;-5.846999884E-1
2.303303594E1;-6.445999622E0;-1.388599992E0;-2.752699852E0
2.305288750E1;-8.463699341E0;-2.051899910E0;3.175999820E-1
2.307274219E1;-3.215799809E0;1.964899898E0;5.445799828E0
2.309259531E1;-3.290999830E-1;2.575299978E0;4.206399918E0
2.311244688E1;4.069999754E-1;1.747999907E0;1.407499909E0
2.313229844E1;2.630999982E-1;1.755299926E0;4.145999849E-1
2.315215156E1;-6.072999835E-1;2.580999851E0;-9.532999992E-1
2.317200469E1;3.710999787E-1;2.671000004E0;-1.639799953E0
2.319185625E1;2.156399965E0;1.929199934E0;2.135999948E-1
2.321170938E1;2.569599867E0;8.011999726E-1;1.377599955E0
2.323156250E1;2.290899992E0;-3.368999958E-1;8.410000056E-2
2.325141562E1;1.465699911E0;-1.468199968E0;-1.113699913E0
2.327126719E1;1.395200014E0;-2.509999990E0;-1.247099996E0
2.329112031E1;1.751899958E0;-2.751600027E0;-5.414000154E-1
2.331097344E1;1.620700002E0;-2.179899931E0;1.457999945E-1
2.333082500E1;1.188899994E0;-1.522799969E0;-3.066999912E-1
2.335067812E1;9.012999535E-1;-1.364399910E0;-7.152999640E-1
2.337053125E1;6.936999559E-1;-1.478699923E0;-7.329999804E-1
2.339038281E1;9.055999517E-1;-7.070999742E-1;1.764999926E-1
2.341023594E1;7.576000094E-1;-1.612999886E-1;1.123399973E0
2.343008906E1;7.924000025E-1;-1.264999956E-1;1.121999994E-1
2.344994219E1;2.642299891E0;1.996999979E-1;-6.107000113E-1
2.346979375E1;4.535900116E0;4.495999813E-1;-4.265999794E-1
2.348965000E1;5.272399902E0;6.086999774E-1;-9.118999839E-1
2.350950000E1;3.530799866E0;6.809999943E-1;-1.996999979E0
2.352935156E1;1.156999946E0;3.373999894E-1;-2.669800043E0
2.354920469E1;9.847999811E-1;-1.023999974E-1;-1.629599929E0
2.356905781E1;1.529199958E0;-5.489999801E-2;-1.170799971E0
2.358890938E1;7.505999804E-1;2.628000081E-1;-1.452999949E0
2.360876250E1;-3.255999982E-1;-6.882999539E-1;-8.610999584E-1
2.362861563E1;-2.171099901E0;-9.524999857E-1;-4.157999754E-1
2.364846875E1;-6.484299660E0;-1.168799996E0;-1.420499921E0
2.366832031E1;-2.768000066E-1;9.985999465E-1;-4.781000018E-1
2.368817344E1;4.555299759E0;4.780900002E0;5.798000097E-1
2.370802656E1;-1.423959923E1;3.613600016E0;-1.803599954E0
2.372787812E1;-6.444900036E0;3.240099907E0;-6.460999846E-1
2.374773125E1;-1.734099984E0;5.319999903E-2;7.315999866E-1
2.376758438E1;-2.867999971E-1;-9.831999540E-1;4.324999750E-1
2.378743594E1;-1.255999953E-1;-7.272999883E-1;2.239999920E-2
2.380728906E1;-3.377999961E-1;-5.729999766E-2;3.968999982E-1
2.382714219E1;-6.082000136E-1;5.047999620E-1;1.170799971E0
2.384699531E1;-1.373899937E0;3.460000083E-2;2.675400019E0
2.386687344E1;-6.650000066E-2;-5.739999935E-2;2.847499847E0
2.388670000E1;2.079099894E0;-2.705000043E-1;2.126899958E0
2.390655313E1;3.006099939E0;-3.907999992E-1;8.822999597E-1
2.392640469E1;2.297699928E0;-6.189000010E-1;8.309999853E-2
2.394625781E1;8.120999932E-1;-1.485099912E0;-1.486999989E-1
2.396611094E1;5.179999769E-2;-1.974999905E0;-1.437999904E-1
2.398596250E1;1.396099925E0;-1.020300031E0;-1.233999953E-1
2.400581562E1;2.220700026E0;-4.667999744E-1;-9.279999882E-2
2.402566875E1;2.514499903E0;3.075999916E-1;-2.300000004E-2
2.404552031E1;2.276799917E0;3.463000059E-1;-5.766000152E-1
2.406537344E1;1.639599919E0;1.295000017E-1;-7.441999912E-1
2.408522656E1;1.576099992E0;7.109999657E-2;-1.120899916E0
2.410507813E1;1.505599976E0;9.939999878E-2;-9.629999995E-1
2.412493125E1;1.084100008E0;2.769999802E-1;5.529999733E-2
2.414478438E1;8.531000018E-1;4.575999975E-1;6.649000049E-1
2.416463594E1;1.075699925E0;2.648999989E-1;1.536999941E-1
2.418448906E1;1.028299928E0;3.079999983E-2;-6.528999805E-1
2.420434219E1;7.688999772E-1;-1.039000005E-1;-9.880999923E-1
2.422419531E1;2.097999901E-1;-2.504999936E-1;-1.175599933E0
2.424404688E1;-5.820999742E-1;-3.759000003E-1;-1.486099958E0
2.426390000E1;-1.783499956E0;-3.888999820E-1;-1.605499983E0
2.428375312E1;-1.949899912E0;-1.217999980E-1;-1.893599987E0
2.430360469E1;-2.113999844E0;2.483999878E-1;-1.915199995E0
2.432345781E1;-2.706499815E0;1.745999902E-1;-2.007299900E0
2.434331094E1;-3.751999855E0;-2.543999851E-1;-2.107800007E0
2.436316250E1;-3.910499811E0;-1.868499994E0;-3.433199883E0
2.438301563E1;-5.637700081E0;-2.001199961E0;5.397299767E0
2.440286875E1;-2.156399965E0;1.602899909E0;9.545800209E0
2.442272031E1;1.463599920E0;1.852499962E0;4.813499928E0
2.444257344E1;5.898999572E-1;1.531700015E0;2.364599943E0
2.446242656E1;-5.953999758E-1;2.082499981E0;-1.779000014E-1
2.448227812E1;-1.871999949E-1;1.932699919E0;-2.912400007E0
2.450213125E1;4.169999808E-2;1.699399948E0;-2.989099979E0
2.452198438E1;1.261299968E0;1.286800027E0;-1.649999976E0
2.454183594E1;1.923999906E0;9.962999821E-1;-6.384999752E-1
2.456168906E1;1.743899941E0;-1.920000017E-1;-9.886999726E-1
2.458154219E1;6.911000013E-1;-1.556699991E0;-1.632399917E0
2.460139531E1;1.323300004E0;-2.042500019E0;-1.414600015E0
2.462124688E1;1.254699945E0;-2.575899839E0;6.889999658E-2
2.464110000E1;1.923399925E0;-1.789699912E0;1.268100023E0
2.466095313E1;-7.437999845E-1;-1.184599996E0;8.228999972E-1
2.468080469E1;-1.696499944E0;-5.216000080E-1;2.445999980E-1
2.470065781E1;-4.633999765E-1;-4.614000022E-1;1.578799963E0
2.472051094E1;8.543999791E-1;-1.155499935E0;1.042199969E0
2.474036406E1;1.731499910E0;-6.410999894E-1;5.639999732E-2
2.476021562E1;2.058199883E0;-5.322999954E-1;7.840000093E-2
2.478006875E1;1.043799996E0;-4.730999768E-1;-9.361999631E-1
2.479992188E1;2.084199905E0;-6.233999729E-1;-1.788199902E0
2.481977344E1;4.949500084E0;-4.412999749E-1;-1.300199986E0
2.483962656E1;3.695899963E0;-5.730000138E-1;-3.127399921E0
2.485947969E1;1.475099921E0;-4.799999893E-1;-3.693799973E0
2.487933125E1;6.592000127E-1;5.622000098E-1;-2.222599983E0
2.489918438E1;6.642000079E-1;1.106899977E0;-2.133499861E0
2.491903750E1;1.891899943E0;5.740999579E-1;-1.162599921E0
2.493888906E1;2.832999825E-1;4.162999988E-1;-6.409999728E-1
2.495874219E1;1.393999904E-1;1.524599910E0;-2.101999968E-1
2.497859531E1;-2.999799967E0;2.817199945E0;7.807999849E-1
2.499844844E1;-1.311059952E1;3.547499895E0;-2.155999988E-1
2.501830000E1;-6.371399879E0;2.932399988E0;2.590100050E0
2.503815312E1;-4.700999856E-1;1.606499910E0;4.187699795E0
2.505800625E1;4.023999870E-1;-6.990999579E-1;1.441699982E0
2.507785781E1;1.103399992E0;-1.992699981E0;5.843999982E-1
2.509771094E1;1.053399920E0;-1.171499968E0;1.023100019E0
2.511756406E1;3.484999835E-1;-7.889999449E-2;1.768899918E0
2.513741563E1;-6.229999661E-1;6.549999863E-2;2.222800016E0
2.515726875E1;-1.154099941E0;-1.421999931E-1;2.499899864E0
2.517712188E1;-5.663999915E-1;-4.018999934E-1;2.274399996E0
2.519697500E1;1.303699970E0;-4.459999800E-1;4.429999888E-1
2.521682656E1;2.025199890E0;-7.497000098E-1;-1.787000000E-1
2.523667969E1;2.213000059E0;-8.363999724E-1;-6.194999814E-1
2.525653125E1;1.619699955E0;-8.775999546E-1;-5.586999655E-1
2.527638438E1;1.918299913E0;-4.553999901E-1;-4.154999852E-1
2.529623750E1;3.030200005E0;-1.702999920E-1;-8.754999638E-1
2.531609062E1;3.286599874E0;-4.934999943E-1;-1.201300025E0
2.533594219E1;3.492799997E0;-1.512999982E-1;-2.847999930E-1
2.535579531E1;3.029399872E0;-1.919999905E-2;1.701999903E-1
2.537564844E1;1.750099897E0;-3.429999948E-1;-1.184999943E-1
2.539550000E1;-9.149999917E-2;-6.478999853E-1;-8.677999973E-1
2.541535313E1;-9.436999559E-1;-9.815999866E-1;-2.369400024E0
2.543520625E1;-2.741000056E-1;-1.165499926E0;-3.568599939E0
2.545505781E1;-2.474999875E-1;-1.567199945E0;-1.905299902E0
2.547491094E1;-3.725000024E-1;-9.949999452E-1;-2.141999900E-1
2.549476406E1;-1.176100016E0;-9.758999944E-1;-5.113999844E-1
2.551461562E1;-1.780900002E0;-4.106999934E-1;-7.819999754E-2
2.553446875E1;-2.185400009E0;1.779000014E-1;-4.266999960E-1
2.555432188E1;-2.495699883E0;3.694999814E-1;-1.212599993E0
2.557417344E1;-3.227599859E0;5.672000051E-1;-9.657999873E-1
2.559402656E1;-3.965499878E0;8.111000061E-1;-3.659999743E-2
2.561387969E1;-4.039700031E0;-1.319999993E-1;-4.828999937E-1
2.563373125E1;-3.957000017E0;-2.028300047E0;-1.374699950E0
2.565358438E1;-3.357699871E0;-1.578099966E0;2.878399849E0
2.567343750E1;-3.547999859E-1;2.065799952E0;6.425199986E0
2.569328906E1;8.284999728E-1;3.506699800E0;5.556299686E0
2.571314219E1;-3.059999943E-1;2.821499825E0;2.844300032E0
2.573299531E1;1.710999906E-1;2.866899967E0;-5.006999969E-1
2.575284844E1;1.179600000E0;2.838399887E0;-1.889799953E0
2.577270000E1;3.132400036E0;2.318399906E0;3.261999786E-1
2.579255312E1;3.905499935E0;1.265299916E0;1.918799996E0
2.581240625E1;2.893999815E0;3.739999980E-2;8.992999792E-1
2.583225781E1;-5.963999629E-1;-1.748099923E0;-1.184499979E0
2.585211094E1;-7.027999759E-1;-2.445499897E0;-1.235499978E0
2.587196406E1;1.932199955E0;-2.410300016E0;-9.674999714E-1
2.589181563E1;1.426599979E0;-2.554499865E0;-9.038999677E-1
2.591166875E1;2.078000009E-1;-2.308799982E0;-1.226999983E-1
2.593152188E1;-6.822999716E-1;-9.874999523E-1;4.342999756E-1
2.595137500E1;-1.111099958E0;6.509999931E-2;9.673999548E-1
2.597123125E1;9.408999681E-1;3.409000039E-1;1.630599976E0
2.599107969E1;2.074100018E0;-3.865999877E-1;1.013199925E0
2.601093281E1;1.664199948E0;-8.262000084E-1;-7.167999744E-1
2.603078438E1;2.639999986E-1;-1.150200009E0;-1.452700019E0
2.605063750E1;1.828099966E0;-5.102999806E-1;-1.376099944E0
2.607049062E1;4.035099983E0;-2.701999843E-1;-1.839899898E0
2.609034375E1;4.605199814E0;3.009999916E-2;-2.431799889E0
2.611019531E1;3.194199800E0;-3.294000030E-1;-2.319099903E0
2.613004844E1;1.669600010E0;-5.133999586E-1;-1.818399906E0
2.614990156E1;2.654500008E0;-9.759999812E-2;-9.003999829E-1
2.616975313E1;1.758799911E0;7.660000026E-2;-1.617100000E0
2.618960625E1;1.606599927E0;1.261000037E-1;-1.292099953E0
2.620945938E1;1.492499948E0;-7.779999822E-2;-1.287999898E-1
2.622931250E1;8.770999908E-1;-1.210999936E-1;6.596999764E-1
2.624916406E1;-2.640999854E-1;4.672999978E-1;1.012300014E0
2.626901719E1;-3.541699886E0;1.925699949E0;1.153599977E0
2.628886875E1;-1.345819950E1;2.845999956E0;-3.673000038E-1
2.630872188E1;-9.638999939E0;3.523299932E0;-2.394999981E0
2.632857500E1;2.989999950E-2;1.950899959E0;3.915199995E0
2.634842812E1;1.484399915E0;4.171999991E-1;3.804399967E0
2.636827969E1;7.032999992E-1;6.777999997E-1;1.831599951E0
2.638813281E1;-9.175999761E-1;1.010399938E0;9.930999875E-1
2.640798594E1;-1.351099968E0;1.109899998E0;1.621399999E0
2.642783750E1;-1.602199912E0;2.316000015E-1;2.182600021E0
2.644769062E1;-8.331999779E-1;2.023999989E-1;2.804999828E0
2.646754375E1;5.364999771E-1;2.234999985E-1;2.271800041E0
2.648739688E1;1.730899930E0;2.872999907E-1;1.662400007E0
2.650724844E1;2.009199858E0;3.822000027E-1;1.063099980E0
2.652710156E1;1.781699896E0;1.027999967E-1;8.647999763E-1
2.654695469E1;1.909299970E0;-7.759999484E-2;4.952999949E-1
2.656680625E1;1.873699903E0;-3.722999990E-1;6.642000079E-1
2.658665938E1;1.046299934E0;-9.629999995E-1;5.410000086E-1
2.660651250E1;1.390999913E0;-8.147999644E-1;8.082000017E-1
2.662636406E1;1.607800007E0;-1.010699987E0;6.793999672E-1
2.664621719E1;1.763799906E0;-9.440999627E-1;4.666999876E-1
2.666606875E1;1.646699905E0;-1.006099939E0;7.674999833E-1
2.668592188E1;2.332299948E0;-5.961999893E-1;9.463999867E-1
2.670577500E1;2.445099831E0;-5.805000067E-1;2.085700035E0
2.672562812E1;1.819000006E0;-9.690999985E-1;2.465399981E0
2.674547969E1;9.323999882E-1;-1.656299949E0;5.667999983E-1
2.676533281E1;-1.718000025E-1;-2.249699831E0;-6.304000020E-1
2.678518438E1;5.686999559E-1;-1.522599936E0;-1.391899943E0
2.680503906E1;1.406899929E0;-8.028999567E-1;-1.891199946E0
2.682489063E1;1.517300010E0;-8.723999858E-1;-2.541100025E0
2.684474375E1;1.663299918E0;-1.406799912E0;-3.344399929E0
2.686459531E1;1.320500016E0;-1.321799994E0;-2.379099846E0
2.688444844E1;8.799999952E-1;-3.003999889E-1;-1.171000004E-1
2.690430156E1;6.129999831E-2;1.013000011E-1;5.120999813E-1
2.692415312E1;-1.431699991E0;-5.801999569E-1;-4.405999780E-1
2.694400625E1;-3.304499865E0;-1.178499937E0;-5.085999966E-1
2.696385938E1;-4.757899761E0;-1.478899956E0;-4.060999751E-1
2.698371094E1;-6.459799767E0;-2.007299900E0;1.325099945E0
2.700356406E1;-7.094899654E0;-2.007799864E0;4.793399811E0
2.702341719E1;-4.642999649E0;-1.547999978E-1;7.319699764E0
2.704326875E1;-1.341199994E0;2.597300053E0;5.813199997E0
2.706312188E1;-1.618999988E-1;3.643899918E0;2.692299843E0
2.708297500E1;-1.181499958E0;3.877299786E0;-6.859999895E-2
2.710282813E1;-1.923900008E0;4.023399830E0;-1.761099935E0
2.712267969E1;-2.936999798E-1;3.594699860E0;-2.822499990E0
2.714253281E1;1.555999994E0;2.158200026E0;-1.305099964E0
2.716238594E1;2.979499817E0;1.248799920E0;-2.269999981E-1
2.718223750E1;3.797399998E0;8.500000089E-2;1.269999985E-2
2.720209062E1;4.437999725E0;-7.216999531E-1;-3.526999950E-1
2.722194375E1;4.473199844E0;-1.136899948E0;-2.991999984E-1
2.724179688E1;3.924399853E0;-1.148899913E0;1.750999987E-1
2.726164844E1;3.109499931E0;-5.688999891E-1;6.710000038E-1
2.728150156E1;2.218099833E0;-4.542999864E-1;1.196099997E0
2.730135469E1;1.817799926E0;1.299999934E-2;9.587000012E-1
2.732120625E1;1.723299980E0;6.297000051E-1;1.396999955E0
2.734105938E1;1.573300004E0;8.968999982E-1;1.971399903E0
2.736091250E1;1.353899956E0;8.018999696E-1;1.708299994E0
2.738076406E1;1.143700004E0;6.694999933E-1;1.200099945E0
2.740061719E1;7.987999916E-1;1.938999891E-1;7.265999913E-1
2.742047031E1;5.801999569E-1;-3.836999834E-1;7.389999628E-1
2.744032344E1;7.216999531E-1;-9.723999500E-1;5.279999971E-1
2.746017500E1;1.087199926E0;-1.083199978E0;2.239999920E-1
2.748002812E1;1.078499913E0;-1.133499980E0;1.255999953E-1
2.749988125E1;1.027300000E0;-8.884999752E-1;7.504999638E-1
2.751973281E1;8.744999766E-1;-6.348999739E-1;1.355799913E0
2.753958594E1;3.191999793E-1;-2.289000005E-1;1.588199973E0
2.755943906E1;-8.827999830E-1;2.023999989E-1;1.484099984E0
2.757929063E1;-1.992399931E0;-3.139999881E-2;5.989999697E-2
2.759914375E1;-1.612299919E0;-5.454999804E-1;-1.686399937E0
2.761899688E1;-7.295999527E-1;-6.600999832E-1;-2.000699997E0
2.763884844E1;3.730999827E-1;-9.427999854E-1;-1.819000006E0
2.765870156E1;2.110399961E0;-1.387899995E0;-1.671999931E0
2.767855469E1;3.433599949E0;-1.646299958E0;-1.299099922E0
2.769840781E1;2.860899925E0;-1.651199937E0;-2.590000033E-1
2.771825938E1;-2.572999895E-1;-1.008599997E0;9.674999714E-1
2.773811250E1;-2.158699989E0;-1.073899984E0;3.912999928E-1
2.775796562E1;-4.001999795E-1;-1.390299916E0;-1.052500010E0
2.777781875E1;1.547500014E0;-1.648499966E0;-1.465499997E0
2.779767031E1;8.288999796E-1;-1.786399961E0;-4.632000029E-1
2.781752344E1;-1.009799957E0;-1.491899967E0;1.189100027E0
2.783737656E1;-1.283800006E0;-4.853999913E-1;3.976999819E-1
2.785722813E1;-9.135999680E-1;-4.711999893E-1;-1.269199967E0
2.787708125E1;-5.676000118E-1;-7.414000034E-1;-3.498099804E0
2.789693281E1;3.893999755E-1;-9.281999469E-1;-5.174099922E0
2.791678594E1;4.948000014E-1;-1.463099957E0;-3.807699919E0
2.793663906E1;1.994999945E-1;-1.887399912E0;-1.719599962E0
2.795649375E1;7.965999842E-1;-1.001600027E0;-9.330999851E-1
2.797634375E1;1.316499949E0;-6.306999922E-1;-1.313399911E0
2.799619688E1;1.052999973E0;-7.415999770E-1;-1.633199930E0
2.801605000E1;1.212099910E0;-9.731999636E-1;-1.187399983E0
2.803590156E1;1.713999987E0;-9.372999668E-1;-5.120999813E-1
2.805575469E1;2.077100039E0;-1.991999894E-1;-1.533000022E-1
2.807560781E1;2.339599848E0;4.730999768E-1;-7.429999858E-2
2.809546094E1;2.041800022E0;5.245999694E-1;-4.764999747E-1
2.811531250E1;1.959199905E0;1.439999975E-2;-1.076799989E0
2.813516406E1;1.867599964E0;-6.308000088E-1;-2.129499912E0
2.815501719E1;1.768299937E0;-1.223500013E0;-1.950999975E0
2.817487031E1;9.030999541E-1;-2.218099833E0;-1.718499899E0
2.819472344E1;-4.649999738E-2;-2.427399874E0;-1.518099904E0
2.821457500E1;3.003999889E-1;-1.069599986E0;-2.100199938E0
2.823442812E1;2.531899929E0;-2.018999904E-1;-7.240999937E-1
2.825428125E1;2.476799965E0;-4.087999761E-1;6.857999563E-1
2.827413438E1;3.999999724E-3;-2.721000016E-1;1.453799963E0
2.829398594E1;-2.108399868E0;3.258000016E-1;8.859999478E-2
2.831383906E1;-2.523399830E0;8.951999545E-1;-4.490999877E-1
2.833369063E1;-2.610899925E0;7.231000066E-1;4.092999995E-1
2.835354375E1;-2.277400017E0;2.187999934E-1;1.357299924E0
2.837339688E1;-3.329399824E0;1.895999908E-1;1.744300008E0
2.839325000E1;-7.061999798E0;1.495800018E0;7.396000028E-1
2.841310156E1;-8.216899872E0;3.299299955E0;-1.226799965E0
2.843295469E1;-1.742499948E0;2.263099909E0;-2.449800014E0
2.845280781E1;2.543900013E0;6.076999903E-1;-9.393999577E-1
2.847266094E1;3.862599850E0;-6.316999793E-1;-6.879999489E-2
2.849251250E1;4.285900116E0;-1.527300000E0;-1.995999962E-1
2.851236562E1;4.423699856E0;-1.548799992E0;-1.305999905E-1
2.853221719E1;4.767699718E0;-1.208299994E0;-3.930999935E-1
2.855207031E1;4.583899975E0;-7.647999525E-1;-8.043999672E-1
2.857192344E1;3.983699799E0;-5.297999978E-1;-8.739999533E-1
2.859177656E1;2.754400015E0;-5.261999965E-1;-2.619999945E-1
2.861162813E1;1.248899937E0;-7.637000084E-1;5.033999681E-1
2.863148125E1;6.013000011E-1;-1.843999922E-1;3.805999756E-1
2.865133438E1;1.001999974E0;3.455999792E-1;-5.744999647E-1
2.867118594E1;1.328899980E0;3.280999959E-1;-1.197899938E0
2.869103906E1;1.353999972E0;9.499999695E-3;-1.707299948E0
2.871089219E1;8.519999981E-1;-1.990000010E-1;-2.011299849E0
2.873074531E1;4.888999760E-1;7.281000018E-1;-1.932399988E0
2.875059688E1;-2.433999926E-1;2.323499918E0;-5.580999851E-1
2.877045000E1;-1.757999957E-1;3.168799877E0;3.416000009E-1
2.879030312E1;3.005000055E-1;4.997999966E-1;-5.340999961E-1
2.881015469E1;-1.016700029E0;-1.332899928E0;3.111999929E-1
2.883000781E1;-1.841499925E0;-1.371500015E0;9.628999829E-1
2.884986094E1;-2.186199903E0;-2.840800047E0;2.197799921E0
2.886971250E1;-5.260999680E0;-3.026899815E0;6.625099659E0
2.888956563E1;-6.370599747E0;-8.492999673E-1;7.115900040E0
2.890941875E1;-7.156599998E0;-5.372999907E-1;2.893399954E0
2.892927031E1;-3.190299988E0;-1.814999938E0;-1.549099922E0
2.894912344E1;6.223999858E-1;-2.672899961E0;-2.957799911E0
2.896897656E1;1.914399981E0;-2.179699898E0;-2.923199892E0
2.898882969E1;1.519299984E0;-1.508299947E0;-1.311699986E0
2.900868125E1;1.313499928E0;-1.299499989E0;-2.899999963E-3
2.902853438E1;2.399699926E0;-8.575999737E-1;-1.209999993E-1
2.904838750E1;3.072999954E0;-2.696000040E-1;-3.479999900E-1
2.906823906E1;2.572299957E0;-1.105999947E-1;-2.807999849E-1
2.908809219E1;2.305899858E0;-6.588999629E-1;-7.285000086E-1
2.910794531E1;2.948799849E0;-1.131799936E0;-1.619599938E0
2.912779688E1;3.206899881E0;-1.775299907E0;-2.188600063E0
2.914765000E1;2.673399925E0;-2.117699862E0;-1.077299953E0
2.916750313E1;5.676000118E-1;-1.978500009E0;-6.973999739E-1
2.918735625E1;-4.508999884E-1;-2.010699987E0;-1.108799934E0
2.920720781E1;-3.177999854E-1;-2.242899895E0;-1.529099941E0
2.922706094E1;2.263000011E-1;-2.301399946E0;-2.186800003E0
2.924691250E1;1.474200010E0;-2.756799936E0;-1.788599968E0
2.926676562E1;1.407799959E0;-2.611699820E0;8.300999999E-1
2.928661875E1;-5.044000149E-1;-1.109399915E0;2.660699844E0
2.930647031E1;-1.318499923E0;8.580999970E-1;3.777099848E0
2.932632344E1;-2.488999844E0;2.323400021E0;3.321899891E0
2.934617656E1;-4.035599709E0;2.250999928E0;2.687099934E0
2.936602969E1;-5.609699726E0;1.555099964E0;2.354199886E0
2.938588125E1;-5.994599819E0;-1.806000024E-1;5.179999769E-2
2.940573438E1;-3.393599987E0;-1.079499960E0;-1.725399971E0
2.942558594E1;-1.630399942E0;-9.174999595E-1;-3.200999796E-1
2.944545312E1;-2.534899950E0;2.779999971E-1;2.128599882E0
2.946529219E1;-2.417199850E0;1.092000008E0;1.594399929E0
2.948514531E1;1.445999891E-1;1.494199991E0;-9.054999948E-1
2.950499688E1;2.750299931E0;8.289999962E-1;-1.569499969E0
2.952485156E1;3.283399820E0;-1.037099957E0;1.940999925E-1
2.954470156E1;3.207599878E0;-1.114699960E0;2.063799858E0
2.956455469E1;3.210599899E0;-6.714000106E-1;2.465600014E0
2.958440938E1;2.654099941E0;3.639999777E-2;2.486500025E0
2.960426094E1;2.089099884E0;7.245000005E-1;1.865599990E0
2.962411250E1;1.509299994E0;7.930999994E-1;9.918999672E-1
2.964396563E1;1.208099961E0;3.802999854E-1;-9.479999542E-2
2.966381875E1;1.205899954E0;-1.228000000E-1;-4.393999875E-1
2.968367031E1;9.514999986E-1;-1.689999923E-2;7.789999992E-2
2.970352344E1;8.484999537E-1;4.319999814E-1;5.415999889E-1
2.972337656E1;4.969999790E-1;4.123999774E-1;1.963000000E-1
2.974322969E1;5.770999789E-1;3.673999906E-1;-1.129699945E0
2.976308125E1;1.721599936E0;-1.604000032E-1;-2.487900019E0
2.978293438E1;2.150599957E0;-8.855999708E-1;-1.807699919E0
2.980278750E1;1.690699935E0;-8.757999539E-1;-6.333000064E-1
2.982264531E1;5.848000050E-1;-1.638000011E-1;-1.802999973E-1
2.984249219E1;-2.150999904E-1;5.805999637E-1;-1.136199951E0
2.986234531E1;-2.222999930E-1;7.189999819E-1;-2.601799965E0
2.988219688E1;8.829999715E-2;7.189999521E-2;-1.493799925E0
2.990205000E1;-6.595000029E-1;-4.587999880E-1;1.026700020E0
2.992190313E1;-1.470899940E0;-1.116599917E0;2.848399878E0
2.994175938E1;-2.133399963E0;-1.213400006E0;3.170399904E0
2.996160781E1;-3.184399843E0;-1.393299937E0;3.111399889E0
2.998146094E1;-2.904599905E0;-1.258700013E0;3.264799833E0
3.000131406E1;-3.728399992E0;-1.121899962E0;6.204000115E-1
3.002116563E1;-6.841599941E0;-1.205899954E0;-8.842999935E-1
3.004102031E1;-8.859899521E0;-2.062099934E0;-1.821599960E0
3.006087188E1;-2.292399883E0;-1.523000002E0;-4.681999981E-1
3.008072500E1;2.181999922E0;-3.984999955E-1;7.361999750E-1
3.010057656E1;3.662400007E0;-2.699999809E-1;7.134999633E-1
3.012042969E1;3.031899929E0;-4.278999865E-1;-3.483999968E-1
3.014028594E1;9.408999681E-1;-7.590999603E-1;-4.754999876E-1
3.016013438E1;1.904199958E0;-6.611999869E-1;4.736000001E-1
3.017998750E1;2.495899916E0;-7.637000084E-1;4.955999851E-1
3.019984062E1;1.977999926E0;-3.516999781E-1;-3.858000040E-1
3.021969375E1;1.635800004E0;-1.110999957E-1;-1.414699912E0
3.023954531E1;2.027999878E0;-9.299999475E-1;-1.153100014E0
3.025939844E1;2.338799953E0;-1.502799988E0;1.213999987E-1
3.027925000E1;2.224699974E0;-1.413499951E0;-1.232999936E-1
3.029910313E1;2.276000023E0;-1.040199995E0;-3.272999823E-1
3.031895625E1;2.014600039E0;-4.737999737E-1;-5.731999874E-1
3.033880938E1;5.374999642E-1;-8.878999949E-1;-1.534399986E0
3.035866094E1;-2.255999893E-1;-1.665899992E0;-8.948999643E-1
3.037851406E1;4.598999918E-1;-1.977499962E0;-2.791000009E-1
3.039836719E1;3.701999784E-1;-1.845199943E0;-2.218899965E0
3.041821875E1;9.596999884E-1;-2.090199947E0;-1.140399933E0
3.043807188E1;6.211000085E-1;-2.683199883E0;9.891999960E-1
3.045792500E1;1.374599934E0;-2.326099873E0;2.612499952E0
3.047777656E1;1.259599924E0;-4.793999791E-1;4.195799828E0
3.049762969E1;8.819999546E-2;1.748999953E0;4.636099815E0
3.051748281E1;-3.064999819E0;3.422799826E0;1.601699948E0
3.053733438E1;-6.668900013E0;3.327299833E0;-2.702899933E0
3.055718750E1;-4.461699963E0;1.175300002E0;-3.139600039E0
3.057704063E1;-2.477900028E0;-1.947799921E0;-8.779999614E-1
3.059689219E1;-1.321900010E0;-2.226099968E0;-6.261999607E-1
3.061674531E1;-3.243099928E0;-1.686999947E-1;4.197999835E-1
3.063659688E1;-7.245899677E0;2.409399986E0;2.193899870E0
3.065645000E1;-3.606999874E0;2.366099834E0;-6.836999655E-1
3.067630312E1;1.204800010E0;3.849999905E-1;-1.649299979E0
3.069615625E1;3.289199829E0;-1.093599916E0;2.933000028E-1
3.071600781E1;3.960999966E0;-1.297299981E0;2.133100033E0
3.073586094E1;3.268800020E0;-8.143000007E-1;2.777199984E0
3.075571406E1;2.778199911E0;6.859999895E-2;1.774599910E0
3.077556563E1;2.708799839E0;7.037000060E-1;8.414999843E-1
3.079541875E1;2.414999962E0;9.633999467E-1;5.958999991E-1
3.081527188E1;1.785499930E0;1.055799961E0;1.004999995E0
3.083512344E1;1.218500018E0;8.240000010E-1;9.637999535E-1
3.085497656E1;1.108799934E0;2.899999917E-2;7.809999585E-2
3.087482969E1;1.609200001E0;-7.366999984E-1;-1.169899940E0
3.089468281E1;1.127300024E0;-9.453999996E-1;-2.087000012E-1
3.091453438E1;-6.650000066E-2;8.949999511E-2;6.897000074E-1
3.093438750E1;5.769999698E-2;1.340499997E0;-2.538999915E-1
3.095424062E1;9.351999760E-1;1.751399994E0;-4.722999930E-1
3.097409219E1;2.101899862E0;1.262499928E0;-9.352999926E-1
3.099394531E1;2.502300024E0;-1.559000015E-1;-3.658999801E-1
3.101379844E1;2.100600004E0;-7.642999887E-1;-2.872999907E-1
3.103365000E1;9.283999801E-1;7.649999857E-2;-6.509000063E-1
3.105350313E1;4.574999809E-1;1.532599926E0;-3.432999849E0
3.107335625E1;-4.292999804E-1;1.959999919E0;-4.594500065E0
3.109320938E1;-1.791299939E0;1.358000040E-1;9.529999644E-2
3.111306094E1;-1.775699973E0;-1.498699903E0;6.405000091E-1
3.113291406E1;-1.355899930E0;-2.618099928E0;4.739999771E-1
3.115276719E1;-1.112599969E0;-2.461899996E0;2.004199982E0
3.117261875E1;-2.123999834E0;-1.589199901E0;3.812899828E0
3.119247188E1;-3.746099949E0;-1.651999950E-1;5.300999641E0
3.121232500E1;-4.415800095E0;1.332199931E0;4.085999966E0
3.123217812E1;-3.122299910E0;1.426399946E0;6.331999898E-1
3.125202969E1;-1.753099918E0;-7.386999726E-1;-1.861199975E0
3.127188281E1;-2.763900042E0;-2.937599897E0;-9.668999910E-1
3.129173594E1;-2.045300007E0;-3.102699995E0;-2.897999883E-1
3.131158750E1;2.208999991E-1;-2.842099905E0;-3.414999843E-1
3.133144063E1;2.023299932E0;-2.486099958E0;-4.716999829E-1
3.135129375E1;2.767099857E0;-1.673699975E0;-7.536000013E-1
3.137114531E1;2.668799877E0;-6.310999990E-1;-1.374000013E-1
3.139099844E1;2.375999987E-1;-3.811999857E-1;5.683000088E-1
3.141085156E1;-4.600000009E-2;-1.717000008E-1;1.013000011E0
3.143070312E1;8.647999763E-1;-1.662999988E-1;6.635999680E-1
3.145055625E1;2.039999962E0;3.999999911E-2;3.868999779E-1
3.147040938E1;1.921999931E0;2.509999871E-1;-3.436999917E-1
3.149026250E1;1.137699962E0;-1.903999895E-1;-5.293999910E-1
3.151011406E1;1.214200020E0;-9.407999516E-1;-1.352999955E-1
3.152996719E1;1.964100003E0;-1.712599993E0;-7.829999924E-1
3.154982031E1;3.016799927E0;-2.058199883E0;-9.100999832E-1
3.156967188E1;2.316400051E0;-2.158299923E0;-9.397999644E-1
3.158952500E1;6.164000034E-1;-1.669299960E0;-1.033900023E0
3.160937813E1;-3.469999880E-2;-1.264799953E0;-2.257499933E0
3.162922969E1;3.637999892E-1;-1.872299910E0;-1.473099947E0
3.164908281E1;1.826999933E-1;-2.325599909E0;-1.061200023E0
3.166893594E1;3.825999796E-1;-2.193199873E0;-5.367999673E-1
3.168878906E1;9.754999876E-1;-1.853799939E0;6.785999537E-1
3.170864062E1;9.965999722E-1;-1.281099916E0;2.392499924E0
3.172849375E1;2.788999975E-1;-2.779999934E-2;3.441099882E0
3.174834688E1;-1.190199971E0;1.222000003E0;2.283900023E0
3.176819844E1;-2.624899864E0;1.880800009E0;-2.198999971E-1
3.178805156E1;-1.078400016E0;1.660200000E0;-5.284999609E-1
3.180790469E1;-2.222399950E0;9.999999776E-3;5.823999643E-1
3.182775625E1;-5.218899727E0;-2.067299843E0;1.961999983E-1
3.184760938E1;-5.729599953E0;-2.296700001E0;-1.464999914E0
3.186746094E1;-5.284199715E0;-1.607999951E-1;-5.911999941E-1
3.188731406E1;-4.257199764E0;2.872699976E0;1.020399928E0
3.190716719E1;-1.933799982E0;2.961199999E0;2.660000026E-1
3.192702031E1;6.010999680E-1;4.232999980E-1;-9.576999545E-1
3.194687188E1;2.141499996E0;-1.352299929E0;-2.439999953E-2
3.196672500E1;3.483399868E0;-1.263099909E0;1.717599988E0
3.198657656E1;3.991899967E0;-1.040000003E-2;3.210099936E0
3.200642969E1;3.375699997E0;7.461000085E-1;2.679899931E0
3.202628281E1;2.530499935E0;5.281999707E-1;1.327700019E0
3.204613594E1;1.892199993E0;1.621999890E-1;5.943999887E-1
3.206598750E1;1.584899902E0;-1.430999935E-1;7.703999877E-1
3.208584062E1;1.827499986E0;-1.661999971E-1;9.973999858E-1
3.210569375E1;1.821699977E0;1.550000012E-1;9.174999595E-1
3.212554531E1;1.131999969E0;3.823999763E-1;-2.929999828E-1
3.214539844E1;4.068000019E-1;1.244999990E-1;-1.299999952E0
3.216525156E1;4.036999941E-1;6.191999912E-1;1.294299960E0
3.218510313E1;1.805799961E0;1.684799910E0;8.089999557E-1
3.220495625E1;2.750299931E0;1.490199924E0;4.064999819E-1
3.222480938E1;2.899999857E0;1.475999951E-1;-2.628000081E-1
3.224466250E1;2.240700006E0;-1.062500000E0;-1.214499950E0
3.226451406E1;9.799000025E-1;-6.488999724E-1;-2.596999884E0
3.228436719E1;-7.119999826E-2;1.444700003E0;-3.407599926E0
3.230422031E1;-1.624099970E0;2.526999950E0;-1.745499969E0
3.232407188E1;-2.915999889E0;3.109999895E-1;-1.088899970E0
3.234392500E1;-1.095799923E0;-2.322099924E0;-4.212999940E-1
3.236377812E1;-4.260999858E-1;-3.448599815E0;1.208099961E0
3.238363125E1;-1.709599972E0;-3.149499893E0;2.111299992E0
3.240348281E1;-2.443599939E0;-2.554600000E0;4.228300095E0
3.242333750E1;-4.072899818E0;-5.152999759E-1;5.842299938E0
3.244318906E1;-4.493499756E0;1.656899929E0;3.368999958E0
3.246304063E1;-3.888899803E0;1.258099914E0;-5.895000100E-1
3.248289375E1;-1.719200015E0;-1.300199986E0;-2.945199966E0
3.250274688E1;-6.430999637E-1;-2.759500027E0;-9.486999512E-1
3.252259844E1;-1.268399954E0;-2.564699888E0;-4.492999911E-1
3.254245156E1;-4.323699951E0;-1.648399949E0;-4.643999934E-1
3.256230469E1;-2.221699953E0;-2.066999972E-1;3.518999815E-1
3.258215625E1;1.513599992E0;-1.234999970E-1;4.013999999E-1
3.260200938E1;2.502699852E0;-6.101999879E-1;8.876000047E-1
3.262186250E1;2.864599943E0;-7.208999991E-1;2.665999830E-1
3.264171562E1;2.921399832E0;-2.856000066E-1;-1.342499971E0
3.266156719E1;2.487900019E0;-4.547999799E-1;-1.501099944E0
3.268142031E1;2.839699984E0;-5.746999979E-1;-1.339999959E-2
3.270127344E1;3.582799911E0;-3.355000019E-1;4.960999787E-1
3.272112500E1;2.972800016E0;-4.205999970E-1;2.399999946E-1
3.274097813E1;1.215600014E0;-7.380999923E-1;-8.518999815E-1
3.276083125E1;6.535999775E-1;-1.349900007E0;-7.008000016E-1
3.278068281E1;1.500000000E0;-1.778599977E0;-6.248999834E-1
3.280053594E1;1.432399988E0;-2.267099857E0;-3.073799849E0
3.282038906E1;4.071999788E-1;-2.340100050E0;-7.373999953E-1
3.284024219E1;2.939999998E-1;-1.498099923E0;5.066999793E-1
3.286009375E1;6.013999581E-1;-9.170999527E-1;3.419999778E-1
3.287994688E1;5.949999690E-1;-1.174499989E0;-5.597000122E-1
3.289980000E1;5.164999962E-1;-1.581699967E0;-7.507999539E-1
3.291965156E1;1.514999986E0;-1.264999986E0;2.488399982E0
3.293950469E1;-2.004999965E-1;-3.156999946E-1;4.283800125E0
3.295935781E1;-4.321499825E0;9.336999655E-1;2.715899944E0
3.297920938E1;-5.442999840E0;2.395200014E0;6.038999557E-1
3.299906250E1;-2.830999851E0;2.202699900E0;3.272999823E-1
3.301891563E1;-1.003799915E0;7.911999822E-1;6.085999608E-1
3.303876719E1;-1.537599921E0;-8.730999827E-1;-1.042999998E-1
3.305862031E1;-2.821699858E0;-1.837099910E0;-8.933999538E-1
3.307847344E1;-2.311899900E0;-8.088999987E-1;-8.467999697E-1
3.309832656E1;-1.782499909E0;1.604499936E0;-5.040000007E-2
3.311817812E1;-2.887199879E0;3.365299940E0;1.108199954E0
3.313803125E1;-1.537599921E0;2.096699953E0;-1.288999915E-1
3.315788438E1;1.779199958E0;8.138999939E-1;-1.859000027E-1
3.317773750E1;3.199899912E0;-4.946999848E-1;9.677999616E-1
3.319758906E1;4.114999771E0;-3.258000016E-1;1.591300011E0
3.321744219E1;3.416199923E0;3.925999999E-1;1.590600014E0
3.323729375E1;2.658900023E0;8.333999515E-1;8.787999749E-1
3.325714688E1;2.427599907E0;7.527999878E-1;6.740000099E-2
3.327700000E1;2.441400051E0;2.078999877E-1;-8.750000000E-1
3.329685156E1;2.287299871E0;-7.717999816E-1;-1.026199937E0
3.331670469E1;2.360100031E0;-1.296299934E0;-3.937999904E-1
3.333655625E1;1.840699911E0;-1.097599983E0;3.797000051E-1
3.335640938E1;1.539199948E0;-2.416999936E-1;2.206999958E-1
3.337626250E1;1.498699903E0;9.993000031E-1;-2.133999914E-1
3.339611562E1;1.977199912E0;1.250499964E0;-7.220999599E-1
3.341596719E1;2.070800066E0;4.763999879E-1;-9.963999987E-1
3.343582031E1;1.781099916E0;1.983999908E-1;-9.707999825E-1
3.345567344E1;1.238199949E0;4.713999927E-1;-1.639499903E0
3.347552656E1;2.342999876E-1;1.021399975E0;-2.526000023E0
3.349537812E1;-1.997599959E0;1.200799942E0;-3.968999982E-1
3.351523125E1;-3.419199944E0;-1.067099929E0;-8.752999902E-1
3.353508594E1;-2.206199884E0;-3.414599895E0;-5.022000074E-1
3.355493594E1;-8.827999830E-1;-3.733399868E0;1.065299988E0
3.357478906E1;-1.618299961E0;-2.774799824E0;3.975399971E0
3.359464219E1;-3.710799932E0;-1.222899914E0;5.153999805E0
3.361449375E1;-4.345499992E0;1.018199921E0;3.345700026E0
3.363434688E1;-5.916199684E0;1.360999942E0;1.148199916E0
3.365420000E1;-7.782699585E0;9.770999551E-1;-7.233999968E-1
3.367405312E1;-2.463299990E0;3.506000042E-1;-9.508000016E-1
3.369390469E1;2.190199852E0;-9.678999782E-1;-2.416999936E-1
3.371375781E1;2.769500017E0;-1.643199921E0;4.551999867E-1
3.373361094E1;1.542999983E0;-1.790699959E0;4.998999834E-1
3.375346250E1;3.607999980E-1;-1.327199936E0;-4.953999817E-1
3.377331562E1;7.696999907E-1;-3.649999946E-2;7.899999619E-2
3.379316875E1;1.487999916E0;1.056299925E0;9.361000061E-1
3.381302031E1;1.421999931E0;9.626999497E-1;-3.495000005E-1
3.383287344E1;1.354499936E0;1.909999922E-2;-1.634599924E0
3.385272656E1;1.885899901E0;-8.496999741E-1;-7.484999895E-1
3.387257813E1;2.416499853E0;-8.933999538E-1;-4.223999977E-1
3.389243125E1;2.053299904E0;-9.061999917E-1;-1.103799939E0
3.391228594E1;1.031000018E0;-1.489099979E0;-1.199999928E0
3.393213750E1;1.272099972E0;-1.837099910E0;-4.893999994E-1
3.395198906E1;1.688799977E0;-1.949699998E0;-1.913999915E0
3.397184219E1;1.268100023E0;-2.068500042E0;-1.828399897E0
3.399169531E1;7.333999872E-1;-1.976399899E0;7.403999567E-1
3.401154688E1;1.464800000E0;-1.288499951E0;1.432299972E0
3.403140000E1;1.603699923E0;-4.574999809E-1;-7.396000028E-1
3.405125312E1;1.453799963E0;-8.769999743E-1;-1.712999940E0
3.407110469E1;2.550799847E0;-1.673200011E0;1.177799940E0
3.409095781E1;2.750099897E0;-1.219900012E0;2.625299931E0
3.411081094E1;9.673999548E-1;5.685999990E-1;2.787899971E0
3.413066406E1;-4.547800064E0;1.919600010E0;1.262699962E0
3.415051563E1;-6.221799850E0;2.791899920E0;6.730999947E-1
3.417036875E1;-5.470799923E0;1.736400008E0;3.542000055E-1
3.419022188E1;-4.666800022E0;-9.749999642E-2;-1.130100012E0
3.421007344E1;-2.771899939E0;-1.366500020E0;-2.197200060E0
3.422992656E1;-1.281000018E0;-1.431699991E0;-1.345799923E0
3.424977969E1;-2.202999890E-1;-4.517000020E-1;3.334999979E-1
3.426963125E1;-2.121599913E0;2.975699902E0;1.680699944E0
3.428948438E1;-3.580399990E0;5.142899990E0;9.993000031E-1
3.430933750E1;-1.543999910E-1;1.959299922E0;-2.055599928E0
3.432918906E1;2.539999962E0;-3.452000022E-1;-7.232999802E-1
3.434904219E1;3.702399969E0;-1.276899934E0;1.533399940E0
3.436889531E1;4.623099804E0;-5.207999945E-1;2.324399948E0
3.438874688E1;4.429899693E0;5.590999722E-1;2.613199949E0
3.440860000E1;2.795099974E0;1.352800012E0;1.992299914E0
3.442845313E1;1.254599929E0;1.373499990E0;-1.950000040E-2
3.444830625E1;6.426999569E-1;2.502999902E-1;-3.746099949E0
3.446815781E1;4.389999807E-1;-1.038200021E0;-2.727499962E0
3.448801094E1;1.831000000E-1;-1.094099998E0;2.205499887E0
3.450786250E1;1.395299911E0;-3.576999903E-1;2.245999873E-1
3.452771562E1;1.842999935E0;8.756999969E-1;-6.164000034E-1
3.454756875E1;2.203399897E0;8.754000068E-1;2.909999788E-1
3.456742031E1;2.683099985E0;4.194999933E-1;-3.721999824E-1
3.458727344E1;2.739899874E0;1.168999970E-1;6.849999726E-2
3.460712656E1;2.842399836E0;3.315999806E-1;-3.007999957E-1
3.462697812E1;2.607399940E0;5.979999900E-1;-2.897999883E-1
3.464683125E1;2.300999880E0;9.897999763E-1;-1.234300017E0
3.466668438E1;4.602999985E-1;1.843899965E0;-9.914000034E-1
3.468653594E1;-8.646000028E-1;1.304600000E0;-5.279999971E-2
3.470638906E1;-2.413499832E0;-1.738199949E0;1.462000012E-1
3.472624219E1;-2.994400024E0;-3.993199825E0;9.957000017E-1
3.474609531E1;-3.275099993E0;-4.763000011E0;9.390999675E-1
3.476594688E1;-1.636199951E0;-2.183099985E0;3.355599880E0
3.478580000E1;-3.267099857E0;-5.263999701E-1;3.792299986E0
3.480565312E1;-6.433899879E0;-2.802000046E-1;4.662999809E-1
3.482550469E1;-7.779199600E0;-1.087800026E0;-3.043999910E0
3.484535781E1;-4.665499687E0;-1.306699991E0;-3.146600008E0
3.486521094E1;-4.285999835E-1;-4.263999760E-1;8.065999746E-1
3.488506406E1;1.161299944E0;-1.565999985E-1;1.350999951E0
3.490491562E1;1.072600007E0;-9.314999580E-1;-5.293999910E-1
3.492476875E1;7.962999940E-1;-1.645999908E0;-9.634999633E-1
3.494462188E1;1.109200001E0;-1.177500010E0;2.751999795E-1
3.496447344E1;2.088700056E0;-8.524000049E-1;3.977999985E-1
3.498432656E1;2.881899834E0;-8.373000026E-1;-1.005999967E-1
3.500417969E1;3.076799870E0;-9.613999724E-1;-8.817999959E-1
3.502403125E1;2.271800041E0;-1.208899975E0;-9.732999802E-1
3.504388438E1;1.751899958E0;-1.675899982E0;-8.490999937E-1
3.506373750E1;2.455999851E0;-1.988999963E0;-1.030200005E0
3.508358906E1;3.267099857E0;-2.381599903E0;-1.039899945E0
3.510344219E1;2.687399864E0;-3.198799849E0;-1.021499991E0
3.512329531E1;1.196499944E0;-3.671599865E0;-1.013199925E0
3.514314844E1;-2.258999944E-1;-3.651000023E0;-1.293399930E0
3.516300000E1;-7.653999925E-1;-3.504099846E0;-6.225999594E-1
3.518285312E1;-1.224900007E0;-3.093400002E0;-6.153999567E-1
3.520270625E1;-2.617999911E-1;-2.168599844E0;-1.413999915E0
3.522255781E1;-4.600000102E-3;-1.519199967E0;-2.085700035E0
3.524241094E1;4.492999911E-1;-1.491899967E0;-1.006600022E0
3.526226406E1;1.670999974E-1;-1.588599920E0;8.139999956E-2
3.528211562E1;-1.371999979E0;-1.297899961E0;2.832999825E-1
3.530196875E1;-2.001299858E0;-1.896999925E-1;4.429000020E-1
3.532182188E1;-3.808399916E0;-1.052899957E0;3.919999897E-1
3.534167500E1;-3.822399855E0;-2.658499956E0;7.815999985E-1
3.536152656E1;-3.668200016E0;-2.487299919E0;2.336199999E0
3.538137969E1;-3.094599962E0;-1.704199910E0;2.057800055E0
3.540123281E1;-3.833899975E0;-1.521999955E0;1.247499943E0
3.542108438E1;-3.960999966E0;-1.595199943E0;1.476499915E0
3.544093750E1;-1.991499901E0;-1.480199933E0;1.867699981E0
3.546079062E1;-9.866999984E-1;-1.454899907E0;1.956099987E0
3.548064375E1;-1.393399954E0;-7.915999889E-1;2.316400051E0
3.550049531E1;-5.831999779E-1;2.797999978E-1;1.805499911E0
3.552034688E1;9.866999984E-1;8.668999672E-1;4.870999753E-1
3.554020156E1;2.346499920E0;4.614999890E-1;1.411999911E-1
3.556005312E1;2.366099834E0;-5.518000126E-1;1.908199906E0
3.557990625E1;2.850699902E0;-7.519999743E-1;3.109699965E0
3.559975781E1;2.677700043E0;-2.186999917E-1;3.710500002E0
3.561961094E1;1.613099933E0;7.009999752E-1;3.036899805E0
3.563946406E1;8.123999834E-1;1.591499925E0;1.095099926E0
3.565931719E1;1.687299967E0;1.478399992E0;-3.720999956E-1
3.567916875E1;2.205299854E0;6.577999592E-1;-2.979999781E-1
3.569902031E1;1.995299935E0;-2.089999989E-2;-6.231999993E-1
3.571887500E1;-8.630000055E-2;-4.429999888E-1;-1.199000001E0
3.573872656E1;-2.161900043E0;-1.327999949E0;-3.103799820E0
3.575857969E1;-2.292500019E0;-3.469299793E0;-5.248899937E0
3.577843125E1;-7.222999930E-1;-3.012499809E0;-4.273799896E0
3.579828594E1;-5.185999870E-1;-8.470000029E-1;-2.843600035E0
3.581813750E1;-4.639999941E-2;9.268999696E-1;-3.697700024E0
3.583799062E1;-8.988999724E-1;1.397400022E0;-5.438199997E0
3.585784219E1;-2.345799923E0;1.360399961E0;-2.539799929E0
3.587769531E1;-4.444099903E0;8.280999660E-1;2.598299980E0
3.589754844E1;-2.793999910E0;2.940999866E-1;2.070400000E0
3.591740000E1;-8.342999816E-1;-9.167000055E-1;7.289999723E-1
3.593725313E1;6.250000000E-2;-1.477800012E0;1.378099918E0
3.595710625E1;1.362599969E0;-2.253599882E0;2.326499939E0
3.597695781E1;1.594699979E0;-4.317299843E0;5.125000000E0
3.599681250E1;1.190799952E0;-5.114899635E0;7.118099689E0
3.601666406E1;8.039000034E-1;-3.729099989E0;5.640599728E0
3.603651719E1;-3.288999796E-1;-1.473399997E0;3.190399885E0
3.605636875E1;-1.878999919E-1;5.059999824E-1;8.277999759E-1
3.607622188E1;5.800999999E-1;1.204399943E0;-6.074999571E-1
3.609607500E1;8.359000087E-1;1.573199987E0;-1.021899939E0
3.611592656E1;1.343899965E0;5.794000030E-1;-8.166999817E-1
3.613577969E1;1.136199951E0;-1.180599928E0;-3.443999887E-1
3.615563281E1;2.035999894E-1;-2.627199888E0;-2.039999887E-2
3.617548438E1;4.499999806E-2;-2.628499985E0;-6.079999804E-1
3.619533750E1;-9.409999847E-2;-1.748499990E0;-1.200600028E0
3.621519063E1;-7.846999764E-1;-1.266199946E0;-7.665999532E-1
3.623504375E1;-3.691999912E-1;-7.238000035E-1;-1.287000030E-1
3.625489531E1;7.163000107E-1;-5.266000032E-1;7.069999725E-2
3.627474844E1;1.411099911E0;-8.179000020E-1;3.197000027E-1
3.629460156E1;1.231999993E0;-1.132399917E0;4.618999958E-1
3.631445312E1;6.913999915E-1;-1.374799967E0;1.418000013E-1
3.633430625E1;6.247000098E-1;-1.325199962E0;-5.338000059E-1
3.635415938E1;9.831999540E-1;-1.401399970E0;-1.460600019E0
3.637401250E1;8.434000015E-1;-2.091899872E0;-1.799299955E0
3.639386406E1;3.194999993E-1;-2.812700033E0;-1.822699904E0
3.641371719E1;-1.015999988E-1;-2.698499918E0;-9.116999507E-1
3.643356875E1;-2.998999953E-1;-1.681599975E0;1.222999990E-1
3.645342188E1;-6.247999668E-1;-1.062299967E0;-3.899999894E-3
3.647327500E1;-1.232699990E0;-1.377200007E0;-8.394999504E-1
3.649312813E1;-1.321299911E0;-2.277699947E0;-1.702399969E0
3.651297969E1;-1.039499998E0;-3.278999805E0;-3.581699848E0
3.653283281E1;-8.891999722E-1;-3.957999945E0;-3.225099802E0
3.655268594E1;-1.698799968E0;-4.086699963E0;-1.065500021E0
3.657253750E1;-3.283099890E0;-3.227499962E0;7.473999858E-1
3.659239062E1;-3.009899855E0;-1.957299948E0;2.131599903E0
3.661224375E1;-1.452399969E0;-1.761000007E-1;2.228999853E0
3.663209688E1;8.161999583E-1;1.408199906E0;2.799499989E0
3.665194844E1;2.032799959E0;2.047299862E0;3.139699936E0
3.667180156E1;1.581499934E0;1.633700013E0;2.999099970E0
3.669165469E1;-6.552000046E-1;1.309199929E0;2.997999907E0
3.671150625E1;-1.560999990E0;1.412899971E0;2.691499949E0
3.673135938E1;-1.356099963E0;1.135399938E0;1.035200000E0
3.675121250E1;-5.284999609E-1;4.760999978E-1;1.507000029E-1
3.677106406E1;5.593999624E-1;-1.011999995E-1;-2.149999887E-1
3.679091719E1;1.109699965E0;-7.149999738E-1;4.003999829E-1
3.681077031E1;1.240100026E0;-1.462700009E0;9.742999673E-1
3.683062344E1;5.045999885E-1;-1.972899914E0;1.223299980E0
3.685047500E1;3.474999964E-1;-2.077699900E0;8.957999945E-1
3.687032812E1;6.306999922E-1;-1.544699907E0;1.168200016E0
3.689017969E1;9.357999563E-1;-2.579999901E-2;1.503399968E0
3.691003281E1;1.457700014E0;1.336399913E0;1.263700008E0
3.692988594E1;1.376999974E0;1.333400011E0;1.265299916E0
3.694973906E1;1.344499946E0;9.109999537E-1;1.178799987E0
3.696959062E1;1.428200006E0;6.399999559E-2;1.016399980E0
3.698944219E1;1.602399945E0;-4.764999747E-1;2.854999900E-1
3.700930312E1;1.986499906E0;-8.870999813E-1;1.268000007E-1
3.702914844E1;1.918399930E0;-5.751000047E-1;1.392199993E0
3.704900156E1;1.896899939E0;4.971999824E-1;2.017400026E0
3.706885469E1;1.338899970E0;1.124699950E0;1.641600013E0
3.708870625E1;9.844999909E-1;7.080999613E-1;2.624999881E-1
3.710855938E1;1.775900006E0;-4.734999835E-1;-8.125000000E-1
3.712841094E1;2.542099953E0;-1.295699954E0;3.528999984E-1
3.714826406E1;1.730599999E0;-9.790999889E-1;2.038499832E0
3.716811719E1;4.192999899E-1;8.100000024E-2;9.512999654E-1
3.718796875E1;2.622999847E-1;8.445999622E-1;-5.837000012E-1
3.720782188E1;1.209299922E0;5.483999848E-1;-1.320400000E0
3.722767500E1;1.943899989E0;-1.738999933E-1;-1.057399988E0
3.724752812E1;1.781299949E0;-7.574999928E-1;-9.290000051E-2
3.726737969E1;1.722999930E0;-6.974999905E-1;7.140000165E-2
3.728723281E1;1.596599936E0;1.840000041E-2;-5.457999706E-1
3.730708594E1;1.502499938E0;7.073000073E-1;-1.468799949E0
3.732693750E1;1.231699944E0;1.347199917E0;-1.836899996E0
3.734679063E1;1.668999940E-1;2.347800016E0;-1.179999948E0
3.736664375E1;1.711999923E-1;2.948999882E0;-3.631999791E-1
3.738649688E1;1.663800001E0;3.792999983E-1;-3.088999987E-1
3.740634844E1;2.098999918E-1;-2.654399872E0;7.885999680E-1
3.742620156E1;-9.565999508E-1;-4.314599991E0;2.047699928E0
3.744605469E1;-2.652799845E0;-3.704599857E0;5.251299858E0
3.746590625E1;-4.838599682E0;-1.277899981E0;6.375299931E0
3.748575938E1;-5.753599644E0;5.065000057E-1;3.626399994E0
3.750561250E1;-4.494499683E0;4.043999910E-1;-2.211999893E-1
3.752546406E1;-7.764999866E-1;-1.088999987E0;-2.640399933E0
3.754531719E1;-1.003000021E0;-1.083299994E0;-7.343999743E-1
3.756517031E1;-3.071199894E0;2.100999951E-1;2.306099892E0
3.758502344E1;-7.274000049E-1;5.601999760E-1;2.073400021E0
3.760487500E1;2.018100023E0;-3.243999779E-1;-1.345999986E-1
3.762472813E1;2.743299961E0;-9.408999681E-1;-1.192999959E0
3.764458125E1;2.409399986E0;-9.997999668E-1;-8.350999951E-1
3.766443281E1;2.810400009E0;-6.854000092E-1;-5.929999948E-1
3.768429375E1;3.395900011E0;-2.662999928E-1;-1.190400004E0
3.770414219E1;3.782199860E0;-2.924000025E-1;-2.202600002E0
3.772399062E1;2.865399837E0;-1.811999917E0;-2.150399923E0
3.774384375E1;1.362599969E0;-2.320600033E0;-6.649999619E-1
3.776369688E1;2.615000010E-1;-1.493399978E0;-2.645999789E-1
3.778355000E1;-1.162799954E0;-4.378999770E-1;-1.236999989E0
3.780340156E1;-1.377999932E-1;-6.060000062E-1;-1.457199931E0
3.782325469E1;2.235199928E0;-1.207000017E0;3.551000059E-1
3.784310781E1;2.334499836E0;-1.372499943E0;1.281299949E0
3.786295938E1;7.619999647E-1;-8.048999906E-1;1.397499919E0
3.788281250E1;-1.903800011E0;-5.049999803E-2;1.884799957E0
3.790266563E1;-4.236499786E0;8.001999855E-1;2.286599874E0
3.792251719E1;-5.782799721E0;1.545099974E0;1.483099937E0
3.794237031E1;-5.041299820E0;1.631099939E0;1.060400009E0
3.796222344E1;-3.879499912E0;-2.470999956E-1;9.044999480E-1
3.798207656E1;-4.074699879E0;-1.109699965E0;3.820999861E-1
3.800192812E1;-5.441999912E0;1.871999949E-1;3.885999918E-1
3.802178125E1;-3.784299850E0;2.109499931E0;-3.199999919E-3
3.804163438E1;1.229999959E-1;1.417899966E0;-1.045699954E0
3.806148594E1;3.507399797E0;3.928000033E-1;-3.736999929E-1
3.808133906E1;4.807799816E0;4.526000023E-1;1.360299945E0
3.810119219E1;3.871099949E0;6.324999928E-1;1.640100002E0
3.812104375E1;2.209599972E0;1.237000003E-1;6.937999725E-1
3.814089688E1;2.390599966E0;-9.499999881E-2;-1.137999967E-1
3.816075000E1;3.503299952E0;-5.799999926E-3;4.199000001E-1
3.818060313E1;3.556099892E0;2.615999877E-1;1.599900007E0
3.820045469E1;2.786200047E0;2.642000020E-1;2.500299931E0
3.822030781E1;1.734599948E0;1.520999968E-1;2.428299904E0
3.824015938E1;5.279999971E-1;-6.439999491E-2;1.891999990E-1
3.826001250E1;3.163999915E-1;-2.669999897E-1;-2.698299885E0
3.827986562E1;1.028999925E0;-2.428999990E-1;-3.874399900E0
3.829971875E1;1.837599993E0;-5.447999835E-1;-1.549499989E0
3.831957031E1;2.700500011E0;-9.276999831E-1;4.572999775E-1
3.833942344E1;1.750599980E0;-5.429999828E-1;1.728999913E-1
3.835927656E1;6.574999690E-1;6.631000042E-1;-1.622099996E0
3.837913125E1;-3.431999981E-1;2.122299910E0;-3.710199833E0
3.839898125E1;-6.893000007E-1;3.199800014E0;-3.922599792E0
3.841883281E1;-8.515999913E-1;1.339900017E0;-1.663100004E0
3.843868594E1;3.139999881E-2;-3.646999896E-1;-6.286999583E-1
3.845853906E1;5.880999565E-1;-1.675999999E0;-6.839999557E-1
3.847839844E1;-3.335999846E-1;-2.108599901E0;7.353999615E-1
3.849824531E1;-1.847700000E0;-1.512099981E0;2.414099932E0
3.851809688E1;-3.057499886E0;-1.574100018E0;3.422299862E0
3.853795000E1;-4.703899860E0;-5.655999780E-1;5.587500095E0
3.855780156E1;-2.523599863E0;2.832999825E-1;2.940699816E0
3.857765469E1;-3.592199802E0;-8.743999600E-1;-3.709000051E-1
3.859750781E1;-5.553999901E0;-3.152400017E0;-3.577999830E0
3.861735938E1;-3.831799984E0;-2.972199917E0;-1.905699968E0
3.863721250E1;-5.372999907E-1;-1.817099929E0;6.516000032E-1
3.865706562E1;8.163999915E-1;-7.714999914E-1;9.924999475E-1
3.867691719E1;1.505399942E0;-3.702999949E-1;4.490000010E-2
3.869677031E1;1.594200015E0;-5.799999833E-1;-9.109999537E-1
3.871662344E1;2.190700054E0;-7.805999517E-1;-1.094599962E0
3.873647656E1;2.707799911E0;-1.324199915E0;-2.240999937E-1
3.875632812E1;2.735299826E0;-1.470199943E0;3.492999971E-1
3.877618125E1;2.821199894E0;-8.834999800E-1;-2.843999863E-1
3.879603438E1;3.288399935E0;-7.548999786E-1;-6.487999558E-1
3.881588594E1;3.253299952E0;-8.794999719E-1;-9.244999886E-1
3.883573906E1;2.198099852E0;-1.192199945E0;-1.411499977E0
3.885559219E1;1.485199928E0;-1.990899920E0;-1.187199950E0
3.887544531E1;9.698999524E-1;-2.094300032E0;-8.014999628E-1
3.889529688E1;2.493999898E-1;-2.379400015E0;-1.857999921E0
3.891515000E1;-2.551999986E-1;-2.783999920E0;-2.153300047E0
3.893500312E1;-5.338000059E-1;-2.440599918E0;-6.452999711E-1
3.895485469E1;8.069999516E-2;-1.552399993E0;3.853999972E-1
3.897470781E1;7.202999592E-1;-5.475000143E-1;1.046000004E0
3.899456094E1;-2.847999930E-1;1.508999914E-1;2.342499971E0
3.901441250E1;-3.138700008E0;1.090099931E0;2.781899929E0
3.903426562E1;-5.176699638E0;2.490099907E0;2.552000046E0
3.905411875E1;-5.422499657E0;2.889999866E0;1.822999954E0
3.907397031E1;-3.000799894E0;1.117299914E0;1.621500015E0
3.909382344E1;-2.961499929E0;-7.091999650E-1;9.594999552E-1
3.911367656E1;-3.094599962E0;-1.656499982E0;-2.039999887E-2
3.913352969E1;1.100999936E-1;-1.401700020E0;-5.324000120E-1
3.915338125E1;3.032899857E0;-5.392999649E-1;-2.240999937E-1
3.917323438E1;2.709499836E0;3.700000001E-3;3.899999857E-1
3.919308750E1;4.865999818E-1;9.225999713E-1;6.735000014E-1
3.921293906E1;-1.844900012E0;1.752900004E0;-1.630000025E-2
3.923279219E1;-1.086599946E0;4.910000041E-2;-1.505699992E0
3.925264531E1;1.492999911E0;-5.388000011E-1;-1.060799956E0
3.927249688E1;2.352099895E0;-9.303999543E-1;6.100000143E-1
3.929235000E1;3.043499947E0;-1.275300026E0;1.207000017E0
3.931220312E1;3.812899828E0;-1.209100008E0;7.942999601E-1
3.933205625E1;4.206399918E0;-9.178999662E-1;3.184999824E-1
3.935190781E1;4.017499924E0;-3.439999819E-1;1.392000020E-1
3.937176094E1;3.478799820E0;5.762999654E-1;-7.640999556E-1
3.939161406E1;1.334100008E0;1.362100005E0;-3.288299799E0
3.941146563E1;9.680999517E-1;1.646999955E0;8.799999952E-2
3.943131875E1;1.961699963E0;1.515699983E0;1.757699966E0
3.945117188E1;1.952499986E0;4.524999857E-1;1.306999922E-1
3.947102344E1;7.971000075E-1;-2.368000001E-1;-8.588999510E-1
3.949087656E1;2.369999886E-1;4.176999927E-1;-2.894999981E0
3.951072969E1;-1.343400002E0;9.253000021E-1;-1.202999949E0
3.953058281E1;-5.717999935E-1;-1.026799917E0;-8.647999763E-1
3.955043438E1;4.316999912E-1;-2.869699955E0;8.263999820E-1
3.957028750E1;-1.850999892E-1;-3.139099836E0;2.800099850E0
3.959014063E1;-3.653199911E0;-2.841099977E0;4.531099796E0
3.960999219E1;-6.196499825E0;-1.144199967E0;5.961999893E0
3.962984531E1;-8.558400154E0;6.394999623E-1;3.338099957E0
3.964969688E1;-1.126579952E1;4.539999962E-1;-1.403299928E0
3.966955000E1;-3.563599825E0;-1.920199990E0;-3.698899984E0
3.968940313E1;8.852999806E-1;-2.439100027E0;5.270999670E-1
3.970925469E1;1.986999989E0;-1.688499928E0;2.152600050E0
3.972910781E1;-1.159999985E-2;-1.351999998E0;-2.213999927E-1
3.974896094E1;-1.228899956E0;-9.767999649E-1;-1.552999973E0
3.976881250E1;1.309499979E0;-9.817999601E-1;4.671999812E-1
3.978866562E1;3.063099861E0;-1.283100009E0;1.254799962E0
3.980851875E1;3.228899956E0;-1.355599999E0;8.833999634E-1
3.982837031E1;2.649399996E0;-1.162500024E0;-6.100999713E-1
3.984822344E1;2.283699989E0;-9.055999517E-1;-2.442399979E0
3.986807813E1;2.429199934E0;-1.350099921E0;-2.680199862E0
3.988792969E1;2.526700020E0;-1.786099911E0;-7.644000053E-1
3.990778125E1;2.621299982E0;-1.820999980E0;6.309999526E-2
3.992763438E1;1.549199939E0;-1.717399955E0;-1.049999967E-1
3.994748750E1;1.144699931E0;-1.359499931E0;-4.887000024E-1
3.996734063E1;1.102299929E0;-1.745599985E0;-8.593999743E-1
3.998719219E1;1.049799919E0;-2.174700022E0;-1.951399922E0
4.000704531E1;7.347999811E-1;-2.256399870E0;-1.148899913E0
4.002689844E1;6.445999742E-1;-1.907999992E0;-1.133999974E-1
4.004675000E1;4.820999801E-1;-1.446499944E0;-2.843699932E0
4.006660312E1;7.439999580E-1;-1.638199925E0;-1.458799958E0
4.008645625E1;1.466099977E0;-2.078099966E0;2.231299877E0
4.010630781E1;-3.930999935E-1;-1.267300010E0;3.397599936E0
4.012616094E1;-3.462499857E0;1.027899981E0;3.548399925E0
4.014601406E1;-4.573199749E0;3.200999975E0;6.787999868E-1
4.016586562E1;-4.072700024E0;3.144999981E0;3.799999878E-2
4.018571875E1;-3.560400009E0;1.185999990E0;1.199100018E0
4.020557188E1;-2.517499924E0;-9.475999475E-1;8.141999841E-1
4.022542500E1;-1.742399931E0;-1.763399959E0;-1.542999893E-1
4.024527656E1;-1.984599948E0;-8.436999917E-1;6.347999573E-1
4.026512969E1;-2.103899956E0;9.587000012E-1;1.038800001E0
4.028498281E1;-1.212199926E0;1.964100003E0;-4.059999809E-2
4.030483438E1;-1.752999902E0;9.547999501E-1;-8.840000033E-1
4.032468750E1;-3.271999955E-1;-6.301999688E-1;-8.416000009E-1
4.034454062E1;2.015599966E0;-1.278299928E0;-2.377000004E-1
4.036439219E1;3.186899900E0;-1.254999995E0;1.397400022E0
4.038424531E1;3.279899836E0;-1.501999944E-1;2.826099873E0
4.040409844E1;2.938799858E0;8.727999926E-1;2.902299881E0
