"Time (s)";"Gyroscope x (rad/s)";"Gyroscope y (rad/s)";"Gyroscope z (rad/s)"
1.010318800E-2;-2.427403927E-1;-8.474620581E-1;-3.726277873E-2
2.201412500E-2;-1.117883399E-1;-9.209229946E-1;-1.277581006E-1
3.392506300E-2;-3.193952516E-2;-9.709615707E-1;-1.426632106E-1
4.585787500E-2;-4.045673087E-2;-9.400866628E-1;-1.117883399E-1
5.774850000E-2;-1.096590385E-1;-9.251815677E-1;-4.897394031E-2
6.966100000E-2;-9.581857920E-2;-1.047616482E0;4.365068302E-2
8.157193800E-2;-1.107236892E-1;-1.517127395E0;1.437278688E-1
9.348287500E-2;-2.257059813E-1;-1.859945059E0;1.596976221E-1
1.054016250E-1;-4.120198786E-1;-2.048388243E0;7.239625603E-2
1.173063130E-1;-5.951398015E-1;-2.103749990E0;-3.193952609E-3
1.292188130E-1;-7.463202477E-1;-2.023901224E0;-2.044129670E-1
1.411297500E-1;-7.793244123E-1;-1.665113926E0;-3.683691919E-1
1.530406880E-1;-8.091346622E-1;-1.470282793E0;-4.077612758E-1
1.649531880E-1;-8.549146056E-1;-1.346783280E0;-2.970375717E-1
1.768641250E-1;-8.879188299E-1;-1.249900103E0;-1.213701963E-1
1.887766250E-1;-8.900480866E-1;-1.285033584E0;6.920230389E-2
2.006875630E-1;-8.879188299E-1;-1.468153477E0;1.575683206E-1
2.126078750E-1;-9.273108840E-1;-1.764126420E0;1.990897059E-1
2.245110000E-1;-1.063586235E0;-2.005802155E0;2.044129670E-1
2.364219380E-1;-1.455377698E0;-1.875914812E0;2.959729433E-1
2.483344380E-1;-1.856751084E0;-8.059406877E-1;6.100449562E-1
2.602485000E-1;-2.015383959E0;-2.693566680E-1;8.666257858E-1
2.721578750E-1;-1.911048293E0;-2.193180770E-1;9.997071624E-1
2.840688130E-1;-1.568230629E0;-1.000771821E-1;9.752201438E-1
2.959797500E-1;-1.057198286E0;2.182534188E-1;9.549918175E-1
3.078922500E-1;-5.600063205E-1;6.909583807E-1;7.420616150E-1
3.198156880E-1;-1.809906401E-2;1.040163875E0;5.163556337E-1
3.317188130E-1;6.302732825E-1;1.024194121E0;4.471533597E-1
3.436266250E-1;1.043357849E0;6.771179438E-1;3.534640670E-1
3.555391250E-1;1.048681021E0;-1.075297371E-1;2.533869147E-1
3.674500630E-1;5.525537729E-1;-7.548374534E-1;1.352106631E-1
3.793610000E-1;-1.863138974E-1;-5.195496082E-1;2.022836655E-1
3.912735000E-1;-9.656383395E-1;-1.224348471E-1;4.258603454E-1
4.031844380E-1;-1.639562249E0;-6.494370103E-2;4.237310290E-1
4.150969380E-1;-1.973862648E0;-1.596976258E-2;3.832743168E-1
4.270078750E-1;-1.909983635E0;-3.044901490E-1;3.438822329E-1
4.389281880E-1;-1.705570698E0;-9.645736814E-1;2.086715698E-1
4.508328750E-1;-1.622527838E0;-1.453248382E0;9.688322991E-2
4.627438130E-1;-1.806712508E0;-1.577812552E0;5.323254317E-2
4.746547500E-1;-2.084586382E0;-1.422373533E0;1.458571702E-1
4.865656880E-1;-2.307098389E0;-1.047616482E0;4.279896319E-1
4.984766250E-1;-2.386947155E0;-4.971919358E-1;6.387904882E-1
5.103891250E-1;-2.458278894E0;-5.536184460E-2;7.335444093E-1
5.223000630E-1;-2.551968098E0;1.309520602E-1;8.378801942E-1
5.342360000E-1;-2.724441528E0;2.981022373E-2;1.007159710E0
5.461250630E-1;-3.045966148E0;-9.901253134E-2;1.417050242E0
5.580422500E-1;-3.298288345E0;-3.449468613E-1;1.784354806E0
5.699485000E-1;-3.440951586E0;-7.505788207E-1;1.969604015E0
5.818594380E-1;-3.390913010E0;-1.126400590E0;1.889755249E0
5.937703750E-1;-3.163077593E0;-8.378801942E-1;1.718346477E0
6.056813130E-1;-2.764898300E0;3.012961745E-1;1.668307900E0
6.175938130E-1;-2.168693781E0;1.500092983E0;1.718346477E0
6.295047500E-1;-1.446860433E0;1.577812552E0;1.775837660E0
6.414219380E-1;-8.272337317E-1;1.457507014E0;1.918500781E0
6.533281880E-1;-2.278352827E-1;7.346090674E-1;2.021771908E0
6.652406880E-1;2.991668880E-1;9.049531817E-2;1.983444571E0
6.771516250E-1;6.984109282E-1;-2.768092155E-1;1.843975306E0
6.890625630E-1;1.115754128E0;-5.482951999E-1;1.611881375E0
7.009735000E-1;1.495834470E0;-5.951398015E-1;1.348912597E0
7.128860000E-1;1.867397547E0;-2.608394623E-1;1.075297356E0
7.247969380E-1;2.132495642E0;1.916371584E-1;8.996299505E-1
7.367297500E-1;2.278352737E0;4.886747301E-1;8.506560326E-1
7.486203750E-1;2.377365351E0;4.237310290E-1;8.314923048E-1
7.605391250E-1;2.471054554E0;-8.304276317E-2;7.111867666E-1
7.724438130E-1;2.525351763E0;-3.225892186E-1;5.184849501E-1
7.843547500E-1;2.534933567E0;-3.343003690E-1;3.779510558E-1
7.962656880E-1;2.480636358E0;-4.205370843E-1;3.704984784E-1
8.081781880E-1;2.171887636E0;-9.017592669E-1;3.225892186E-1
8.200906880E-1;1.005030394E0;-1.813100338E0;9.581857361E-3
8.320016250E-1;2.565808594E-1;-1.575683236E0;-9.581857920E-2
8.439125630E-1;-1.277581006E-1;-1.052939653E0;1.341460049E-1
8.558313130E-1;-1.682148278E-1;-1.011418343E0;4.865454435E-1
8.677360000E-1;-1.916371472E-2;-1.221154571E0;8.176518679E-1
8.796485000E-1;2.810678184E-1;-1.392563343E0;1.044422507E0
8.915656880E-1;5.993984342E-1;-1.510739565E0;1.186021090E0
9.034719380E-1;1.011418343E0;-1.231801033E0;1.166857362E0
9.153875630E-1;1.224348426E0;-9.816080928E-1;1.014612198E0
9.272938130E-1;1.195602894E0;-9.571211338E-1;7.676132321E-1
9.392063130E-1;8.943067193E-1;-9.560564756E-1;7.186393142E-1
9.511172500E-1;5.834286809E-1;-7.857123017E-1;8.751429915E-1
9.630297500E-1;3.907268643E-1;-7.527081370E-1;9.038885832E-1
9.749547500E-1;3.332357109E-1;-7.665486336E-1;9.368927479E-1
9.868531880E-1;4.109552205E-1;-6.302732825E-1;1.062521577E0
9.987641250E-1;4.790928662E-1;-3.811450005E-1;1.183891773E0
1.010679750E0;6.473076940E-1;-6.728593111E-1;1.240318179E0
1.022587563E0;8.825955391E-1;-1.078491330E0;1.240318179E0
1.034498500E0;1.008224368E0;-9.379574060E-1;1.310585141E0
1.046411000E0;9.443452954E-1;-7.250272036E-1;1.377658129E0
1.058321938E0;7.399323583E-1;-6.366612315E-1;1.523515344E0
1.070232875E0;5.557477474E-1;-5.589416623E-1;1.855686426E0
1.082145375E0;4.705756605E-1;-5.248728395E-1;2.108008623E0
1.094056313E0;4.737696350E-1;-8.432034850E-1;2.168693781E0
1.105968813E0;5.504244566E-1;-1.087008476E0;2.125043154E0
1.117879750E0;5.855579376E-1;-1.130659223E0;1.932341218E0
1.129790688E0;6.015277505E-1;-1.122141957E0;1.618269324E0
1.141703188E0;7.047988772E-1;-8.836601973E-1;1.504351616E0
1.153614125E0;7.867769599E-1;-7.154453397E-1;1.524580002E0
1.165525063E0;8.410741687E-1;-7.271565199E-1;1.508610249E0
1.177437563E0;8.634318113E-1;-8.527853489E-1;1.538420439E0
1.189348500E0;8.314923048E-1;-9.326341152E-1;1.520321369E0
1.201261000E0;7.771950960E-1;-1.108301520E0;1.311649799E0
1.213171938E0;7.197039723E-1;-1.151952267E0;1.216895938E0
1.225086000E0;6.174975038E-1;-9.922545552E-1;1.190279603E0
1.236995375E0;4.769635797E-1;-6.835058331E-1;1.147693634E0
1.248906313E0;4.077612758E-1;-4.599291682E-1;1.154081464E0
1.260818813E0;4.162784815E-1;-2.991668880E-1;1.204120159E0
1.272729750E0;4.716403186E-1;-3.854036033E-1;1.176439166E0
1.284640688E0;4.524766207E-1;-4.790928960E-2;9.603150487E-1
1.296553188E0;4.450240433E-1;-1.224348471E-1;8.240397573E-1
1.308465688E0;3.300417662E-1;-7.026695460E-2;7.952941656E-1
1.320376625E0;2.288999259E-1;-5.003859103E-2;8.581085801E-1
1.332287563E0;1.809906363E-1;-1.809906401E-2;9.933192134E-1
1.344200063E0;2.555162013E-1;-1.139176413E-1;1.182827115E0
1.356111000E0;4.716403186E-1;-2.640334070E-1;1.346783280E0
1.368023500E0;6.920230389E-1;-2.640334070E-1;1.292486072E0
1.379934438E0;7.633546591E-1;-2.076069117E-1;1.117883325E0
1.391846938E0;7.207686305E-1;-1.128529906E-1;1.085943818E0
1.403757875E0;5.962044597E-1;1.916371472E-2;1.146628976E0
1.415668813E0;5.429719090E-1;4.684463516E-2;1.219025254E0
1.427581313E0;6.047216654E-1;-1.213701963E-1;1.372334957E0
1.439493813E0;7.005402446E-1;-2.672273517E-1;1.566101432E0
1.451404750E0;7.271565199E-1;-2.757445574E-1;1.659790635E0
1.463315688E0;7.239625454E-1;-2.469989955E-1;1.598040938E0
1.475228188E0;7.335444093E-1;-2.480636388E-1;1.598040938E0
1.487139125E0;7.580313683E-1;-2.374171317E-1;1.611881375E0
1.499050063E0;7.654839754E-1;-2.267706245E-1;1.590588331E0
1.510964125E0;7.644193172E-1;-1.384046078E-1;1.527773976E0
1.522873500E0;7.612253428E-1;-4.045673087E-2;1.511804223E0
1.534786000E0;6.994755864E-1;1.522450745E-1;1.578877211E0
1.546696938E0;5.504244566E-1;2.608394623E-1;1.632109761E0
1.558607875E0;3.300417662E-1;3.577226698E-1;1.719411135E0
1.570520375E0;1.405339092E-1;4.279896319E-1;1.691730142E0
1.582431313E0;1.330813617E-1;4.567352235E-1;1.563972116E0
1.594343813E0;2.395464331E-1;4.450240433E-1;1.421308875E0
1.606254750E0;3.343003690E-1;3.651752472E-1;1.327619553E0
1.618167250E0;3.502701223E-1;1.490511149E-1;1.295680046E0
1.630078188E0;3.460115194E-1;-4.471533373E-2;1.312714458E0
1.641990688E0;3.417529166E-1;-1.362753063E-1;1.334007502E0
1.653901625E0;3.279124498E-1;-8.410741389E-2;1.347847939E0
1.665812563E0;2.981022298E-1;2.981022373E-2;1.314843774E0
1.677725063E0;3.225892186E-1;1.852492392E-1;1.253094077E0
1.689642250E0;4.482180178E-1;2.682920098E-1;1.302067995E0
1.701546938E0;6.547602415E-1;2.044129670E-1;1.398951173E0
1.713457875E0;9.624443650E-1;4.045673087E-2;1.479864717E0
1.725370375E0;1.249900103E0;-7.452555746E-2;1.534161806E0
1.737281313E0;1.326554894E0;-1.054004356E-1;1.507545590E0
1.749212563E0;1.212637305E0;-6.068509817E-2;1.421308875E0
1.761104750E0;1.039099216E0;1.064650808E-2;1.389369369E0
1.773017250E0;9.092118144E-1;-4.258603323E-3;1.410662413E0
1.784928188E0;9.028239250E-1;-1.149822921E-1;1.478800058E0
1.796840688E0;9.219876528E-1;-2.416757345E-1;1.538420439E0
1.808757875E0;9.219876528E-1;-3.598519862E-1;1.634239078E0
1.820664125E0;9.454099536E-1;-4.801575243E-1;1.761997104E0
1.832576625E0;9.784141183E-1;-6.206914186E-1;1.833328724E0
1.844487563E0;1.014612198E0;-7.718718648E-1;1.788613439E0
1.856398500E0;1.056133628E0;-8.698197603E-1;1.642756224E0
1.868329750E0;1.043357849E0;-7.612253428E-1;1.409597754E0
1.880221938E0;9.677675962E-1;-4.663170576E-1;1.162598729E0
1.892132875E0;7.995527983E-1;-9.262461960E-2;9.954485297E-1
1.904045375E0;6.111095548E-1;1.724734306E-1;9.358280897E-1
1.915956313E0;4.290542901E-1;2.406110913E-1;9.251815677E-1
1.927870375E0;3.289771080E-1;4.897394031E-2;9.603150487E-1
1.939779750E0;3.343003690E-1;-2.288999259E-1;1.062521577E0
1.951692250E0;4.365068376E-1;-5.546830893E-1;1.190279603E0
1.963604750E0;6.292086244E-1;-7.729365230E-1;1.244576812E0
1.975514125E0;9.017592669E-1;-8.804662228E-1;1.236059666E0
1.987426625E0;1.131723881E0;-8.389448524E-1;1.155146122E0
1.999337563E0;1.170051217E0;-7.399323583E-1;1.006095052E0
2.011250063E0;1.033775926E0;-6.270793676E-1;8.581085801E-1
2.023161000E0;8.570439219E-1;-4.897393882E-1;7.484495640E-1
2.035073500E0;7.122514248E-1;-2.523222566E-1;6.100449562E-1
2.046984438E0;5.812993646E-1;7.346090674E-2;6.281439662E-1
2.058895375E0;6.132388711E-1;5.962044746E-2;5.568124056E-1
2.070807875E0;7.921002507E-1;-9.262461960E-2;5.429719090E-1
2.082723500E0;9.390220642E-1;-3.385589719E-1;5.706528425E-1
2.094631313E0;9.911899567E-1;-5.685235262E-1;6.206914186E-1
2.106542250E0;9.390220642E-1;-6.717946529E-1;6.696653962E-1
2.118453188E0;7.963588238E-1;-7.431262732E-1;6.707300544E-1
2.130365688E0;5.951398015E-1;-7.122514248E-1;6.217560768E-1
2.142276625E0;4.375714958E-1;-6.132388711E-1;5.344547033E-1
2.154187563E0;3.513347805E-1;-5.312607884E-1;4.471533597E-1
2.166100063E0;3.630459309E-1;-4.812221825E-1;3.619812727E-1
2.178012563E0;4.748342633E-1;-3.971147537E-1;2.970375717E-1
2.189923500E0;5.962044597E-1;-3.523994386E-1;2.768092155E-1
2.201839125E0;6.803118587E-1;-4.162784815E-1;2.565808594E-1
2.213746938E0;6.866998076E-1;-6.451784372E-1;2.288999259E-1
2.225657875E0;5.514891148E-1;-8.453327417E-1;2.235766798E-1
2.237568813E0;3.353650272E-1;-9.411513209E-1;2.171887755E-1
2.249481313E0;7.133160532E-2;-8.133932352E-1;2.108008713E-1
2.261392250E0;-1.831199378E-1;-4.024380147E-1;1.618269235E-1
2.273304750E0;-2.640334070E-1;-4.471533373E-2;7.239625603E-2
2.285217250E0;-1.660855263E-1;1.607622802E-1;7.452555932E-3
2.297137563E0;0.000000000E0;2.672273517E-1;2.661627159E-2
2.309039125E0;2.150594741E-1;2.629687488E-1;5.962044746E-2
2.320950063E0;3.577226698E-1;1.916371584E-1;1.064650863E-1
2.332862563E0;4.343775511E-1;1.107236892E-1;1.863138974E-1
2.344773500E0;4.535412490E-1;4.365068302E-2;2.640334070E-1
2.356687563E0;4.375714958E-1;-1.916371472E-2;3.130073547E-1
2.368596938E0;3.992440701E-1;-3.193952516E-2;3.641105890E-1
2.380509438E0;3.492054641E-1;2.235766686E-2;4.609938264E-1
2.392420375E0;2.800031602E-1;2.448697016E-2;6.313379407E-1
2.404331313E0;2.565808594E-1;-4.258603230E-2;7.942295074E-1
2.416243813E0;2.789385319E-1;-1.511804163E-1;9.038885832E-1
2.428154750E0;3.151366413E-1;-2.395464331E-1;9.635090232E-1
2.440067250E0;3.609166443E-1;-2.278352827E-1;9.581857324E-1
2.451978188E0;3.949854672E-1;-1.746027321E-1;9.752201438E-1
2.463890688E0;4.088259339E-1;-1.788613349E-1;1.007159710E0
2.475801625E0;4.439594150E-1;-2.576455176E-1;9.358280897E-1
2.487715688E0;5.291314721E-1;-3.800803423E-1;7.846476436E-1
2.499625063E0;6.217560768E-1;-4.460887015E-1;6.686007380E-1
2.511536000E0;6.696653962E-1;-3.555933833E-1;6.206914186E-1
2.523448500E0;6.888290644E-1;-1.895078421E-1;6.590188742E-1
2.535359438E0;6.590188742E-1;-3.832742944E-2;8.581085801E-1
2.547270375E0;6.473076940E-1;2.342231758E-2;1.122141957E0
2.559181313E0;6.643421054E-1;-7.026695460E-2;1.414920926E0
2.571093813E0;6.717946529E-1;-2.949082851E-1;1.629980445E0
2.583004750E0;6.473076940E-1;-5.110324025E-1;1.741768718E0
2.594917250E0;6.025923491E-1;-6.505016685E-1;1.822682261E0
2.606828188E0;5.674588680E-1;-7.399323583E-1;1.843975306E0
2.618740688E0;5.972691178E-1;-7.984881401E-1;1.772643685E0
2.630651625E0;6.877644658E-1;-9.379574060E-1;1.571424603E0
2.642564125E0;7.527081370E-1;-1.035905242E0;1.262675881E0
2.654475063E0;7.750658393E-1;-9.784141183E-1;9.198583364E-1
2.666386000E0;7.612253428E-1;-8.027467132E-1;5.089030862E-1
2.678298500E0;7.282211781E-1;-5.472305417E-1;2.150594741E-1
2.690209438E0;6.973463297E-1;-3.289771080E-1;9.688322991E-2
2.702137563E0;6.015277505E-1;-2.629687488E-1;2.682920098E-1
2.714031313E0;4.098905623E-1;-3.960501254E-1;6.813765168E-1
2.725943813E0;2.225120217E-1;-7.324797511E-1;1.267999172E0
2.737856313E0;2.171887755E-1;-1.233930349E0;1.527773976E0
2.749767250E0;3.076840937E-1;-1.876979470E0;1.467088819E0
2.761684438E0;3.300417662E-1;-2.003672838E0;1.233930349E0
2.773590688E0;3.002315462E-1;-1.690665483E0;8.634318113E-1
2.785501625E0;1.969604045E-1;-1.162598729E0;4.609938264E-1
2.797414125E0;4.897394031E-2;-6.079156399E-1;1.554390192E-1
2.809326625E0;-1.203055456E-1;-5.248728395E-1;4.365068302E-2
2.821237563E0;-2.139948159E-1;-7.207686305E-1;1.043357849E-1
2.833159438E0;-3.002315462E-1;-6.973463297E-1;3.140719831E-1
2.845061000E0;-2.565808594E-1;-4.705756605E-1;5.855579376E-1
2.856971938E0;-2.555162013E-1;-3.832743168E-1;5.727821589E-1
2.868882875E0;-2.991668880E-1;-1.841845959E-1;6.238853931E-1
2.880795375E0;-2.810678184E-1;-1.234994978E-1;7.995527983E-1
2.892718813E0;-4.184077680E-1;-2.672273517E-1;1.164728045E0
2.904617250E0;-6.547602415E-1;-2.991668880E-1;1.573553920E0
2.916529750E0;-9.720262289E-1;-1.181762442E-1;1.884431958E0
2.928442250E0;-1.232865691E0;-9.049531817E-2;2.023901224E0
2.940353188E0;-1.246706128E0;-3.300417662E-1;1.870591521E0
2.952267250E0;-1.051874995E0;-6.643421054E-1;1.770514369E0
2.964176625E0;-7.729365230E-1;-9.124057889E-1;1.669372559E0
2.976087563E0;-4.482180178E-1;-1.116818786E0;1.292486072E0
2.988000063E0;-2.555162013E-1;-1.320167065E0;1.165792704E0
2.999918813E0;-2.374171317E-1;-1.958957553E0;1.273322463E0
3.011831313E0;-3.098133802E-1;-2.613717794E0;1.325490236E0
3.023734438E0;-4.045673311E-1;-3.382395744E0;9.347634315E-1
3.035645375E0;-5.419072509E-1;-3.351520777E0;1.969604045E-1
3.047561000E0;-6.835058331E-1;-1.883367300E0;-2.959729433E-1
3.059468813E0;-7.867769599E-1;-5.482951999E-1;-5.312607884E-1
3.071379750E0;-6.877644658E-1;2.331585288E-1;-8.762076497E-1
3.083292250E0;-2.342231870E-1;2.363524884E-1;-1.184956431E0
3.095203188E0;2.927789688E-1;2.129301727E-1;-1.405339122E0
3.107115688E0;3.449468613E-1;4.354421794E-1;-1.648079515E0
3.119032875E0;-1.277581044E-2;6.984109282E-1;-1.740704179E0
3.130937563E0;-5.216789246E-1;9.411513209E-1;-1.771579027E0
3.142850063E0;-1.081685305E0;7.740011811E-1;-1.618269324E0
3.154761000E0;-1.455377698E0;6.143035293E-1;-1.146628976E0
3.166671938E0;-1.945117116E0;1.061456919E0;-5.632002950E-1
3.178590688E0;-2.275158882E0;1.637432933E0;-5.355193615E-1
3.190495375E0;-2.342231750E0;1.677889705E0;-7.878416181E-1
3.202406313E0;-2.241090059E0;1.067844748E0;-1.097655058E0
3.214318813E0;-2.204891920E0;8.325569630E-1;-1.445795894E0
3.226229750E0;-2.302839756E0;1.076362014E0;-1.631045103E0
3.238140688E0;-2.374171257E0;1.555454850E0;-1.557584167E0
3.250054750E0;-2.440179825E0;1.638497591E0;-1.591652989E0
3.261965688E0;-2.403981686E0;1.192408919E0;-1.692794800E0
3.273876625E0;-2.195310116E0;6.813765168E-1;-1.770514369E0
3.285787563E0;-1.969604015E0;-2.906496823E-1;-1.683212996E0
3.297704750E0;-1.917436123E0;-7.314151525E-1;-1.373399615E0
3.309612563E0;-1.754544616E0;-1.016741514E0;-7.026695609E-1
3.321528188E0;-1.409597754E0;-6.398551464E-1;-2.097362131E-1
3.333436000E0;-1.026323438E0;2.235766686E-2;2.416757345E-1
3.345346938E0;-7.771950960E-1;5.504244566E-1;1.249900103E0
3.357257875E0;-5.610709786E-1;3.162012994E-1;1.695988774E0
3.369170375E0;-7.984881103E-2;-5.099677444E-1;1.520321369E0
3.381081313E0;3.385589719E-1;-1.010353684E0;1.187085629E0
3.392993813E0;3.321710527E-1;-8.378801942E-1;1.479864717E0
3.404904750E0;1.203055456E-1;-6.228207350E-1;2.212344408E0
3.416823500E0;-2.874557301E-2;-5.291314721E-1;2.564743757E0
3.428736000E0;-9.155996889E-2;-7.399323583E-1;2.579648972E0
3.440646938E0;-1.362753063E-1;-1.190279603E0;2.450826168E0
3.452551625E0;-3.587873280E-1;-1.881237984E0;2.282611370E0
3.464462563E0;-4.418300986E-1;-1.584200501E0;2.322003365E0
3.476375063E0;-4.546059072E-1;-1.390434027E0;2.442309141E0
3.488286000E0;-2.448696941E-1;-1.358494520E0;2.743605137E0
3.500198500E0;-8.304276317E-2;-7.133160830E-1;2.525351763E0
3.512109438E0;5.429719388E-2;-3.396236300E-1;1.021000147E0
3.524020375E0;3.044901490E-1;-1.075297371E-1;1.189214945E0
3.535943813E0;6.696653962E-1;1.895078421E-1;1.246706128E0
3.547843813E0;8.889834285E-1;3.694338500E-1;7.974234819E-1
3.559756313E0;8.868541718E-1;6.185621619E-1;2.587101460E-1
3.571667250E0;8.155225515E-1;5.589416623E-1;-1.384046115E-2
3.583578188E0;6.324025989E-1;1.011418328E-1;9.901253134E-2
3.595490688E0;4.322482347E-1;-3.587873280E-1;3.247185051E-1
3.607401625E0;1.852492392E-1;-6.526309848E-1;4.822868407E-1
3.619312563E0;-7.771950960E-2;-6.920230389E-1;5.280668139E-1
3.631225063E0;9.368927032E-2;2.022836655E-1;1.777966917E-1
3.643136000E0;4.918686748E-1;4.599291682E-1;1.234994978E-1
3.655048500E0;6.228207350E-1;3.609166443E-1;1.064650863E-1
3.666959438E0;5.365840197E-1;2.342231758E-2;2.448697016E-2
3.678871938E0;4.748342633E-1;-3.736924529E-1;-1.384046115E-2
3.690782875E0;4.428947568E-1;-6.057863235E-1;8.304276317E-2
3.702693813E0;5.206142664E-1;-7.601606846E-1;4.003087282E-1
3.714606313E0;6.260147095E-1;-1.267999172E0;5.216789246E-1
3.726517250E0;5.983337760E-1;-1.345718622E0;5.482951999E-1
3.738429750E0;6.909583807E-1;-6.781826019E-1;4.535412490E-1
3.750340688E0;9.326341152E-1;1.277581044E-2;4.066966176E-1
3.762251625E0;1.368076324E0;4.801575243E-1;5.397779942E-1
3.774164125E0;1.585265160E0;1.245641485E-1;5.887519121E-1
3.786075063E0;1.395757198E0;-4.918686748E-1;3.502701223E-1
3.797987563E0;1.069974065E0;-9.720262289E-1;1.905725002E-1
3.809898500E0;7.409969568E-1;-8.676904440E-1;-7.452555932E-3
3.821811000E0;5.791700482E-1;-2.310292274E-1;-4.333128929E-1
3.833721938E0;5.003858805E-1;3.236538470E-1;-8.676904440E-1
3.845632875E0;3.779510558E-1;7.697425485E-1;-1.283968925E0
3.857543813E0;2.310292274E-1;1.314843774E0;-1.530967951E0
3.869456313E0;4.290542901E-1;1.890819907E0;-1.466024160E0
3.881368813E0;4.418300986E-1;2.056905508E0;-8.794015646E-1
3.893286000E0;2.640334070E-1;1.935535192E0;-4.098905623E-1
3.905190688E0;4.290542901E-1;1.223283768E0;-1.341460049E-1
3.917103188E0;6.984109282E-1;5.248728395E-1;8.197811246E-2
3.929015688E0;8.006174564E-1;7.133160532E-2;1.746027321E-1
3.940932875E0;7.750658393E-1;2.395464331E-1;2.874557376E-1
3.952840688E0;5.653296113E-1;8.293629885E-1;3.917915225E-1
3.964750063E0;3.523994386E-1;8.453327417E-1;1.596976221E-1
3.976661000E0;4.162784815E-1;8.165872097E-1;2.022836544E-2
3.988573500E0;7.101221085E-1;8.644964695E-1;1.703441292E-1
4.000484438E0;1.139176369E0;3.662398756E-1;5.163556337E-1
4.012395375E0;1.772643685E0;-5.781053901E-1;8.687551022E-1
4.024314125E0;2.070745945E0;-1.222219110E0;1.106172204E0
4.036218813E0;1.857815742E0;-8.027467132E-1;1.313779116E0
4.048129750E0;1.641691566E0;-1.174309850E0;1.491575837E0
4.060042250E0;1.374464273E0;-1.728992939E0;1.848233819E0
4.071953188E0;1.033775926E0;-2.214473724E0;2.435921192E0
4.083864125E0;6.196267605E-1;-2.715924263E0;2.813872099E0
4.095776625E0;3.257831633E-1;-2.960793972E0;3.023608446E0
4.107687563E0;4.780282378E-1;-3.009768009E0;3.065129757E0
4.119600063E0;9.006946087E-1;-2.845811605E0;2.861781359E0
4.131511000E0;1.072103381E0;-2.379494667E0;2.671208858E0
4.143423500E0;5.014505386E-1;-1.296744704E0;2.283676147E0
4.155334438E0;9.262461960E-2;-4.546059072E-1;1.934470534E0
4.167245375E0;2.225120217E-1;-3.619812727E-1;1.693859458E0
4.179157875E0;3.076840937E-1;-2.587101460E-1;1.260546565E0
4.191076625E0;2.725506127E-1;-7.771950960E-2;9.592503905E-1
4.202981313E0;1.639562249E-1;-1.490511186E-2;8.112639189E-1
4.214892250E0;-1.277581044E-2;2.874557301E-2;5.589416623E-1
4.226803188E0;-1.724734306E-1;2.438050359E-1;3.822096586E-1
4.238715688E0;-3.534640670E-1;4.013733566E-1;1.586329788E-1
4.250626625E0;-5.855579376E-1;5.642649531E-1;1.064650808E-2
4.262539125E0;-8.964360356E-1;6.025923491E-1;-3.513347730E-2
4.274450063E0;-8.900480866E-1;9.454099536E-1;2.970375717E-1
4.286362563E0;-6.771179438E-1;9.230522513E-1;8.197811246E-1
4.298273500E0;-9.794787765E-1;5.387133360E-1;9.954485297E-1
4.310189125E0;-1.314843774E0;7.207686305E-1;7.899709344E-1
4.322096938E0;-1.182827115E0;9.166643620E-1;3.928561509E-1
4.334007875E0;-7.665486336E-1;7.271565199E-1;1.746027321E-1
4.345918813E0;-6.079156399E-1;4.748342633E-1;1.213701963E-1
4.357831313E0;-8.719490170E-1;5.397779942E-1;1.394692659E-1
4.369746938E0;-1.104042888E0;6.707300544E-1;1.756673902E-1
4.381656313E0;-1.332942843E0;8.346862793E-1;2.469989955E-1
4.393567250E0;-1.493705153E0;1.043357849E0;4.854807854E-1
4.405478188E0;-1.667243242E0;1.443666577E0;9.443452954E-1
4.417390688E0;-1.824811578E0;1.809906483E0;1.439407945E0
4.429314125E0;-2.052646875E0;2.111202717E0;1.882302642E0
4.441212563E0;-2.166564465E0;2.248542547E0;2.011125326E0
4.453123500E0;-1.832264066E0;1.237124324E0;1.644885540E0
4.465036000E0;-1.097655058E0;1.735380888E-1;1.379787445E0
4.476946938E0;-2.650980651E-1;-3.619812727E-1;1.328684211E0
4.488861000E0;2.278352827E-1;-5.972691178E-1;1.448989749E0
4.500770375E0;6.121742129E-1;-6.866998076E-1;1.569295287E0
4.512682875E0;7.910355926E-1;-5.280668139E-1;1.788613439E0
4.524596938E0;7.335444093E-1;-1.927018017E-1;2.005802155E0
4.536506313E0;6.270793676E-1;-7.771950960E-2;2.193180799E0
4.548417250E0;5.610709786E-1;7.559020817E-2;2.462537289E0
4.560328188E0;6.749886274E-1;1.746027321E-1;2.621170282E0
4.572240688E0;8.964360356E-1;1.969604045E-1;2.669079542E0
4.584151625E0;1.172180533E0;1.543743759E-1;2.469990015E0
4.596064125E0;1.574618578E0;-4.333128929E-1;2.043065071E0
4.607975063E0;1.513933539E0;-8.187164664E-1;1.464959502E0
4.619886000E0;9.869313240E-1;-6.355965734E-1;9.145350456E-1
4.631796938E0;4.013733566E-1;-7.090574503E-1;5.930105448E-1
4.643709438E0;-1.085943878E-1;-1.162598729E0;4.439594150E-1
4.655621938E0;-5.951398015E-1;-1.706635356E0;4.109552205E-1
4.667534438E0;-8.570439219E-1;-2.097362041E0;4.428947568E-1
4.679443813E0;-9.241169095E-1;-2.515769958E0;5.674588680E-1
4.691356313E0;-5.717175007E-1;-2.639269352E0;9.368927479E-1
4.703267250E0;-4.152138233E-1;-2.147400856E0;1.352106571E0
4.715178188E0;-1.618269235E-1;-1.153016806E0;1.573553920E0
4.727107875E0;3.939208016E-2;-1.373399645E-1;1.456442356E0
4.739001625E0;2.150594741E-1;3.917915225E-1;7.686778903E-1
4.750914125E0;2.672273517E-1;5.919458866E-1;6.494370103E-2
4.762825063E0;1.234994978E-1;5.962044597E-1;-2.480636388E-1
4.774737563E0;-1.980250627E-1;4.684463739E-1;-2.895850241E-1
4.786648500E0;-3.470761776E-1;5.514891148E-1;-1.841845959E-1
4.798561000E0;-2.480636388E-1;1.206249356E0;1.149822921E-1
4.810471938E0;-8.091346174E-2;2.131430864E0;7.346090674E-2
4.822384438E0;2.044129670E-1;2.560485363E0;1.916371472E-2
4.834295375E0;4.780282378E-1;2.412498713E0;1.511804163E-1
4.846206313E0;4.066966176E-1;1.949375629E0;2.650980651E-1
4.858117250E0;1.373399645E-1;1.194538236E0;2.214473784E-1
4.870029750E0;-5.376486778E-1;2.895850241E-1;2.874557301E-2
4.881942250E0;-1.143435001E0;-2.885203660E-1;-1.394692659E-1
4.893853188E0;-1.562907457E0;-3.055547774E-1;-4.599291682E-1
4.905765688E0;-1.836522698E0;-1.384046078E-1;-7.473849058E-1
4.917676625E0;-1.631045103E0;5.323254038E-3;-8.687551022E-1
4.929587563E0;-1.097655058E0;6.281439960E-2;-9.177290201E-1
4.941500063E0;-6.313379407E-1;-1.234994978E-1;-8.698197603E-1
4.953411000E0;-2.363524884E-1;-1.788613349E-1;-1.007159710E0
4.965321938E0;-6.494370103E-2;2.959729433E-1;-1.521386027E0
4.977234438E0;-6.281439960E-2;6.111095548E-1;-2.139948130E0
4.989145375E0;-1.352106631E-1;9.379574060E-1;-2.735088110E0
5.001057875E0;-2.001543641E-1;6.089802980E-1;-3.181176662E0
5.012968813E0;-4.439594150E-1;6.717946529E-1;-3.216310263E0
5.024889125E0;-4.524766207E-1;5.908812284E-1;-2.930983782E0
5.036792250E0;-6.324025989E-1;4.450240433E-1;-2.174016953E0
5.048703188E0;-7.718718648E-1;7.984881103E-2;-1.478800058E0
5.060615688E0;-8.815308809E-1;-1.277581006E-1;-6.441137791E-1
5.072526625E0;-8.666257858E-1;-7.133160532E-2;-2.214473784E-1
5.084468813E0;-5.812993646E-1;-1.266934574E-1;7.133160532E-2
5.096350063E0;-1.543743759E-1;-5.110324174E-2;2.778738737E-1
5.108261000E0;2.352878302E-1;1.969604045E-1;4.056319594E-1
5.120171938E0;5.131617188E-1;5.067738295E-1;4.663170576E-1
5.132084438E0;5.930105448E-1;7.952941656E-1;4.684463739E-1
5.144003188E0;5.120970607E-1;9.411513209E-1;5.025151968E-1
5.155907875E0;4.311835766E-1;7.505788207E-1;5.312607884E-1
5.167818813E0;2.416757345E-1;3.343003690E-1;5.823640227E-1
5.179731313E0;5.429719388E-2;-2.129301615E-2;5.482951999E-1
5.191642250E0;7.878416032E-2;-2.438050359E-1;3.779510558E-1
5.203553188E0;2.512575984E-1;-5.120970607E-1;3.406882659E-2
5.215475063E0;5.344547033E-1;-5.195496082E-1;-2.704213262E-1
5.227376625E0;7.846476436E-1;-7.537727952E-1;-4.769635797E-1
5.239289125E0;8.719490170E-1;-8.261690736E-1;-5.110324025E-1
5.251200063E0;6.057863235E-1;-6.984109282E-1;-4.769635797E-1
5.263117250E0;3.332357109E-1;-5.355193615E-1;-4.631231129E-1
5.275023500E0;-2.448697016E-2;-3.087487519E-1;-3.311064243E-1
5.286936000E0;-5.993984342E-1;7.452555932E-3;1.565036774E-1
5.298846938E0;-8.879188299E-1;6.206914186E-1;6.270793676E-1
5.310757875E0;-6.313379407E-1;1.433019996E0;2.086715698E-1
5.322673500E0;-4.982565939E-1;1.724734306E0;-5.057091713E-1
5.334581313E0;-5.770407319E-1;1.501157641E0;-1.083814502E0
5.346493813E0;-8.804662228E-1;8.112639189E-1;-1.508610249E0
5.358404750E0;-1.033775926E0;-1.245641485E-1;-1.730057597E0
5.370329750E0;-7.537727952E-1;-9.603150487E-1;-1.459636331E0
5.382228188E0;-3.800803423E-1;-1.095525742E0;-6.707300544E-1
5.394140688E0;-2.619041204E-1;-5.376486778E-1;-3.023608327E-1
5.406057875E0;-4.897393882E-1;-5.003859103E-2;-5.227435827E-1
5.417962563E0;-7.984881401E-1;2.981022298E-1;-8.655611277E-1
5.429875063E0;-7.090574503E-1;7.601606846E-1;-8.623671532E-1
5.441789125E0;-3.417529166E-1;1.133853197E0;-7.750658393E-1
5.453696938E0;7.771950960E-2;1.311649799E0;-7.867769599E-1
5.465609438E0;2.416757345E-1;1.062521577E0;-7.665486336E-1
5.477520375E0;1.288227588E-1;6.813765168E-1;-5.642649531E-1
5.489432875E0;-1.022064835E-1;5.908812284E-1;-2.076069117E-1
5.501343813E0;-3.683691919E-1;2.544515431E-1;-1.107236892E-1
5.513256313E0;-4.439594150E-1;-4.577998519E-1;-7.825183868E-1
5.525167250E0;7.559020817E-2;-6.366612315E-1;-1.074232697E0
5.537095375E0;6.387905031E-2;-7.143807411E-1;-6.473076940E-1
5.548990688E0;-7.346090674E-2;-4.471533597E-1;-1.046551824E0
5.560906313E0;-2.129301662E-3;1.596976258E-2;-2.299645901E0
5.572812563E0;1.511804163E-1;5.397779942E-1;-4.109552383E0
5.584725063E0;1.234994978E-1;4.727049768E-1;-6.070639133E0
5.596636000E0;5.110324174E-2;3.130073547E-1;-6.611481667E0
5.608548500E0;3.811450005E-1;9.454099536E-1;-5.853450298E0
5.620459438E0;9.592503905E-1;1.233930349E0;-4.618455410E0
5.632371938E0;1.198796868E0;1.358494520E0;-2.725506067E0
5.644282875E0;1.135982394E0;8.527853489E-1;-1.370205641E0
5.656193813E0;8.357509375E-1;-9.262461960E-2;-8.857895136E-1
5.668106313E0;5.291314721E-1;-5.451012254E-1;-4.397007823E-1
5.680028188E0;5.898165703E-1;7.452555932E-3;-4.205370843E-1
5.691928188E0;8.410741687E-1;9.060178399E-1;-7.005402446E-1
5.703840688E0;9.496685266E-1;1.204120159E0;-9.390220642E-1
5.715751625E0;8.293629885E-1;6.419844627E-1;-1.401080489E0
5.727664125E0;6.696653962E-1;5.759761333E-1;-2.119719744E0
5.739581313E0;6.600835323E-1;8.900480866E-1;-2.637140036E0
5.751487563E0;6.068509817E-1;1.342524767E0;-2.846876383E0
5.763398500E0;4.705756605E-1;1.702376723E0;-2.576455116E0
5.775309438E0;4.354421794E-1;1.783290148E0;-2.557291269E0
5.787221938E0;4.961272776E-1;1.539485097E0;-2.676532269E0
5.799132875E0;6.292086244E-1;1.265869856E0;-2.610523939E0
5.811045375E0;9.816080928E-1;1.056133628E0;-2.494477034E0
5.822956313E0;1.345718622E0;1.003965735E0;-2.277288198E0
5.834868813E0;1.431955338E0;1.226477742E0;-2.136754274E0
5.846779750E0;1.121077299E0;1.413856268E0;-2.311357021E0
5.858695375E0;7.899709344E-1;1.464959502E0;-2.528545856E0
5.870603188E0;6.260147095E-1;1.713023186E0;-2.872427940E0
5.882515688E0;7.154453397E-1;1.838652015E0;-3.278059959E0
5.894426625E0;8.687551022E-1;1.821617603E0;-3.590002537E0
5.906339125E0;5.206142664E-1;1.955763578E0;-3.319581270E0
5.918250063E0;-2.438050359E-1;1.012483001E0;-2.666950464E0
5.930171938E0;-2.320938855E-1;-2.193180770E-1;-1.936599851E0
5.942073500E0;-2.959729433E-1;-8.187164664E-1;-1.470282793E0
5.953984438E0;-4.375714958E-1;-7.761304379E-1;-1.337201476E0
5.965896938E0;-5.887519121E-1;-6.260147095E-1;-1.181762457E0
5.977807875E0;-5.695881844E-1;-2.118655145E-1;-1.123206615E0
5.989721938E0;-5.589416623E-1;-3.726277873E-2;-1.179633141E0
6.001629750E0;-5.972691178E-1;-1.384046115E-2;-1.132788539E0
6.013542250E0;-5.461658835E-1;1.905725002E-1;-7.782597542E-1
6.025453188E0;-3.108780384E-1;8.485267162E-1;-5.142263770E-1
6.037365688E0;-8.091346174E-2;1.005030394E0;-9.368927032E-2
6.049276625E0;3.939208016E-2;7.026695609E-1;1.032711342E-1
6.061187563E0;1.181762442E-1;4.024380147E-1;1.756673902E-1
6.073100063E0;1.575683206E-1;1.799259931E-1;2.203827202E-1
6.085012563E0;1.139176413E-1;-5.738468170E-1;6.334672570E-1
6.096923500E0;-5.003859103E-2;-1.496899128E0;8.921774030E-1
6.108834438E0;-1.277581044E-2;-2.412498713E0;1.286098242E0
6.120746938E0;3.087487519E-1;-2.752122402E0;1.912112951E0
6.132657875E0;4.748342633E-1;-1.802453876E0;2.819195509E0
6.144570375E0;4.908040464E-1;1.458571702E-1;3.509089231E0
6.156481313E0;3.683691919E-1;1.067844748E0;3.776316643E0
6.168395375E0;1.490511149E-1;1.189214945E0;3.988182068E0
6.180304750E0;-1.458571702E-1;7.771950960E-2;4.465145588E0
6.192215688E0;-5.099677444E-1;-1.480929375E0;5.037927628E0
6.204126625E0;-6.941523552E-1;-1.287162900E0;5.540442944E0
6.216057875E0;-6.962816715E-1;-7.654839754E-1;5.700140476E0
6.227950063E0;-4.162784815E-1;-1.038034558E0;3.644299746E0
6.239862563E0;-5.174202919E-1;-1.510739565E0;5.642649531E-1
6.251773500E0;-4.844161272E-1;-9.315694571E-1;-1.995155692E0
6.263684438E0;-5.802347064E-1;-7.633546591E-1;-3.285512447E0
6.275601625E0;-7.569667697E-1;-5.770407319E-1;-3.438822269E0
6.287509438E0;-1.002901077E0;-6.238853931E-1;-2.999121428E0
6.299420375E0;-9.869313240E-1;-8.889834285E-1;-3.186500072E0
6.311331313E0;-6.505016685E-1;-9.805434346E-1;-3.791221619E0
6.323243813E0;-2.927789688E-1;-8.080700040E-1;-3.740118504E0
6.335156313E0;-5.429719388E-2;-5.898165703E-1;-3.397300720E0
6.347067250E0;1.671501845E-1;-7.122514248E-1;-3.839130878E0
6.358978188E0;3.555933833E-1;-4.428947568E-1;-4.616325855E0
6.370890688E0;5.525537729E-1;-8.197811246E-2;-5.047509670E0
6.382801625E0;4.088259339E-1;1.852492392E-1;-3.846583366E0
6.394712563E0;-3.193952516E-2;-9.794788063E-2;-2.309227705E0
6.406625063E0;-3.864682615E-1;-4.407654405E-1;-1.107236862E0
6.418536000E0;-2.906496823E-1;-7.548374534E-1;-4.205370843E-1
6.430448500E0;1.660855263E-1;-1.023129463E0;-5.131617188E-1
6.442359438E0;3.907268643E-1;-1.270128489E0;-1.404274464E0
6.454276625E0;-1.054004356E-1;-1.557584167E0;-1.754544616E0
6.466182875E0;-9.028239250E-1;-1.713023186E0;-1.697053432E0
6.478093813E0;-1.285033584E0;-1.568230629E0;-1.566101432E0
6.490006313E0;-1.246706128E0;-1.622527838E0;-1.950440288E0
6.501917250E0;-1.085943818E0;-2.163370609E0;-2.336908579E0
6.513828188E0;-8.282983303E-1;-2.332649946E0;-2.660562515E0
6.525740688E0;-4.812221825E-1;-2.113332033E0;-2.840488434E0
6.537651625E0;-3.513347805E-1;-1.669372559E0;-2.747863770E0
6.549564125E0;-1.799259931E-1;-1.518192053E0;-2.616911650E0
6.561475063E0;-1.341460049E-1;-1.331878185E0;-2.337973356E0
6.573393813E0;-2.853264213E-1;-8.868541718E-1;-2.061164141E0
6.585298500E0;-6.664714217E-1;-2.139948159E-1;-1.602299571E0
6.597209438E0;-1.030582070E0;4.609938264E-1;-1.089137793E0
6.609121938E0;-1.012483001E0;4.876100719E-1;-6.856351495E-1
6.621031313E0;-1.018870831E0;4.790928662E-1;-6.324025989E-1
6.632943813E0;-8.794015646E-1;2.086715698E-1;-8.368155360E-1
6.644864125E0;-6.462430358E-1;0.000000000E0;-1.039099216E0
6.656767250E0;-5.749114752E-1;-1.075297371E-1;-1.117883325E0
6.668679750E0;-5.387133360E-1;-2.768092155E-1;-1.113624811E0
6.680590688E0;-5.557477474E-1;-3.119426966E-1;-1.055068970E0
6.692501625E0;-5.812993646E-1;-1.022064835E-1;-8.698197603E-1
6.704414125E0;-4.833514690E-1;1.501157731E-1;-6.803118587E-1
6.716325063E0;-2.214473784E-1;3.694338500E-1;-5.642649531E-1
6.728236000E0;9.581857361E-3;7.154453397E-1;-3.726277947E-1
6.740148500E0;3.257831633E-1;8.911127448E-1;6.281439960E-2
6.752062563E0;7.207686305E-1;1.003965735E0;7.505788207E-1
6.763971938E0;1.102978230E0;1.117883325E0;1.656596661E0
6.775882875E0;1.427696824E0;8.868541718E-1;2.793643713E0
6.787795375E0;1.447925091E0;6.866998076E-1;3.508024454E0
6.799706313E0;1.144499660E0;7.846476436E-1;4.432141304E0
6.811618813E0;8.634318113E-1;1.038034558E0;4.625907898E0
6.823529750E0;4.748342633E-1;1.544808388E0;3.822096586E0
6.835440688E0;2.469989955E-1;2.008996248E0;2.681855440E0
6.847351625E0;2.235766798E-1;2.053711414E0;2.769156933E0
6.859264125E0;2.544515431E-1;3.193952560E0;3.565515757E0
6.871175063E0;-6.494370103E-1;2.582842827E0;5.727821350E0
6.883087563E0;-6.025923491E-1;8.857895136E-1;7.346090794E0
6.894998500E0;7.324797511E-1;1.756673902E-1;6.368741512E0
6.906911000E0;1.842910647E0;5.344547033E-1;3.719890118E0
6.918821938E0;2.339037895E0;-1.213701963E-1;5.408426523E-1
6.930734438E0;1.974927306E0;-1.881237984E0;-1.553325534E0
6.942645375E0;3.012961745E-1;-3.210986853E0;-2.774480104E0
6.954556313E0;-1.178568482E0;-1.643820882E0;-2.973569870E0
6.966468813E0;-1.635303736E0;-3.694338500E-1;-3.405817986E0
6.978379750E0;-1.561842799E0;-9.262461960E-2;-4.285219669E0
6.990298500E0;-1.314843774E0;-3.162012994E-1;-4.718532562E0
7.002203188E0;-1.193473577E0;-4.184077680E-1;-4.822868347E0
7.014114125E0;-1.313779116E0;-4.758989215E-1;-4.855872631E0
7.026026625E0;-1.156210780E0;-5.035798550E-1;-4.536477089E0
7.037937563E0;-2.608394623E-1;-8.368155360E-1;-2.762768984E0
7.049857875E0;1.405339092E-1;-5.578770638E-1;-1.621463180E0
7.061761000E0;-1.394692659E-1;-2.736152709E-1;-1.307391286E0
7.073671938E0;-9.656383395E-1;9.368927032E-2;-1.454313040E0
7.085582875E0;-1.481993914E0;-3.396236300E-1;-1.471347451E0
7.097495375E0;-1.676825047E0;-6.930876970E-1;-1.160469413E0
7.109406313E0;-1.739639521E0;-1.094461083E0;-9.336987734E-1
7.121325063E0;-1.676825047E0;-9.155997038E-1;-9.230522513E-1
7.133229750E0;-1.431955338E0;-1.714087874E-1;-1.392563343E0
7.145142250E0;-1.244576812E0;4.120198786E-1;-1.616140008E0
7.157053188E0;-1.117883325E0;9.762848020E-1;-1.231801033E0
7.168965688E0;-1.082749963E0;1.046551824E0;-1.318037748E0
7.180876625E0;-9.869313240E-1;6.185621619E-1;-1.462830305E0
7.192787563E0;-8.123285770E-1;1.852492392E-1;-1.257352591E0
7.204700063E0;-5.504244566E-1;4.152138159E-2;-1.027388096E0
7.216612563E0;-4.428947568E-1;3.012961745E-1;-1.009289026E0
7.228525063E0;-3.875329196E-1;4.737696350E-1;-1.140241027E0
7.240434438E0;-5.067738295E-1;5.557477474E-1;-1.134917736E0
7.252346938E0;-7.154453397E-1;6.185621619E-1;-1.143435001E0
7.264257875E0;-1.025258780E0;7.612253428E-1;-1.217960596E0
7.276170375E0;-1.526709318E0;8.900480866E-1;-1.288227558E0
7.288081313E0;-1.725798965E0;6.185621619E-1;-1.259481907E0
7.299992250E0;-1.276516318E0;8.197811246E-2;-1.156210780E0
7.311904750E0;-8.644964695E-1;-8.517206460E-2;-8.623671532E-1
7.323817250E0;-5.131617188E-1;4.365068302E-2;-6.622128487E-1
7.335728188E0;-2.661627159E-2;2.810678184E-1;-4.865454435E-1
7.347639125E0;3.193952516E-2;4.844161272E-1;-6.174974889E-2
7.359551625E0;-1.767320335E-1;5.099677444E-1;3.949854672E-1
7.371462563E0;-1.916371584E-1;3.374943137E-1;7.314151525E-1
7.383375063E0;-1.927018017E-1;3.193952516E-2;8.783369660E-1
7.395286000E0;-3.864682615E-1;-4.109552205E-1;1.272257805E0
7.407200063E0;-4.961272776E-1;-6.025923491E-1;1.725798965E0
7.419109438E0;-7.952941656E-1;-1.129594564E0;2.330520630E0
7.431020375E0;-1.013547659E0;-1.400015831E0;2.715924263E0
7.442932875E0;-9.358280897E-1;-1.080620646E0;2.639269352E0
7.454843813E0;-5.131617188E-1;-6.920230389E-1;2.268770933E0
7.466776625E0;-1.384046115E-2;-4.290542901E-1;1.798195243E0
7.478667250E0;2.129301615E-2;-4.045673311E-1;1.364882350E0
7.490578188E0;-2.491282970E-1;-4.503473043E-1;1.374464273E0
7.502490688E0;-5.089030862E-1;-3.885975480E-1;1.756673932E0
7.514407875E0;-6.100449562E-1;-4.908040464E-1;1.565036774E0
7.526317250E0;2.235766686E-2;-3.311064243E-1;1.495834470E0
7.538225063E0;1.059327602E0;5.110324174E-2;1.933405876E0
7.550136000E0;1.532032609E0;6.079156399E-1;2.037741661E0
7.562048500E0;1.487317204E0;8.495913744E-1;1.757738590E0
7.573959438E0;1.234995008E0;9.017592669E-1;1.228607059E0
7.585871938E0;7.473849058E-1;5.089030862E-1;6.206914186E-1
7.597792250E0;1.501157731E-1;7.026695460E-2;1.032711342E-1
7.609693813E0;-1.277581006E-1;-3.343003690E-1;1.916371472E-2
7.621606313E0;6.387905218E-3;-7.175746560E-1;-4.365068302E-2
7.633517250E0;3.641105890E-1;-8.453327417E-1;-2.246413231E-1
7.645429750E0;7.111867666E-1;-7.718718648E-1;-2.650980651E-1
7.657340688E0;9.060178399E-1;-4.290542901E-1;-1.054004356E-1
7.669251625E0;9.060178399E-1;-1.469218135E-1;-2.129301662E-3
7.681164125E0;7.825183868E-1;-5.323254317E-2;-3.406882659E-2
7.693075063E0;7.058635354E-1;-8.943066746E-2;6.387905218E-3
7.704987563E0;7.260918617E-1;-2.406110913E-1;6.387905031E-2
7.716898500E0;8.581085801E-1;-3.960501254E-1;1.394692659E-1
7.728809438E0;1.059327602E0;-4.258603454E-1;2.118655145E-1
7.740721938E0;1.279710293E0;-3.587873280E-1;2.693566680E-1
7.752632875E0;1.367011666E0;-2.480636388E-1;2.991668880E-1
7.764543813E0;1.343589306E0;-1.288227588E-1;3.428175747E-1
7.776456313E0;1.213701963E0;-1.384046115E-2;3.949854672E-1
7.788368813E0;9.848020077E-1;3.726277873E-2;5.493598580E-1
7.800279750E0;7.218332887E-1;-7.346090674E-2;6.728593111E-1
7.812192250E0;5.142263770E-1;-2.501929402E-1;7.228979468E-1
7.824109438E0;4.822868407E-1;-2.512575984E-1;6.760532856E-1
7.836014125E0;3.268478215E-1;-1.054004356E-1;4.748342633E-1
7.847926625E0;-6.749886274E-1;8.389448524E-1;3.641105890E-1
7.859837563E0;-5.749114752E-1;2.576455176E-1;2.299645841E-1
7.871750063E0;-4.854807854E-1;-4.045673087E-2;2.427403927E-1
7.883661000E0;-1.437278688E-1;-3.992440701E-1;2.288999259E-1
7.895571938E0;-6.813765317E-2;-6.025923491E-1;2.789385319E-1
7.907484438E0;-2.022836655E-1;-4.673817158E-1;2.693566680E-1
7.919395375E0;-3.087487519E-1;-5.749114752E-1;2.150594741E-1
7.931307875E0;-3.183306158E-1;-6.909583807E-1;4.152138159E-2
7.943220375E0;-3.545287251E-1;-7.771950960E-1;-1.490511186E-2
7.955131313E0;-4.056319594E-1;-7.569667697E-1;-7.239625603E-2
7.967042250E0;-4.460887015E-1;-6.888290644E-1;-1.479864717E-1
7.978953188E0;-5.834286809E-1;-5.898165703E-1;-1.852492392E-1
7.990865688E0;-4.077612758E-1;-4.886747301E-1;-1.245641485E-1
8.002776625E0;-7.665485889E-2;-3.555933833E-1;-7.133160532E-2
8.014689125E0;2.714859545E-1;-2.288999259E-1;-7.452555932E-3
8.026600063E0;4.716403186E-1;-7.026695460E-2;7.665485889E-2
8.038511000E0;5.163556337E-1;2.033483088E-1;2.033483088E-1
8.050423500E0;7.633546591E-1;3.183306158E-1;1.809906363E-1
8.062340688E0;7.665486336E-1;2.895850241E-1;1.352106631E-1
8.074246938E0;3.119426966E-1;3.087487519E-1;1.054004356E-1
8.086157875E0;-6.281439960E-2;3.704984784E-1;-2.661627159E-2
8.098068813E0;-2.086715698E-1;4.567352235E-1;-1.160469428E-1
8.109981313E0;-1.213701963E-1;3.875329196E-1;-1.958957613E-1
8.121892250E0;4.577998444E-2;1.905725002E-1;-2.512575984E-1
8.133804750E0;6.813765317E-2;-4.897394031E-2;-1.022064835E-1
8.145715688E0;1.224348471E-1;-4.684463739E-1;-5.323254317E-2
8.157626625E0;1.639562249E-1;-6.739239693E-1;-1.022064835E-1
8.169537563E0;2.672273517E-1;-6.973463297E-1;-2.555162013E-1
8.181450063E0;2.959729433E-1;-4.918686748E-1;-3.279124498E-1
8.193362563E0;2.374171317E-1;-2.682920098E-1;-3.694338500E-1
8.205273500E0;1.426632106E-1;-1.511804163E-1;-2.501929402E-1
8.217184438E0;1.469218135E-1;-1.895078421E-1;-8.091346174E-2
8.229096938E0;1.149822921E-1;-6.387905031E-2;8.304276317E-2
8.241007875E0;1.085943878E-1;1.362753063E-1;1.969604045E-1
8.252920375E0;1.788613349E-1;2.927789688E-1;2.555162013E-1
8.264829750E0;2.821324766E-1;4.397007823E-1;2.725506127E-1
8.276743813E0;2.853264213E-1;4.035026729E-1;1.841845959E-1
8.288654750E0;2.150594741E-1;1.107236892E-1;-1.596976258E-2
8.300565688E0;2.629687488E-1;-2.831971347E-1;-3.619812801E-2
8.312478188E0;3.630459309E-1;-6.994755864E-1;2.129301615E-2
8.324389125E0;4.556705654E-1;-1.118947983E0;8.091346174E-2
8.336307875E0;4.609938264E-1;-1.105107546E0;1.426632106E-1
8.348212563E0;4.865454435E-1;-7.974234819E-1;1.873785406E-1
8.360125063E0;5.227435827E-1;-3.832743168E-1;2.714859545E-1
8.372036000E0;5.536184311E-1;-5.749114603E-2;3.098133802E-1
8.383948500E0;4.056319594E-1;3.619812801E-2;1.884431988E-1
8.395859438E0;2.395464331E-1;2.555162087E-2;5.855579674E-2
8.407770375E0;2.629687488E-1;-1.692794859E-1;-7.771950960E-2
8.419682875E0;2.129301727E-1;-3.279124498E-1;-1.575683206E-1
8.431593813E0;-7.239625603E-2;-2.097362131E-1;-4.439594150E-1
8.443506313E0;-4.066966176E-1;7.452555932E-3;-5.919458866E-1
8.455417250E0;-4.844161272E-1;-1.277581006E-1;-5.120970607E-1
8.467329750E0;-3.087487519E-1;-5.493598580E-1;-5.514891148E-1
8.479240688E0;-4.758989215E-1;-3.790156841E-1;-8.623671532E-2
8.491151625E0;-1.373399645E-1;-2.225120217E-1;1.522450745E-1
8.503062563E0;2.895850241E-1;-7.133160532E-2;1.586329788E-1
8.514975063E0;5.046445131E-1;-1.809906401E-2;7.026695460E-2
8.526887563E0;5.003858805E-1;1.426632106E-1;-5.110324174E-2
8.538798500E0;3.811450005E-1;2.714859545E-1;-1.256287992E-1
8.550711000E0;2.086715698E-1;4.780282378E-1;-7.654839754E-1
8.562621938E0;1.799259931E-1;1.990897059E-1;-1.528838634E0
8.574532875E0;7.559020817E-2;8.463973999E-1;-2.195310116E0
8.586445375E0;4.790928960E-2;5.482951999E-1;-1.858880401E0
8.598370375E0;-7.878416032E-2;7.090574503E-1;-1.461765647E0
8.610267250E0;-3.225892186E-1;9.752201438E-1;-1.392563343E0
8.622179750E0;-6.036570072E-1;1.154081464E0;-1.207314014E0
8.634090688E0;-7.346090674E-1;1.075297356E0;-1.179633141E0
8.646003188E0;-6.824411750E-1;4.003087282E-1;-1.189214945E0
8.657914125E0;-4.695110321E-1;-4.152138233E-1;-1.171115875E0
8.669825063E0;8.943066746E-2;-1.112560153E0;-1.102978230E0
8.681737563E0;6.164328456E-1;-1.247770786E0;-9.102764726E-1
8.693646938E0;7.931648493E-1;-8.921774030E-1;-9.262462258E-1
8.705559438E0;9.443452954E-1;-9.901252985E-1;-8.506560326E-1
8.717476625E0;1.033775926E0;-1.468153477E0;-6.930876970E-1
8.729382875E0;8.559792638E-1;-1.805647850E0;-9.198583364E-1
8.741295375E0;7.569667697E-1;-2.073939800E0;-5.110324025E-1
8.753206313E0;6.590188742E-1;-2.081392288E0;-3.726277873E-2
8.765117250E0;5.195496082E-1;-1.325490236E0;3.630459309E-1
8.777029750E0;3.545287251E-1;-5.355193615E-1;5.461658835E-1
8.788940688E0;1.405339092E-1;-7.133160532E-2;5.578770638E-1
8.800853188E0;9.155996889E-2;-2.831971347E-1;4.098905623E-1
8.812764125E0;1.447925121E-1;-7.452555895E-1;5.429719388E-2
8.824676625E0;3.300417587E-2;-8.101992607E-1;-4.035026729E-1
8.836593813E0;-1.394692659E-1;-5.685235262E-1;-8.698197603E-1
8.848503188E0;-2.384817898E-1;-5.355193615E-1;-9.539271593E-1
8.860411000E0;-4.162784815E-1;-3.353650272E-1;-8.378801942E-1
8.872323500E0;-5.557477474E-1;9.581857920E-2;-8.133932352E-1
8.884234438E0;-4.769635797E-1;4.141491652E-1;-8.740783334E-1
8.896157875E0;-3.587873280E-1;5.951398015E-1;-7.388677001E-1
8.908061000E0;-3.396236300E-1;6.462430358E-1;-4.226663709E-1
8.919968813E0;-2.800031602E-1;6.419844627E-1;-3.630459309E-1
8.931881313E0;-1.320167035E-1;8.517206907E-1;-4.471533597E-1
8.943792250E0;-2.991668880E-1;1.045487165E0;-7.867769599E-1
8.955711000E0;-6.483723521E-1;9.922545552E-1;-9.102764726E-1
8.967615688E0;-8.442681432E-1;9.177290201E-1;-8.506560326E-1
8.979526625E0;-6.558248997E-1;7.111867666E-1;-7.846476436E-1
8.991439125E0;-1.905725002E-1;4.003087282E-1;-7.079927921E-1
9.003350063E0;3.875329196E-1;2.704213262E-1;-4.322482347E-1
9.015265688E0;6.962816715E-1;2.480636388E-1;-2.139948159E-1
9.027173500E0;7.207686305E-1;2.959729433E-1;2.448697016E-2
9.039084438E0;5.887519121E-1;6.473076940E-1;4.673817158E-1
9.050996938E0;7.963588238E-1;1.156210780E0;1.032711267E0
9.062907875E0;1.058262944E0;1.388304710E0;1.701312065E0
9.074818813E0;1.236059666E0;1.241382837E0;2.533869028E0
9.086731313E0;1.543743730E0;1.533097178E-1;2.919272661E0
9.098642250E0;1.883367300E0;-6.739239693E-1;2.698889971E0
9.110554750E0;1.760932446E0;-8.623671532E-1;2.873492718E0
9.122465688E0;1.233930349E0;-6.760532856E-1;3.190758467E0
9.134378188E0;9.209229946E-1;-8.336216211E-1;3.579356194E0
9.146293813E0;1.035905242E0;-1.080620646E0;2.917143345E0
9.158200063E0;1.041228533E0;-1.371270299E0;1.848233819E0
9.170112563E0;6.494370103E-1;-6.771179438E-1;6.036570072E-1
9.182023500E0;5.685235262E-1;3.002315462E-1;-1.905725002E-1
9.193934438E0;6.622128487E-1;7.133160830E-1;-4.205370843E-1
9.205846938E0;6.015277505E-1;1.305261970E0;-5.482951999E-1
9.217757875E0;6.866998076E-1;1.582071185E0;-3.236538470E-1
9.229679750E0;7.016049027E-1;1.443666577E0;-1.394692659E-1
9.241581313E0;3.204599023E-1;1.841845989E0;-2.959729433E-1
9.253492250E0;-2.384817898E-1;2.955470800E0;-4.758989215E-1
9.265404750E0;-7.197039723E-1;3.894492865E0;-5.184849501E-1
9.277317250E0;-1.494769812E0;3.276995182E0;-6.366612315E-1
9.289228188E0;-2.623299599E0;2.844747066E0;-8.623671532E-1
9.301140688E0;-3.562321663E0;2.356072426E0;-9.283755422E-1
9.313053188E0;-3.806126833E0;1.771579027E0;-1.467088819E0
9.324962563E0;-3.592131853E0;5.855579376E-1;-2.066487312E0
9.336873500E0;-2.628623009E0;-1.954698920E0;-2.545580149E0
9.348786000E0;-1.126400590E0;-2.416757345E0;-2.768092155E0
9.360698500E0;-1.990897059E-1;-7.516434789E-1;-3.009768009E0
9.372618813E0;-3.768863976E-1;-1.618269324E0;-3.134332180E0
9.384520375E0;-4.162784815E-1;-1.473476768E0;-2.976763725E0
9.396432875E0;-5.120970607E-1;-1.116818786E0;-2.631816864E0
9.408343813E0;-8.943066746E-2;-7.228979468E-1;-2.752122402E0
9.420256313E0;3.822096586E-1;-8.474620581E-1;-3.398365498E0
9.432167250E0;1.852492392E-1;-9.773494601E-1;-3.960501194E0
9.444078188E0;-1.107236892E-1;-1.378722787E0;-4.715338707E0
9.455989125E0;-1.639562249E-1;-1.723669767E0;-4.979372025E0
9.467901625E0;-1.916371472E-2;-8.059406877E-1;-4.471533298E0
9.479812563E0;-3.949854672E-1;-6.270793676E-1;-3.266348839E0
9.491743813E0;-3.843389452E-1;-2.129301615E-2;-1.609752059E0
9.503636000E0;9.198583364E-1;3.513347730E-2;3.747570813E-1
9.515548500E0;2.247478008E0;2.619041204E-1;1.049745679E0
9.527459438E0;2.874557257E0;6.994755864E-1;1.064650893E0
9.539371938E0;2.349684477E0;8.091346622E-1;6.047216654E-1
9.551287563E0;1.167922020E0;9.730908871E-1;4.354421794E-1
9.563193813E0;3.694338500E-1;7.676132321E-1;5.163556337E-1
9.575106313E0;2.682920098E-1;5.770407319E-1;9.965131879E-1
9.587017250E0;1.575683206E-1;6.792472601E-1;1.700247407E0
9.598928188E0;-3.087487444E-2;1.055068970E0;2.004737616E0
9.610843813E0;1.011418328E-1;1.051874995E0;1.927018046E0
9.622754750E0;4.354421794E-1;7.250272036E-1;1.511804223E0
9.634664125E0;5.610709786E-1;3.736924529E-1;1.075297356E0
9.646575063E0;4.460887015E-1;4.939979911E-1;7.367383838E-1
9.658487563E0;7.058635354E-1;4.737696350E-1;5.440365672E-1
9.670404750E0;9.869313240E-1;2.714859545E-1;6.302732825E-1
9.682311000E0;1.211572647E0;7.026695460E-2;8.070053458E-1
9.694220375E0;1.331878185E0;1.671501845E-1;7.995527983E-1
9.706132875E0;1.377658129E0;3.822096586E-1;7.399323583E-1
9.718045375E0;1.209443331E0;5.429719090E-1;3.023608327E-1
9.729956313E0;9.603150487E-1;5.695881844E-1;4.258603230E-2
9.741867250E0;7.133160830E-1;6.206914186E-1;-8.197811246E-2
9.753779750E0;4.524766207E-1;8.325569630E-1;-2.001543641E-1
9.765690688E0;2.044129670E-1;8.921774030E-1;-4.386361539E-1
9.777603188E0;5.962044746E-2;7.016049027E-1;-5.812993646E-1
9.789518813E0;-9.794788063E-2;7.378030419E-1;-8.101992607E-1
9.801426625E0;-2.778738737E-1;7.016049027E-1;-1.137047052E0
9.813337563E0;-7.101221085E-1;1.221154571E0;-1.154081464E0
9.825250063E0;-1.216895938E0;1.692794800E0;-1.069974065E0
9.837161000E0;-1.390434027E0;1.150887609E0;-7.580313683E-1
9.849089125E0;-1.244576812E0;-3.140719831E-1;-6.025923491E-1
9.860984438E0;-1.012483001E0;-1.221154571E0;-6.419844627E-1
9.872896938E0;-8.463973999E-1;-9.049532413E-1;-8.261690736E-1
9.884807875E0;-6.728593111E-1;6.707300246E-2;-1.018870831E0
9.896720375E0;-2.938436270E-1;1.082749963E0;-1.002901077E0
9.908631313E0;2.480636388E-1;1.411727071E0;-6.196267605E-1
9.920542250E0;7.644193172E-1;7.761304379E-1;-1.692794859E-1
9.932454750E0;1.078491330E0;2.044129670E-1;-1.075297371E-1
9.944365688E0;1.357429862E0;-3.523994386E-1;-2.736152709E-1
9.956276625E0;1.543743730E0;-6.728593111E-1;-1.256287992E-1
9.968189125E0;4.333128929E-1;-2.608394623E-1;4.737696350E-1
9.980107875E0;-5.067738295E-1;-3.076840937E-1;4.184077680E-1
9.992011000E0;-9.241169095E-1;1.809906401E-2;5.184849501E-1
1.000392350E1;-9.858666658E-1;6.228207350E-1;6.984109282E-1
1.001583444E1;-6.749886274E-1;1.275451660E0;7.580313683E-1
1.002774850E1;-2.448696941E-1;1.872720838E0;6.217560768E-1
1.003965788E1;1.596976258E-2;1.867397547E0;5.142263770E-1
1.005156881E1;2.970375717E-1;9.709615707E-1;3.832743168E-1
1.006348131E1;4.695110321E-1;3.193952516E-2;3.992440701E-1
1.007539225E1;3.704984784E-1;-5.919458866E-1;2.044129670E-1
1.008730475E1;2.587101460E-1;-7.037342191E-1;-7.984881103E-2
1.009921569E1;1.554390192E-1;-9.017592669E-1;-1.895078421E-1
1.011112662E1;2.448697016E-2;-1.039099216E0;-1.820552945E-1
1.012303912E1;-6.920230389E-2;-8.442681432E-1;-3.023608327E-1
1.013495006E1;-1.554390192E-1;-7.207686305E-1;-3.832743168E-1
1.014686256E1;-1.618269235E-1;-8.165872097E-1;-4.013733566E-1
1.015877350E1;-6.387905031E-2;-8.144578934E-1;-4.599291682E-1
1.017068444E1;1.916371472E-2;-6.196267605E-1;-5.142263770E-1
1.018259694E1;2.555162087E-2;-3.864682615E-1;-5.206142664E-1
1.019450788E1;-6.494370103E-2;-1.384046078E-1;-5.206142664E-1
1.020642038E1;-2.374171317E-1;8.836601675E-2;-5.025151968E-1
1.021833131E1;-4.471533597E-1;3.523994386E-1;-3.949854672E-1
1.023024225E1;-5.749114752E-1;6.611481905E-1;-2.320938855E-1
1.024215475E1;-7.207686305E-1;5.025151968E-1;-5.323254038E-3
1.025406569E1;-8.208457828E-1;5.759761333E-1;-2.448697016E-2
1.026597819E1;-8.474620581E-1;-2.193180770E-1;-1.384046078E-1
1.027788913E1;-8.836601973E-1;-1.064650893E0;-2.161241174E-1
1.028980162E1;-6.920230389E-1;-7.186393142E-1;-2.501929402E-1
1.030171256E1;-4.418300986E-1;-1.000771761E0;-2.278352827E-1
1.031362506E1;-2.416757345E-1;-1.617204666E0;-2.661627233E-1
1.032553600E1;-1.895078421E-1;-2.153788567E0;-2.555162013E-1
1.033744694E1;-1.096590385E-1;-2.182534218E0;-1.447925121E-1
1.034935944E1;1.415985674E-1;-1.795001268E0;2.129301615E-2
1.036127038E1;2.757445574E-1;-1.407468438E0;9.581857920E-2
1.037318288E1;1.362753063E-1;-1.002901077E0;8.410741389E-2
1.038509538E1;-1.245641485E-1;-6.696653962E-1;3.406882659E-2
1.039700631E1;-2.650980651E-1;-5.067738295E-1;-5.323254317E-2
1.040891725E1;-3.034254909E-1;-3.151366413E-1;-1.096590385E-1
1.042082975E1;-3.353650272E-1;-7.665485889E-2;-1.777966917E-1
1.043274069E1;-4.247956872E-1;-5.110324174E-2;-1.948311031E-1
1.044465475E1;-3.066194355E-1;-5.759761333E-1;-2.278352827E-1
1.045656412E1;-3.034254909E-1;-9.336987734E-1;-2.555162013E-1
1.046847506E1;-5.557477474E-1;-1.459636331E0;-3.843389452E-1
1.048038600E1;-1.112560153E0;-3.187564611E0;-5.812993646E-1
1.049229850E1;-2.906496823E-1;-3.274865866E0;-3.247185051E-1
1.050422975E1;5.525537729E-1;-2.067551851E0;-1.469218135E-1
1.051612194E1;4.577998519E-1;-9.230522513E-1;-1.501157731E-1
1.052803288E1;-1.703441329E-2;-3.311064243E-1;-7.665485889E-2
1.053994538E1;-5.131617188E-1;3.651752472E-1;9.155996889E-2
1.055185631E1;-7.633546591E-1;9.219876528E-1;1.756673902E-1
1.056377350E1;-7.803890705E-1;9.102764726E-1;1.447925121E-1
1.057567975E1;-5.663942695E-1;2.544515431E-1;8.517206460E-2
1.058759069E1;-2.757445574E-1;-5.962044597E-1;2.555162087E-2
1.059950162E1;-5.216789246E-2;-1.389369369E0;-4.258603323E-3
1.061141413E1;-3.939208016E-2;-1.977056623E0;-5.749114603E-2
1.062332506E1;-6.813765317E-2;-2.148465395E0;-1.256287992E-1
1.063523756E1;-1.575683206E-1;-1.748156667E0;-5.642649531E-2
1.064714850E1;-2.512575984E-1;-9.209229946E-1;1.107236892E-1
1.065905944E1;-3.396236300E-1;-3.492054641E-1;1.075297371E-1
1.067097194E1;-1.203055456E-1;5.557477474E-1;1.277581006E-1
1.068288912E1;-3.364296556E-1;1.128529906E-1;-6.387905218E-3
1.069479538E1;-3.215245605E-1;-9.581857920E-2;-8.197811246E-2
1.070670631E1;-2.597748041E-1;-7.559020817E-2;-8.943066746E-2
1.071861881E1;-2.725506127E-1;-1.575683206E-1;-3.939208016E-2
1.073052975E1;-2.842617631E-1;-2.438050359E-1;-1.160469428E-1
1.074244850E1;-2.725506127E-1;-1.841845959E-1;-1.447925121E-1
1.075435319E1;-2.278352827E-1;-5.536184460E-2;-1.330813617E-1
1.076626413E1;-1.490511149E-1;1.405339092E-1;-1.160469428E-1
1.077817662E1;-7.133160532E-2;2.927789688E-1;-1.277581006E-1
1.079008756E1;5.855579674E-2;4.066966176E-1;-1.234994978E-1
1.080200006E1;1.043357849E-1;5.312607884E-1;-1.022064835E-1
1.081391100E1;1.479864717E-1;6.717946529E-1;-1.160469428E-1
1.082582194E1;2.257059813E-1;8.474620581E-1;-1.149822921E-1
1.083773444E1;2.448696941E-1;9.603150487E-1;-1.149822921E-1
1.084964538E1;7.239625603E-2;7.921002507E-1;-9.901253134E-2
1.086155788E1;-2.129301615E-2;7.346090674E-1;-8.730136603E-2
1.087346881E1;4.258603323E-3;7.292858362E-1;-1.309520602E-1
1.088538131E1;1.032711342E-1;9.081471562E-1;8.410741389E-2
1.089729225E1;4.524766207E-1;9.124057889E-1;2.768092230E-2
1.090920475E1;8.304276466E-1;6.164328456E-1;-9.581857920E-2
1.092111881E1;9.954485297E-1;2.800031602E-1;-1.256287992E-1
1.093302662E1;6.973463297E-1;-2.533869147E-1;2.981022373E-2
1.094493913E1;1.799259931E-1;-5.003858805E-1;2.065422684E-1
1.095685006E1;-1.298874021E-1;-3.864682615E-1;3.098133802E-1
1.096876256E1;-2.650980651E-1;-3.885975480E-1;2.501929402E-1
1.098067350E1;-3.279124498E-1;-4.471533597E-1;6.387905218E-3
1.099258444E1;-1.107236892E-1;-2.800031602E-1;-1.394692659E-1
1.100449694E1;4.258603323E-3;-9.688322991E-2;-1.437278688E-1
1.101640788E1;2.054776102E-1;3.257831633E-1;-2.981022373E-2
1.102832038E1;3.673045337E-1;6.611481905E-1;-1.096590385E-1
1.104023131E1;4.673817158E-1;7.282211781E-1;-2.086715698E-1
1.105215006E1;5.610709786E-1;5.397779942E-1;-3.183306158E-1
1.106405475E1;5.621356368E-1;4.365068376E-1;-2.640334070E-1
1.107596569E1;4.311835766E-1;4.716403186E-1;-1.852492392E-1
1.108787662E1;2.512575984E-1;5.376486778E-1;-1.490511149E-1
1.109979381E1;2.981022373E-2;6.217560768E-1;0.000000000E0
1.111170006E1;-1.735380888E-1;6.313379407E-1;9.688322991E-2
1.112361256E1;-2.991668880E-1;6.132388711E-1;1.192408949E-1
1.113552350E1;-3.002315462E-1;5.834286809E-1;6.174974889E-2
1.114743600E1;-2.523222566E-1;5.227435827E-1;2.342231758E-2
1.115936569E1;-2.267706245E-1;5.429719090E-1;7.026695460E-2
1.117125788E1;-2.257059813E-1;7.069281340E-1;2.182534188E-1
1.118317038E1;-2.469989955E-1;9.379574060E-1;2.533869147E-1
1.119508131E1;-2.523222566E-1;1.341460109E0;5.206142664E-1
1.120699381E1;-2.193180770E-1;1.737510204E0;5.440365672E-1
1.121890475E1;-2.203827202E-1;1.849298477E0;4.780282378E-1
1.123081569E1;-3.130073547E-1;1.800324559E0;3.087487519E-1
1.124272819E1;-4.418300986E-1;1.548002362E0;6.600835174E-2
1.125463912E1;-5.355193615E-1;1.250964761E0;-1.490511186E-2
1.126655162E1;-6.355965734E-1;1.014612198E0;-7.239625603E-2
1.127847975E1;-6.941523552E-1;6.984109282E-1;-1.384046078E-1
1.129037506E1;-6.739239693E-1;3.832743168E-1;-2.342231870E-1
1.130228600E1;-6.015277505E-1;2.193180770E-1;-2.459343374E-1
1.131420475E1;-4.705756605E-1;1.767320335E-1;-1.650208831E-1
1.132610944E1;-2.970375717E-1;1.032711342E-1;-2.022836544E-2
1.133802194E1;-1.767320335E-1;-2.129301727E-1;1.511804163E-1
1.134993288E1;-1.916371472E-2;-7.825183868E-1;3.385589719E-1
1.136184381E1;2.320938855E-1;-1.296744704E0;4.322482347E-1
1.137375631E1;5.131617188E-1;-1.766255736E0;3.875329196E-1
1.138566725E1;5.983337760E-1;-1.795001268E0;1.234994978E-1
1.139757975E1;5.781053901E-1;-1.532032609E0;-2.576455176E-1
1.140949069E1;5.482951999E-1;-1.125335932E0;-5.525537729E-1
1.142140163E1;4.577998519E-1;-5.834286809E-1;-7.846476436E-1
1.143331256E1;2.608394623E-1;6.387905031E-2;-7.271565199E-1
1.144522506E1;-8.836601675E-2;1.565036774E-1;-3.204599023E-1
1.145713913E1;-6.270793676E-1;-2.001543641E-1;3.939208016E-2
1.146904850E1;-1.107236862E0;-5.387133360E-1;3.300417662E-1
1.148095944E1;-1.478800058E0;-6.771179438E-1;4.301189482E-1
1.149287194E1;-1.471347451E0;-5.163556337E-1;4.077612758E-1
1.150478288E1;-9.443452954E-1;1.160469428E-1;3.385589719E-1
1.151669381E1;-4.471533597E-1;3.257831633E-1;3.172659576E-1
1.152860944E1;-1.479864717E-1;-5.855579674E-2;2.906496823E-1
1.154051725E1;3.513347730E-2;-7.857123017E-1;2.427403927E-1
1.155242975E1;2.054776102E-1;-1.340395451E0;1.596976221E-1
1.156434069E1;4.588645101E-1;-1.661919951E0;1.415985674E-1
1.157625163E1;6.036570072E-1;-1.621463180E0;1.298874021E-1
1.158816412E1;6.696653962E-1;-1.194538236E0;1.171115935E-1
1.160007506E1;6.270793676E-1;-6.132388711E-1;8.410741389E-2
1.161198756E1;4.620584548E-1;-9.049531817E-2;5.003859103E-2
1.162389850E1;1.948311031E-1;1.799259931E-1;2.129301615E-2
1.163581413E1;-5.110324174E-2;2.555162013E-1;-1.596976258E-2
1.164772506E1;-1.724734306E-1;2.427403927E-1;-5.855579674E-2
1.165963288E1;-1.501157731E-1;1.905725002E-1;-8.943066746E-2
1.167154538E1;-3.300417587E-2;1.543743759E-1;-9.262461960E-2
1.168345631E1;8.730136603E-2;1.479864717E-1;-8.730136603E-2
1.169536725E1;1.405339092E-1;1.394692659E-1;-8.730136603E-2
1.170728288E1;1.405339092E-1;2.139948159E-1;-1.192408949E-1
1.171919069E1;1.011418328E-1;3.673045337E-1;-1.458571702E-1
1.173110319E1;5.216789246E-2;5.248728395E-1;-1.554390192E-1
1.174301412E1;2.022836544E-2;6.430491209E-1;-1.490511149E-1
1.175492663E1;4.045673087E-2;6.632774472E-1;-1.458571702E-1
1.176683756E1;1.000771821E-1;6.600835323E-1;-1.394692659E-1
1.177875006E1;1.735380888E-1;6.622128487E-1;-1.426632106E-1
1.179066100E1;2.778738737E-1;6.515663266E-1;-1.458571702E-1
1.180257350E1;4.471533597E-1;6.675360799E-1;-1.596976221E-1
1.181448444E1;5.632002950E-1;6.686007380E-1;-2.065422684E-1
1.182639538E1;4.695110321E-1;5.717175007E-1;-2.874557376E-1
1.183830788E1;1.618269235E-1;3.981794119E-1;-3.449468613E-1
1.185021881E1;-1.724734306E-1;3.364296556E-1;-3.268478215E-1
1.186213131E1;-2.757445574E-1;5.259374976E-1;-2.161241174E-1
1.187404850E1;1.809906401E-2;8.708843589E-1;-3.619812801E-2
1.188595319E1;4.258603454E-1;9.326341152E-1;1.916371472E-2
1.189786569E1;7.942295074E-1;6.898937225E-1;3.619812801E-2
1.190978288E1;5.461658835E-1;-1.809906363E-1;3.300417587E-2
1.192168912E1;2.629687488E-1;-7.771950960E-1;9.901253134E-2
1.193360006E1;2.853264213E-1;-7.292858362E-1;1.724734306E-1
1.194551256E1;2.448696941E-1;-4.471533597E-1;2.182534188E-1
1.195742506E1;7.559020817E-2;-4.471533597E-1;2.469989955E-1
1.196933444E1;-5.855579674E-2;-4.322482347E-1;3.332357109E-1
1.198124694E1;-1.064650831E-3;-2.076069117E-1;4.088259339E-1
1.199316256E1;7.452555746E-2;-6.068509817E-2;3.034254909E-1
1.200507038E1;5.003859103E-2;-1.320167035E-1;1.809906363E-1
1.201698131E1;-1.064650831E-3;-3.641105890E-1;1.533097178E-1
1.202889225E1;-5.110324174E-2;-3.428175747E-1;1.969604045E-1
1.204080944E1;-1.469218135E-1;-1.000771821E-1;1.948311031E-1
1.205271569E1;-2.917143404E-1;5.110324174E-2;1.149822921E-1
1.206462819E1;-4.173431396E-1;1.203055456E-1;5.323254038E-3
1.207653912E1;-4.471533597E-1;1.117883399E-1;-8.410741389E-2
1.208845006E1;-4.375714958E-1;2.874557301E-2;-1.277581006E-1
1.210036256E1;-4.524766207E-1;-5.536184460E-2;-1.022064835E-1
1.211227350E1;-4.822868407E-1;-7.984881103E-2;-4.045673087E-2
1.212418444E1;-5.301961303E-1;-7.452555932E-3;1.809906401E-2
1.213609694E1;-5.514891148E-1;1.128529906E-1;4.365068302E-2
1.214800788E1;-5.248728395E-1;2.257059813E-1;6.281439960E-2
1.215991881E1;-4.514119625E-1;3.566580415E-1;2.342231758E-2
1.217183600E1;-3.268478215E-1;5.025151968E-1;-3.406882659E-2
1.218374225E1;-1.660855263E-1;5.855579376E-1;-9.475392103E-2
1.219565475E1;2.874557301E-2;6.015277505E-1;-1.628915817E-1
1.220756569E1;1.799259931E-1;5.482951999E-1;-2.384817898E-1
1.221947819E1;3.108780384E-1;4.141491652E-1;-3.417529166E-1
1.223140788E1;3.758217394E-1;3.044901490E-1;-4.471533597E-1
1.224330631E1;3.545287251E-1;3.502701223E-1;-5.099677444E-1
1.225521256E1;2.757445574E-1;5.131617188E-1;-5.014505386E-1
1.226712506E1;1.756673902E-1;6.345319152E-1;-3.992440701E-1
1.227903600E1;-5.323254038E-3;6.015277505E-1;-1.596976221E-1
1.229095006E1;-1.905725002E-1;3.949854672E-1;1.000771821E-1
1.230285944E1;-3.704984784E-1;1.234994978E-1;3.428175747E-1
1.231477038E1;-4.397007823E-1;-1.309520602E-1;6.079156399E-1
1.232668288E1;-3.907268643E-1;-3.726277947E-1;9.124057889E-1
1.233859381E1;-2.714859545E-1;-5.727821589E-1;1.144499660E0
1.235050631E1;-1.384046078E-1;-6.920230389E-1;1.041228533E0
1.236242038E1;-3.406882659E-2;-6.132388711E-1;5.504244566E-1
1.237432975E1;1.586329788E-1;-3.981794119E-1;-1.671501845E-1
1.238624069E1;3.151366413E-1;-1.788613349E-1;-6.430491209E-1
1.239815162E1;2.491282970E-1;-4.152138159E-2;-9.709615707E-1
1.241006412E1;9.794788063E-2;-2.044129670E-1;-1.108301520E0
1.242197506E1;7.452555746E-2;-7.090574503E-1;-8.389448524E-1
1.243388600E1;-5.216789246E-2;-7.399323583E-1;-4.695110321E-1
1.244579850E1;-2.501929402E-1;-4.929333329E-1;-1.032711342E-1
1.245770944E1;-3.406882584E-1;-9.581857920E-2;2.384817898E-1
1.246962194E1;-2.235766798E-1;2.523222566E-1;3.460115194E-1
1.248153913E1;-1.011418328E-1;6.355965734E-1;2.033483088E-1
1.249344538E1;-5.216789246E-2;9.922545552E-1;4.577998444E-2
1.250535631E1;-8.517206647E-3;1.335072160E0;-3.193952609E-3
1.251726881E1;3.832742944E-2;1.563972116E0;8.517206460E-2
1.252918444E1;5.216789246E-2;1.435149312E0;1.511804163E-1
1.254109069E1;3.193952609E-3;9.060178399E-1;6.494370103E-2
1.255300319E1;-9.581857361E-3;-5.855579674E-2;5.323254038E-3
1.256491413E1;1.511804163E-1;-9.113411307E-1;3.619812801E-2
1.257682506E1;4.258603454E-1;-1.799259901E0;5.855579674E-2
1.258873756E1;5.759761333E-1;-2.247478008E0;-2.129301662E-3
1.260065006E1;5.525537729E-1;-2.300710440E0;-7.239625603E-2
1.261255944E1;4.098905623E-1;-2.037741661E0;-1.213701963E-1
1.262447194E1;2.789385319E-1;-1.682148337E0;-1.224348471E-1
1.263638288E1;1.522450745E-1;-1.091267109E0;-8.517206460E-2
1.264829381E1;1.011418328E-1;-5.344547033E-1;-2.342231758E-2
1.266020631E1;9.262461960E-2;-6.387905218E-3;5.323254317E-2
1.267211725E1;1.181762442E-1;3.800803423E-1;7.133160532E-2
1.268402975E1;6.068509817E-2;6.249500513E-1;2.129301615E-2
1.269594069E1;-2.129301615E-2;7.175746560E-1;-2.555162087E-2
1.270785319E1;-7.452555746E-2;7.708072066E-1;-7.452555746E-2
1.271976413E1;-7.878416032E-2;7.867769599E-1;-1.171115935E-1
1.273167662E1;-3.513347730E-2;7.867769599E-1;-1.692794859E-1
1.274358756E1;1.277581044E-2;7.239625454E-1;-1.937664598E-1
1.275549850E1;4.684463516E-2;6.196267605E-1;-1.916371584E-1
1.276741100E1;7.452555746E-2;5.014505386E-1;-1.799259931E-1
1.277932350E1;1.437278688E-1;3.747570813E-1;-1.682148278E-1
1.279123444E1;2.672273517E-1;2.533869147E-1;-1.841845959E-1
1.280314538E1;4.577998519E-1;1.362753063E-1;-2.288999259E-1
1.281505788E1;6.015277505E-1;7.878416032E-2;-3.087487519E-1
1.282697194E1;5.482951999E-1;9.581857361E-3;-3.534640670E-1
1.283888444E1;2.033483088E-1;-2.661627159E-2;-2.523222566E-1
1.285079225E1;-1.671501845E-1;-2.022836544E-2;2.661627159E-2
1.286270319E1;-2.597748041E-1;2.650980651E-1;2.597748041E-1
1.287461881E1;1.394692659E-1;5.248728395E-1;2.203827202E-1
1.288652662E1;7.175746560E-1;4.599291682E-1;-7.452555932E-3
1.289843913E1;1.076362014E0;1.192408949E-1;-1.213701963E-1
1.291035006E1;8.985652924E-1;-7.484495640E-1;-1.277581006E-1
1.292226100E1;5.972691178E-1;-1.079555988E0;9.475392103E-2
1.293417350E1;3.502701223E-1;-5.280668139E-1;3.332357109E-1
1.294609069E1;1.000771821E-1;2.331585288E-1;4.184077680E-1
1.295799694E1;-4.897394031E-2;6.505016685E-1;3.673045337E-1
1.296990788E1;-1.171115935E-1;9.241169095E-1;3.119426966E-1
1.298182038E1;-1.596976258E-2;9.635090232E-1;2.150594741E-1
1.299373131E1;9.794788063E-2;4.769635797E-1;5.323254317E-2
1.300564225E1;1.863138974E-1;-1.596976221E-1;2.129301662E-3
1.301755475E1;3.172659576E-1;-6.441137791E-1;4.365068302E-2
1.302946569E1;3.215245605E-1;-7.016049027E-1;-5.642649531E-2
1.304137819E1;1.565036774E-1;-5.387133360E-1;-2.033483088E-1
1.305328913E1;-1.064650831E-3;-2.650980651E-1;-2.810678184E-1
1.306520006E1;-7.133160532E-2;-3.619812801E-2;-3.044901490E-1
1.307711256E1;-1.128529906E-1;6.707300246E-2;-2.757445574E-1
1.308902350E1;-1.650208831E-1;6.707300246E-2;-1.948311031E-1
1.310093600E1;-2.501929402E-1;1.256287992E-1;-8.197811246E-2
1.311284694E1;-3.832743168E-1;2.225120217E-1;3.406882659E-2
1.312476412E1;-5.110324025E-1;2.981022298E-1;8.836601675E-2
1.313666881E1;-6.132388711E-1;3.481408358E-1;1.054004356E-1
1.314858131E1;-6.771179438E-1;4.013733566E-1;1.192408949E-1
1.316049225E1;-6.686007380E-1;3.992440701E-1;1.298874021E-1
1.317240475E1;-6.068509817E-1;3.098133802E-1;1.171115935E-1
1.318431569E1;-5.206142664E-1;1.788613349E-1;8.197811246E-2
1.319622819E1;-3.843389452E-1;-5.962044746E-2;4.790928960E-2
1.320813912E1;-2.555162013E-1;-1.990897059E-1;2.874557301E-2
1.322005006E1;-1.522450745E-1;-2.342231870E-1;-1.171115879E-2
1.323196256E1;-9.049531817E-2;-1.394692659E-1;-6.387905031E-2
1.324387662E1;-1.298874021E-1;-2.235766686E-2;-1.085943878E-1
1.325578444E1;-2.193180770E-1;4.045673087E-2;-1.064650863E-1
1.326769694E1;-3.236538470E-1;8.410741389E-2;-1.064650808E-2
1.327960944E1;-3.715631366E-1;1.426632106E-1;1.309520602E-1
1.329152038E1;-3.747570813E-1;1.437278688E-1;2.608394623E-1
1.330343288E1;-3.534640670E-1;9.155996889E-2;2.842617631E-1
1.331534381E1;-3.502701223E-1;-4.897394031E-2;2.544515431E-1
1.332725631E1;-3.822096586E-1;-2.597748041E-1;2.800031602E-1
1.333916725E1;-3.928561509E-1;-4.120198786E-1;3.587873280E-1
1.335107975E1;-3.470761776E-1;-4.365068376E-1;5.387133360E-1
1.336299069E1;-2.054776102E-1;-2.597748041E-1;4.833514690E-1
1.337490163E1;4.258603323E-3;1.596976258E-2;1.809906363E-1
1.338681412E1;2.193180770E-1;1.735380888E-1;-2.044129670E-1
1.339872506E1;3.151366413E-1;1.352106631E-1;-3.438822329E-1
1.341063756E1;2.033483088E-1;-1.288227588E-1;-4.077612758E-1
1.342255631E1;-4.152138159E-2;-6.984109282E-1;-4.003087282E-1
1.343445944E1;-2.363524884E-1;-1.381916761E0;-3.311064243E-1
1.344637194E1;-2.778738737E-1;-1.355300546E0;-2.267706245E-1
1.345828288E1;-1.799259931E-1;-6.611481905E-1;-2.161241174E-1
1.347019538E1;2.895850241E-1;3.917915225E-1;-3.012961745E-1
1.348210631E1;6.930876970E-1;1.073168039E0;-2.981022298E-1
1.349401881E1;7.303504944E-1;7.697425485E-1;-3.321710527E-1
1.350592819E1;7.260918617E-1;6.100449562E-1;-2.672273517E-1
1.351784225E1;6.632774472E-1;9.486039281E-1;-1.096590385E-1
1.352975319E1;3.843389452E-1;1.386175394E0;-1.171115879E-2
1.354166412E1;-1.596976258E-2;1.589523673E0;3.193952609E-3
1.355357506E1;-4.460887015E-1;1.315908432E0;-1.703441329E-2
1.356548756E1;-6.845704913E-1;5.451012254E-1;-4.577998444E-2
1.357739850E1;-7.697425485E-1;-4.066966176E-1;-1.160469428E-1
1.358931100E1;-6.153681874E-1;-1.262675881E0;-8.304276317E-2
1.360122194E1;-2.448696941E-1;-2.108008623E0;-1.171115879E-2
1.361313288E1;1.064650863E-1;-2.753187180E0;0.000000000E0
1.362504538E1;3.428175747E-1;-3.103457212E0;-2.874557301E-2
1.363695631E1;3.917915225E-1;-3.024672985E0;-5.855579674E-2
1.364886881E1;3.832743168E-1;-2.608394623E0;-8.623671532E-2
1.366079850E1;3.470761776E-1;-1.947246432E0;-9.688322991E-2
1.367269381E1;2.512575984E-1;-1.203055501E0;-9.262461960E-2
1.368460319E1;9.794788063E-2;-2.959729433E-1;-5.429719388E-2
1.369651412E1;-6.920230389E-2;4.971919358E-1;-6.387905218E-3
1.370842663E1;-2.065422684E-1;1.178568482E0;3.939208016E-2
1.372033756E1;-2.565808594E-1;1.243512154E0;2.022836544E-2
1.373225006E1;-2.725506127E-1;1.044422507E0;2.874557301E-2
1.374417506E1;-2.182534188E-1;8.080700040E-1;6.600835174E-2
1.375607194E1;-1.767320335E-1;6.377258301E-1;1.128529906E-1
1.376798444E1;-1.085943878E-1;4.833514690E-1;7.559020817E-2
1.377989538E1;-1.596976258E-2;4.918686748E-1;-1.703441329E-2
1.379181100E1;5.749114603E-2;5.238082409E-1;-1.149822921E-1
1.380371881E1;1.256287992E-1;5.089030862E-1;-1.692794859E-1
1.381562975E1;2.352878302E-1;4.397007823E-1;-1.852492392E-1
1.382754225E1;2.895850241E-1;4.216017425E-1;-2.363524884E-1
1.383945788E1;2.044129670E-1;5.440365672E-1;-2.757445574E-1
1.385136569E1;-6.707300246E-2;7.058635354E-1;-1.948311031E-1
1.386327663E1;-2.682920098E-1;7.622900009E-1;3.300417587E-2
1.387518912E1;-3.098133802E-1;8.176518679E-1;3.385589719E-1
1.388710006E1;9.581857361E-3;7.005402446E-1;3.726277947E-1
1.389901412E1;4.471533597E-1;3.673045337E-1;2.033483088E-1
1.391092975E1;9.517978430E-1;-4.152138159E-2;2.448697016E-2
1.392283444E1;1.077426672E0;-3.673045337E-1;-6.707300246E-2
1.393474694E1;7.409969568E-1;-7.527081370E-1;-3.087487444E-2
1.394665788E1;3.928561509E-1;-2.203827202E-1;1.809906363E-1
1.395857038E1;1.714087874E-1;5.280668139E-1;3.055547774E-1
1.397048131E1;-3.939208016E-2;9.134704471E-1;3.279124498E-1
1.398239225E1;-6.707300246E-2;1.282904267E0;3.215245605E-1
1.399430475E1;7.133160532E-2;1.674695730E0;2.714859545E-1
1.400621569E1;2.831971347E-1;1.883367300E0;1.980250627E-1
1.401812819E1;4.769635797E-1;1.853557110E0;7.346090674E-2
1.403004069E1;6.366612315E-1;1.797130585E0;-5.536184460E-2
1.404195006E1;6.611481905E-1;1.577812552E0;-1.948311031E-1
1.405386256E1;5.280668139E-1;1.352106571E0;-2.682920098E-1
1.406577506E1;2.395464331E-1;1.239253521E0;-2.065422684E-1
1.407769225E1;1.809906401E-2;1.267999172E0;-8.517206647E-3
1.408959694E1;-1.405339092E-1;1.242447495E0;2.171887755E-1
1.410150788E1;-2.086715698E-1;1.277580976E0;3.747570813E-1
1.411342038E1;-2.331585288E-1;1.330813527E0;4.620584548E-1
1.412533131E1;-3.044901490E-1;1.264805198E0;3.673045337E-1
1.413725944E1;-4.130845368E-1;1.096590400E0;1.746027321E-1
1.414915475E1;-5.067738295E-1;8.815308809E-1;7.239625603E-2
1.416106725E1;-5.365840197E-1;6.803118587E-1;2.555162087E-2
1.417297819E1;-5.174202919E-1;4.418300986E-1;0.000000000E0
1.418488913E1;-4.428947568E-1;1.352106631E-1;-8.517206647E-3
1.419680006E1;-3.736924529E-1;-9.901253134E-2;-1.703441329E-2
1.420871256E1;-3.353650272E-1;-2.576455176E-1;-4.152138159E-2
1.422062350E1;-3.151366413E-1;-3.928561509E-1;-5.323254317E-2
1.423253600E1;-3.055547774E-1;-4.886747301E-1;-6.174974889E-2
1.424444694E1;-3.012961745E-1;-4.780282378E-1;-7.133160532E-2
1.425636413E1;-2.725506127E-1;-4.258603454E-1;-7.026695460E-2
1.426828444E1;-2.246413231E-1;-3.023608327E-1;-4.258603230E-2
1.428018288E1;-2.108008713E-1;-1.426632106E-1;0.000000000E0
1.429209381E1;-2.469989955E-1;-2.129301662E-3;2.448697016E-2
1.430400631E1;-3.225892186E-1;5.110324174E-2;3.406882659E-2
1.431592350E1;-3.971147537E-1;2.235766686E-2;3.619812801E-2
1.432782819E1;-4.705756605E-1;-7.878416032E-2;7.452555746E-2
1.433974069E1;-5.099677444E-1;-3.268478215E-1;1.234994978E-1
1.435165162E1;-3.907268643E-1;-7.420616150E-1;1.543743759E-1
1.436356881E1;-2.342231758E-2;-9.858666658E-1;2.555162013E-1
1.437547975E1;3.204599023E-1;-8.985652924E-1;9.688322991E-2
1.438738600E1;4.577998519E-1;-9.571211338E-1;-1.671501845E-1
1.439929850E1;5.972691178E-1;-9.762848020E-1;-4.365068376E-1
1.441120944E1;6.355965734E-1;-7.942295074E-1;-5.365840197E-1
1.442312194E1;4.386361539E-1;-5.397779942E-1;-4.716403186E-1
1.443503444E1;1.639562249E-1;-6.845704913E-1;-3.364296556E-1
1.444694538E1;4.471533373E-2;-8.176518679E-1;-2.469989955E-1
1.445885631E1;1.809906401E-2;-3.034254909E-1;-2.725506127E-1
1.447076725E1;5.749114603E-2;3.012961745E-1;-3.609166443E-1
1.448267975E1;8.623671532E-2;8.421388268E-1;-3.545287251E-1
1.449459381E1;1.511804163E-1;1.058262944E0;-2.682920098E-1
1.450652038E1;2.406110913E-1;1.110430837E0;-2.150594741E-1
1.451841413E1;2.906496823E-1;1.022064805E0;-1.756673902E-1
1.453032506E1;2.555162013E-1;9.209229946E-1;-1.213701963E-1
1.454223600E1;1.586329788E-1;9.102764726E-1;-3.726277873E-2
1.455414850E1;4.684463516E-2;9.294402003E-1;7.452555932E-3
1.456606256E1;-3.619812801E-2;7.803890705E-1;1.384046115E-2
1.457797038E1;-3.513347730E-2;2.310292274E-1;2.768092230E-2
1.458988288E1;6.068509817E-2;-2.512575984E-1;8.091346174E-2
1.460179538E1;2.235766798E-1;-5.993984342E-1;1.415985674E-1
1.461373756E1;3.768863976E-1;-7.197039723E-1;1.277581006E-1
1.462562350E1;5.089030862E-1;-6.196267605E-1;4.577998444E-2
1.463752975E1;5.227435827E-1;-4.769635797E-1;-4.577998444E-2
1.464944069E1;4.258603454E-1;-3.949854672E-1;-1.501157731E-1
1.466135319E1;2.842617631E-1;-3.885975480E-1;-2.406110913E-1
1.467327194E1;9.368927032E-2;-3.172659576E-1;-2.885203660E-1
1.468517662E1;-6.920230389E-2;-2.597748041E-1;-2.395464331E-1
1.469708756E1;-1.820552945E-1;-1.628915817E-1;-1.384046078E-1
1.470899850E1;-2.054776102E-1;-8.410741389E-2;-6.387905218E-3
1.472091100E1;-2.225120217E-1;-1.107236892E-1;6.813765317E-2
1.473282194E1;-2.800031602E-1;-2.257059813E-1;8.197811246E-2
1.474473912E1;-3.087487519E-1;-3.555933833E-1;3.087487444E-2
1.475664538E1;-3.002315462E-1;-4.897393882E-1;-5.216789246E-2
1.476855631E1;-2.469989955E-1;-5.823640227E-1;-1.288227588E-1
1.478046881E1;-1.288227588E-1;-6.355965734E-1;-1.799259931E-1
1.479238600E1;1.916371472E-2;-6.994755864E-1;-1.863138974E-1
1.480429225E1;1.469218135E-1;-8.293629885E-1;-1.767320335E-1
1.481620319E1;2.459343374E-1;-9.358280897E-1;-1.767320335E-1
1.482811569E1;2.597748041E-1;-8.346862793E-1;-1.980250627E-1
1.484002662E1;1.831199378E-1;-4.482180178E-1;-1.873785406E-1
1.485194538E1;9.581857361E-3;-9.262461960E-2;-1.256287992E-1
1.486385162E1;-3.353650272E-1;1.245641485E-1;7.878416032E-2
1.487576256E1;-5.195496082E-1;1.565036774E-1;2.821324766E-1
1.488767350E1;-3.577226698E-1;2.129301615E-2;4.066966176E-1
1.489958600E1;2.012190074E-1;-4.514119625E-1;2.842617631E-1
1.491149694E1;8.282983303E-1;-1.205184698E0;1.777966917E-1
1.492341725E1;1.343589306E0;-1.739639521E0;-6.494370103E-2
1.493531881E1;1.280774951E0;-1.627851129E0;-1.171115935E-1
1.494723131E1;7.218332887E-1;-8.740783334E-1;2.171887755E-1
1.495914225E1;4.365068302E-2;-1.330813617E-1;4.971919358E-1
1.497105944E1;-4.641877711E-1;4.397007823E-1;6.792472601E-1
1.498296569E1;-7.399323583E-1;1.426632166E0;7.058635354E-1
1.499487819E1;-6.387904882E-1;2.315615654E0;5.770407319E-1
1.500678913E1;-2.885203660E-1;2.809613466E0;3.992440701E-1
1.501870006E1;6.387905031E-2;2.566873074E0;2.129301727E-1
1.503061256E1;3.087487519E-1;1.981315255E0;8.304276317E-2
1.504252662E1;4.471533597E-1;1.138111711E0;-3.193952516E-2
1.505443600E1;3.587873280E-1;3.907268643E-1;-1.437278688E-1
1.506634694E1;2.161241174E-1;2.342231758E-2;-2.374171317E-1
1.507825788E1;4.258603323E-3;-8.517206647E-3;-2.991668880E-1
1.509018600E1;-1.714087874E-1;5.429719388E-2;-2.810678184E-1
1.510210631E1;-2.661627233E-1;1.341460049E-1;-2.054776102E-1
1.511399225E1;-3.502701223E-1;2.480636388E-1;-9.155996889E-2
1.512590475E1;-4.375714958E-1;3.662398756E-1;-9.581857361E-3
1.513781725E1;-5.301961303E-1;4.748342633E-1;5.749114603E-2
1.514973444E1;-6.228207350E-1;5.184849501E-1;7.665485889E-2
1.516163912E1;-6.505016685E-1;5.355193615E-1;7.878416032E-2
1.517355163E1;-6.111095548E-1;5.376486778E-1;4.684463516E-2
1.518546256E1;-5.440365672E-1;4.758989215E-1;1.277581044E-2
1.519737506E1;-4.290542901E-1;2.523222566E-1;-1.916371472E-2
1.520929225E1;-3.076840937E-1;5.749114603E-2;-1.596976258E-2
1.522119694E1;-1.852492392E-1;-3.513347730E-2;1.490511186E-2
1.523310944E1;-8.836601675E-2;-9.155996889E-2;5.429719388E-2
1.524502038E1;-4.897394031E-2;-1.405339092E-1;7.559020817E-2
1.525693288E1;-6.174974889E-2;-1.895078421E-1;5.962044746E-2
1.526884538E1;-1.043357849E-1;-2.203827202E-1;7.026695460E-2
1.528075631E1;-1.341460049E-1;-2.214473784E-1;8.410741389E-2
1.529266725E1;-1.426632106E-1;-1.341460049E-1;8.730136603E-2
1.530457819E1;-1.415985674E-1;1.596976258E-2;8.304276317E-2
1.531649069E1;-1.948311031E-1;1.596976221E-1;7.346090674E-2
1.532840788E1;-2.885203660E-1;1.618269235E-1;7.026695460E-2
1.534031569E1;-4.045673311E-1;-1.384046115E-2;1.085943878E-1
1.535222506E1;-4.588645101E-1;-2.480636388E-1;1.958957613E-1
1.536413756E1;-3.885975480E-1;-4.460887015E-1;2.778738737E-1
1.537604850E1;-8.517206460E-2;-5.163556337E-1;1.043357849E-1
1.538796100E1;2.118655145E-1;-6.313379407E-1;-1.266934574E-1
1.539987194E1;3.885975480E-1;-1.010353684E0;-3.438822329E-1
1.541178288E1;4.269249737E-1;-1.213701963E0;-5.184849501E-1
1.542369538E1;2.821324766E-1;-1.390434027E0;-6.387904882E-1
1.543560631E1;1.533097178E-1;-1.765191078E0;-4.833514690E-1
1.544752350E1;1.256287992E-1;-1.698118091E0;-3.151366413E-1
1.545942975E1;1.809906401E-2;-1.102978230E0;-2.576455176E-1
1.547134069E1;-6.600835174E-2;-5.259374976E-1;-2.640334070E-1
1.548325319E1;-9.049531817E-2;-2.012190074E-1;-2.374171317E-1
1.549516412E1;5.323254038E-3;4.258603323E-3;-1.831199378E-1
1.550708131E1;2.086715698E-1;2.257059813E-1;-1.415985674E-1
1.551898756E1;3.598519862E-1;5.451012254E-1;-7.026695460E-2
1.553089850E1;4.184077680E-1;8.655611277E-1;2.129301662E-3
1.554281100E1;3.119426966E-1;9.305048585E-1;4.152138159E-2
1.555472194E1;1.384046115E-2;6.824411750E-1;6.174974889E-2
1.556663913E1;-2.139948159E-1;2.065422684E-1;1.596976258E-2
1.557854381E1;-2.874557376E-1;-4.237310290E-1;-3.726277873E-2
1.559045631E1;-1.234994978E-1;-1.144499660E0;4.471533373E-2
1.560236881E1;2.225120217E-1;-1.855686426E0;1.650208831E-1
1.561427975E1;5.472305417E-1;-2.326261997E0;1.884431988E-1
1.562619694E1;6.952170134E-1;-2.403981686E0;1.298874021E-1
1.563810163E1;7.452555895E-1;-2.170823097E0;3.406882659E-2
1.565001412E1;7.122514248E-1;-1.715152502E0;-1.809906401E-2
1.566192506E1;6.324025989E-1;-1.072103381E0;-4.045673087E-2
1.567383756E1;4.886747301E-1;-3.683691919E-1;-3.939208016E-2
1.568575631E1;2.619041204E-1;2.800031602E-1;2.129301615E-2
1.569766569E1;-5.323254038E-3;8.155225515E-1;1.213701963E-1
1.570957194E1;-2.012190074E-1;1.061456919E0;2.076069117E-1
1.572148444E1;-2.981022298E-1;1.030582070E0;2.821324766E-1
1.573339538E1;-2.725506127E-1;8.953713775E-1;3.460115194E-1
1.574530788E1;-1.958957613E-1;7.644193172E-1;3.577226698E-1
1.575721881E1;-1.352106631E-1;6.121742129E-1;3.023608327E-1
1.576912975E1;-1.181762442E-1;4.577998519E-1;1.873785406E-1
1.578104225E1;-1.032711342E-1;2.927789688E-1;-1.171115879E-2
1.579295475E1;-8.091346174E-2;2.097362131E-1;-1.405339092E-1
1.580487350E1;-4.365068302E-2;2.118655145E-1;-1.543743759E-1
1.581677663E1;-2.022836544E-2;1.362753063E-1;-1.415985674E-1
1.582870006E1;7.878416032E-2;-3.193952516E-2;-1.703441292E-1
1.584060006E1;1.522450745E-1;-1.096590385E-1;-2.033483088E-1
1.585251256E1;1.746027321E-1;-1.586329788E-1;-2.608394623E-1
1.586442662E1;7.239625603E-2;-1.458571702E-1;-2.746799290E-1
1.587633444E1;-1.384046078E-1;-1.064650831E-3;-1.245641485E-1
1.588824694E1;-2.597748041E-1;2.438050359E-1;1.064650863E-1
1.590015788E1;-1.043357849E-1;3.140719831E-1;1.756673902E-1
1.591207038E1;3.374943137E-1;2.342231758E-2;1.256287992E-1
1.592398912E1;7.197039723E-1;-3.630459309E-1;1.000771821E-1
1.593590475E1;8.112639189E-1;-9.400866628E-1;9.262461960E-2
1.594780475E1;7.047988772E-1;-1.209443331E0;2.800031602E-1
1.595971569E1;5.706528425E-1;-8.187164664E-1;3.673045337E-1
1.597162819E1;2.768092155E-1;-2.725506127E-1;4.524766207E-1
1.598354538E1;9.901253134E-2;6.707300246E-2;4.801575243E-1
1.599545163E1;2.661627159E-2;5.216789246E-1;4.088259339E-1
1.600736256E1;-4.258603323E-3;1.058262944E0;3.204599023E-1
1.601927350E1;5.003859103E-2;1.188150287E0;2.182534188E-1
1.603118600E1;1.096590385E-1;1.161534071E0;1.107236892E-1
1.604309850E1;2.161241174E-1;9.315694571E-1;5.962044746E-2
1.605501569E1;3.162012994E-1;5.663942695E-1;8.517206460E-2
1.606692038E1;2.661627233E-1;2.587101460E-1;7.878416032E-2
1.607883131E1;8.410741389E-2;1.458571702E-1;-8.517206647E-3
1.609074381E1;-9.155996889E-2;1.298874021E-1;-8.304276317E-2
1.610266412E1;-2.395464331E-1;1.117883399E-1;-1.415985674E-1
1.611456725E1;-3.279124498E-1;8.730136603E-2;-1.586329788E-1
1.612647819E1;-3.470761776E-1;8.623671532E-2;-1.479864717E-1
1.613838912E1;-3.268478215E-1;1.852492392E-1;-1.043357849E-1
1.615030162E1;-3.385589719E-1;4.886747301E-1;-6.600835174E-2
1.616221881E1;-3.790156841E-1;8.943067193E-1;-4.258603230E-2
1.617412350E1;-4.705756605E-1;1.243512154E0;-3.300417587E-2
1.618603600E1;-5.834286809E-1;1.503286958E0;-4.045673087E-2
1.619794694E1;-6.430491209E-1;1.567166090E0;-6.600835174E-2
1.620985944E1;-6.398551464E-1;1.392563343E0;-7.984881103E-2
1.622177194E1;-6.462430358E-1;1.106172204E0;-7.878416032E-2
1.623368131E1;-6.313379407E-1;7.292858362E-1;-7.559020817E-2
1.624559225E1;-5.525537729E-1;2.299645841E-1;-6.068509817E-2
1.625750631E1;-4.918686748E-1;-2.214473784E-1;-3.193952516E-2
1.626941725E1;-4.524766207E-1;-6.441137791E-1;-5.323254038E-3
1.628133444E1;-4.301189482E-1;-8.314923048E-1;1.809906401E-2
1.629324069E1;-4.003087282E-1;-8.474620581E-1;2.874557301E-2
1.630515162E1;-3.683691919E-1;-7.452555895E-1;3.619812801E-2
1.631706412E1;-3.523994386E-1;-6.739239693E-1;2.342231758E-2
1.632897506E1;-3.641105890E-1;-6.707300544E-1;2.874557301E-2
1.634088912E1;-3.971147537E-1;-6.760532856E-1;7.771950960E-2
1.635279850E1;-3.875329196E-1;-6.941523552E-1;1.447925121E-1
1.636470944E1;-2.650980651E-1;-7.047988772E-1;2.416757345E-1
1.637662194E1;-4.258603230E-2;-5.738468170E-1;2.214473784E-1
1.638853288E1;1.799259931E-1;-3.555933833E-1;-4.790928960E-2
1.640044538E1;3.321710527E-1;-3.651752472E-1;-2.863910794E-1
1.641235631E1;4.450240433E-1;-4.247956872E-1;-5.685235262E-1
1.642426725E1;4.226663709E-1;-3.896622062E-1;-8.144578934E-1
1.643617819E1;3.236538470E-1;-5.397779942E-1;-8.911127448E-1
1.644809069E1;2.225120217E-1;-9.560564756E-1;-5.259374976E-1
1.646000944E1;6.600835174E-2;-8.400095105E-1;-2.342231870E-1
1.647191412E1;-1.107236892E-1;-4.407654405E-1;1.064650831E-3
1.648382506E1;-1.820552945E-1;-3.939208016E-2;2.150594741E-1
1.649573756E1;-1.117883399E-1;4.184077680E-1;2.885203660E-1
1.650764850E1;1.884431988E-1;9.145350456E-1;-7.239625603E-2
1.651956725E1;4.737696350E-1;1.216895938E0;-2.395464331E-1
1.653147194E1;6.292086244E-1;1.408533096E0;-1.948311031E-1
1.654338288E1;6.441137791E-1;1.602299571E0;-8.943066746E-2
1.655529538E1;4.152138233E-1;1.656596661E0;-4.577998444E-2
1.656720631E1;-5.962044746E-2;1.425567508E0;-1.384046115E-2
1.657912506E1;-4.705756605E-1;6.643421054E-1;-3.832742944E-2
1.659102975E1;-5.844933391E-1;-3.002315462E-1;-5.110324174E-2
1.660294069E1;-4.003087282E-1;-1.058262944E0;2.555162087E-2
1.661485319E1;-2.129301662E-3;-1.618269324E0;1.256287992E-1
1.662676412E1;5.003858805E-1;-2.246413231E0;1.501157731E-1
1.663867975E1;7.271565199E-1;-2.580713749E0;8.197811246E-2
1.665059694E1;7.835830450E-1;-2.622235060E0;1.277581044E-2
1.666249850E1;7.505788207E-1;-2.313486338E0;-4.365068302E-2
1.667441100E1;6.792472601E-1;-1.747092009E0;-3.193952516E-2
1.668632194E1;5.770407319E-1;-1.012483001E0;-3.193952609E-3
1.669824225E1;3.949854672E-1;-2.448696941E-1;1.043357849E-1
1.671014538E1;1.415985674E-1;5.589416623E-1;2.672273517E-1
1.672205631E1;-6.494370103E-2;9.879959822E-1;3.736924529E-1
1.673396881E1;-2.576455176E-1;1.019935489E0;4.279896319E-1
1.674587975E1;-3.790156841E-1;8.038113713E-1;4.673817158E-1
1.675779225E1;-4.162784815E-1;5.280668139E-1;4.982565939E-1
1.676970631E1;-3.864682615E-1;2.906496823E-1;4.556705654E-1
1.678161569E1;-2.736152709E-1;3.044901490E-1;3.215245605E-1
1.679352663E1;-1.671501845E-1;3.917915225E-1;8.091346174E-2
1.680543912E1;-1.256287992E-1;4.045673311E-1;-6.813765317E-2
1.681735006E1;-9.262461960E-2;3.587873280E-1;-1.128529906E-1
1.682926100E1;-3.300417587E-2;3.279124498E-1;-1.181762442E-1
1.684117350E1;6.494370103E-2;2.544515431E-1;-1.117883399E-1
1.685308444E1;1.394692659E-1;1.501157731E-1;-1.000771821E-1
1.686499694E1;1.437278688E-1;-1.596976258E-2;-8.197811246E-2
1.687691256E1;1.256287992E-1;-3.406882659E-2;-9.475392103E-2
1.688882350E1;1.916371472E-2;6.920230389E-2;-6.387905031E-2
1.690073131E1;-1.533097178E-1;1.128529906E-1;8.304276317E-2
1.691264225E1;-1.682148278E-1;1.607622802E-1;1.575683206E-1
1.692455475E1;8.943066746E-2;1.607622802E-1;1.181762442E-1
1.693646725E1;5.014505386E-1;7.346090674E-2;1.192408949E-1
1.694837819E1;8.091346622E-1;-1.682148278E-1;7.452555746E-2
1.696028913E1;7.984881401E-1;-5.749114752E-1;5.536184460E-2
1.697220006E1;6.430491209E-1;-5.930105448E-1;1.618269235E-1
1.698411256E1;3.587873280E-1;-2.768092155E-1;2.512575984E-1
1.699602350E1;8.197811246E-2;-1.064650863E-1;3.044901490E-1
1.700793444E1;-1.181762442E-1;-1.916371472E-2;3.779510558E-1
1.701984694E1;-1.958957613E-1;2.406110913E-1;4.045673311E-1
1.703175788E1;-1.149822921E-1;6.707300544E-1;4.024380147E-1
1.704367038E1;1.533097178E-1;1.024194121E0;2.768092155E-1
1.705558131E1;2.991668880E-1;9.858666658E-1;1.458571702E-1
1.706749381E1;3.822096586E-1;8.251044154E-1;1.171115879E-2
1.707940475E1;4.088259339E-1;6.909583807E-1;-6.920230389E-2
1.709131725E1;3.460115194E-1;7.207686305E-1;-1.181762442E-1
1.710322819E1;1.990897059E-1;9.028239250E-1;-1.692794859E-1
1.711514069E1;1.490511186E-2;9.911899567E-1;-2.246413231E-1
1.712705006E1;-1.107236892E-1;9.773494601E-1;-2.650980651E-1
1.713896256E1;-1.628915817E-1;9.475392699E-1;-2.650980651E-1
1.715087350E1;-2.704213262E-1;8.719490170E-1;-2.352878302E-1
1.716278600E1;-3.885975480E-1;7.079927921E-1;-1.735380888E-1
1.717470319E1;-4.386361539E-1;6.377258301E-1;-1.022064835E-1
1.718660944E1;-4.418300986E-1;7.324797511E-1;-4.045673087E-2
1.719852038E1;-4.450240433E-1;9.358280897E-1;-6.387905218E-3
1.721043131E1;-4.950626493E-1;1.039099216E0;-2.874557301E-2
1.722234381E1;-5.557477474E-1;9.730908871E-1;-9.581857920E-2
1.723426256E1;-5.557477474E-1;9.209229946E-1;-1.330813617E-1
1.724616881E1;-5.227435827E-1;8.559792638E-1;-1.650208831E-1
1.725807975E1;-4.705756605E-1;7.197039723E-1;-1.767320335E-1
1.726999069E1;-3.939208090E-1;4.812221825E-1;-1.916371584E-1
1.728190162E1;-2.363524884E-1;1.181762442E-1;-1.703441292E-1
1.729381412E1;-9.794788063E-2;-2.384817898E-1;-1.064650863E-1
1.730573288E1;-3.619812801E-2;-4.876100719E-1;-4.471533373E-2
1.731763600E1;1.703441329E-2;-5.493598580E-1;-2.129301615E-2
1.732954850E1;2.768092230E-2;-4.876100719E-1;4.258603323E-3
1.734145944E1;-1.064650808E-2;-4.365068376E-1;6.387905031E-2
1.735337819E1;-7.771950960E-2;-4.790928662E-1;1.149822921E-1
1.736528288E1;-1.533097178E-1;-5.930105448E-1;1.575683206E-1
1.737719381E1;-1.682148278E-1;-8.027467132E-1;2.310292274E-1
1.738910631E1;-2.768092230E-2;-9.230522513E-1;2.725506127E-1
1.740101881E1;2.203827202E-1;-6.441137791E-1;1.788613349E-1
1.741293912E1;3.300417662E-1;-2.384817898E-1;-1.011418328E-1
1.742484069E1;4.045673311E-1;-4.152138159E-2;-3.545287251E-1
1.743675162E1;4.045673311E-1;5.429719388E-2;-6.206914186E-1
1.744866569E1;3.012961745E-1;7.665485889E-2;-8.048760295E-1
1.746057506E1;2.501929402E-1;-2.374171317E-1;-7.314151525E-1
1.747251100E1;2.704213262E-1;-6.270793676E-1;-3.790156841E-1
1.748442038E1;1.192408949E-1;-4.684463739E-1;-9.155996889E-2
1.749630944E1;-1.203055456E-1;-1.384046078E-1;1.064650863E-1
1.750822194E1;-3.598519862E-1;1.203055456E-1;3.130073547E-1
1.752013288E1;-4.397007823E-1;3.055547774E-1;1.990897059E-1
1.753204850E1;-3.470761776E-1;4.205370843E-1;-9.794788063E-2
1.754395631E1;-2.938436270E-1;4.524766207E-1;-7.133160532E-2
1.755586881E1;-2.800031602E-1;2.768092155E-1;7.239625603E-2
1.756777975E1;-2.970375717E-1;-3.726277873E-2;1.724734306E-1
1.757969069E1;-3.513347805E-1;-2.406110913E-1;1.543743759E-1
1.759160944E1;-3.279124498E-1;-2.874557376E-1;2.022836544E-2
1.760352662E1;-1.916371584E-1;-6.579542160E-1;-4.790928960E-2
1.761542506E1;-9.581857361E-3;-1.168986678E0;-4.471533373E-2
1.762733756E1;2.076069117E-1;-1.673631072E0;-4.152138159E-2
1.763924850E1;4.301189482E-1;-2.007931471E0;-6.707300246E-2
1.765116100E1;5.972691178E-1;-2.161241293E0;-1.224348471E-1
1.766307194E1;6.696653962E-1;-2.060099363E0;-1.841845959E-1
1.767498444E1;6.835058331E-1;-1.605493426E0;-2.491282970E-1
1.768689694E1;6.526309848E-1;-9.049532413E-1;-2.810678184E-1
1.769880788E1;4.854807854E-1;-1.724734306E-1;-2.203827202E-1
1.771072350E1;2.118655145E-1;2.800031602E-1;-1.117883399E-1
1.772262975E1;-4.684463516E-2;5.174202919E-1;2.874557301E-2
1.773454225E1;-2.725506127E-1;6.377258301E-1;1.916371584E-1
1.774646100E1;-3.981794119E-1;6.100449562E-1;2.768092155E-1
1.775836569E1;-4.439594150E-1;4.173431396E-1;3.343003690E-1
1.777028444E1;-3.949854672E-1;2.438050359E-1;3.066194355E-1
1.778218913E1;-2.054776102E-1;2.491282970E-1;1.554390192E-1
1.779410006E1;-6.387905031E-2;2.076069117E-1;-3.832742944E-2
1.780601100E1;4.684463516E-2;1.011418328E-1;-1.767320335E-1
1.781792350E1;1.384046078E-1;7.239625603E-2;-2.384817898E-1
1.782983756E1;2.033483088E-1;1.256287992E-1;-2.587101460E-1
1.784174694E1;2.512575984E-1;2.320938855E-1;-2.288999259E-1
1.785365788E1;2.342231870E-1;3.108780384E-1;-1.863138974E-1
1.786557038E1;2.086715698E-1;3.800803423E-1;-1.660855263E-1
1.787748131E1;1.756673902E-1;4.109552205E-1;-1.863138974E-1
1.788940006E1;5.323254317E-2;3.587873280E-1;-1.777966917E-1
1.790130788E1;-1.916371472E-2;2.991668880E-1;-7.133160532E-2
1.791321569E1;-6.387905218E-3;3.279124498E-1;5.323254317E-2
1.792512819E1;2.108008713E-1;2.895850241E-1;4.471533373E-2
1.793703913E1;5.749114752E-1;1.905725002E-1;4.258603323E-3
1.794895631E1;8.549146056E-1;-2.874557301E-2;-7.133160532E-2
1.796086256E1;8.442681432E-1;-4.801575243E-1;-8.517206460E-2
1.797277350E1;6.387904882E-1;-6.600835323E-1;2.129301615E-2
1.798468444E1;4.035026729E-1;-3.854036033E-1;1.511804163E-1
1.799659694E1;7.452555746E-2;-1.362753063E-1;1.905725002E-1
1.800850788E1;-1.437278688E-1;-1.415985674E-1;2.501929402E-1
1.802042038E1;-1.213701963E-1;-5.110324174E-2;2.661627233E-1
1.803233131E1;-1.320167035E-1;2.927789688E-1;3.928561509E-1
1.804424381E1;-1.245641485E-1;5.344547033E-1;4.407654405E-1
1.805615475E1;-7.452555932E-3;6.260147095E-1;2.895850241E-1
1.806806725E1;9.688322991E-2;6.196267605E-1;1.160469428E-1
1.807997819E1;1.373399645E-1;5.504244566E-1;-7.452555932E-3
1.809188912E1;1.437278688E-1;4.418300986E-1;-8.304276317E-2
1.810380163E1;1.075297371E-1;4.939979911E-1;-1.671501845E-1
1.811571256E1;6.600835174E-2;7.058635354E-1;-2.714859545E-1
1.812762506E1;2.661627159E-2;9.177290201E-1;-3.247185051E-1
1.813953600E1;-4.897394031E-2;1.025258780E0;-3.406882584E-1
1.815144694E1;-1.394692659E-1;1.079555988E0;-3.183306158E-1
1.816335944E1;-2.757445574E-1;1.237124324E0;-1.884431988E-1
1.817527038E1;-4.854807854E-1;1.320167065E0;-1.384046115E-2
1.818718912E1;-6.930876970E-1;1.244576812E0;8.623671532E-2
1.819909381E1;-8.602378964E-1;1.045487165E0;9.262461960E-2
1.821100475E1;-9.187936783E-1;8.655611277E-1;1.596976258E-2
1.822291569E1;-8.559792638E-1;6.526309848E-1;-7.346090674E-2
1.823482819E1;-7.218332887E-1;3.428175747E-1;-1.447925121E-1
1.824675475E1;-5.695881844E-1;3.300417587E-2;-1.852492392E-1
1.825865163E1;-4.333128929E-1;-2.746799290E-1;-2.118655145E-1
1.827056256E1;-3.630459309E-1;-5.440365672E-1;-2.278352827E-1
1.828247506E1;-3.332357109E-1;-7.910355926E-1;-2.097362131E-1
1.829438600E1;-3.417529166E-1;-9.305048585E-1;-1.735380888E-1
1.830630475E1;-3.364296556E-1;-1.007159710E0;-1.341460049E-1
1.831821569E1;-2.842617631E-1;-1.040163875E0;-1.234994978E-1
1.833012038E1;-2.001543641E-1;-1.000771761E0;-1.149822921E-1
1.834203288E1;-9.049531817E-2;-8.549146056E-1;-6.813765317E-2
1.835394381E1;-2.129301662E-3;-6.643421054E-1;-2.661627159E-2
1.836586725E1;1.171115879E-2;-4.705756605E-1;1.171115879E-2
1.837776881E1;-9.368927032E-2;-2.693566680E-1;2.661627159E-2
1.838967975E1;-2.182534188E-1;-1.458571702E-1;9.475392103E-2
1.840159069E1;-2.576455176E-1;-2.693566680E-1;2.257059813E-1
1.841350319E1;-1.639562249E-1;-4.695110321E-1;3.917915225E-1
1.842542662E1;-2.661627159E-2;-3.854036033E-1;2.331585288E-1
1.843733444E1;9.901253134E-2;-1.756673902E-1;-1.533097178E-1
1.844923756E1;2.022836655E-1;-8.836601675E-2;-4.354421794E-1
1.846114850E1;1.927018017E-1;-2.661627159E-2;-5.940751433E-1
1.847306100E1;9.794788063E-2;-4.152138233E-1;-5.695881844E-1
1.848497975E1;7.026695460E-2;-1.104042888E0;-3.023608327E-1
1.849688288E1;-2.129301662E-3;-1.260546565E0;-1.000771821E-1
1.850879381E1;-1.479864717E-1;-1.021000147E0;-8.730136603E-2
1.852070631E1;-2.959729433E-1;-7.378030419E-1;-1.831199378E-1
1.853261881E1;-3.374943137E-1;-4.716403186E-1;-2.310292274E-1
1.854453131E1;-3.332357109E-1;-3.971147537E-1;-1.447925121E-1
1.855644069E1;-3.832743168E-1;-4.205370843E-1;6.387905218E-3
1.856835319E1;-4.343775511E-1;-3.566580415E-1;1.671501845E-1
1.858026881E1;-4.247956872E-1;-1.330813617E-1;2.565808594E-1
1.859217662E1;-3.704984784E-1;1.575683206E-1;2.395464331E-1
1.860408756E1;-3.311064243E-1;1.160469428E-1;7.452555746E-2
1.861600944E1;-2.853264213E-1;-3.907268643E-1;-2.874557301E-2
1.862791100E1;-1.149822921E-1;-1.127465248E0;-3.193952516E-2
1.863982194E1;2.012190074E-1;-1.980250597E0;1.809906401E-2
1.865173444E1;5.301961303E-1;-2.498735428E0;3.300417587E-2
1.866364850E1;6.781826019E-1;-2.588166237E0;5.323254038E-3
1.867555788E1;6.313379407E-1;-2.145271540E0;-2.768092230E-2
1.868746881E1;5.152910352E-1;-1.245641470E0;-3.406882659E-2
1.869937975E1;3.311064243E-1;-2.895850241E-1;4.790928960E-2
1.871129225E1;7.665485889E-2;3.630459309E-1;1.628915817E-1
1.872320944E1;-1.746027321E-1;6.739239693E-1;2.746799290E-1
1.873511413E1;-3.108780384E-1;6.281439662E-1;2.991668880E-1
1.874702662E1;-3.492054641E-1;4.577998519E-1;2.789385319E-1
1.875893912E1;-3.012961745E-1;3.768863976E-1;2.288999259E-1
1.877085006E1;-1.788613349E-1;4.013733566E-1;1.160469428E-1
1.878276725E1;-1.128529906E-1;3.694338500E-1;2.768092230E-2
1.879467350E1;-1.128529906E-1;2.927789688E-1;-3.832742944E-2
1.880658600E1;-1.192408949E-1;2.438050359E-1;-5.536184460E-2
1.881849694E1;-1.064650863E-1;2.640334070E-1;-6.813765317E-2
1.883040788E1;-4.897394031E-2;3.353650272E-1;-6.920230389E-2
1.884232038E1;3.939208016E-2;3.406882584E-1;-6.387905031E-2
1.885423131E1;1.756673902E-1;2.927789688E-1;-7.026695460E-2
1.886614225E1;3.076840937E-1;1.799259931E-1;-1.245641485E-1
1.887805475E1;2.544515431E-1;7.984881103E-2;-1.852492392E-1
1.888996569E1;3.939208016E-2;2.661627159E-2;-2.214473784E-1
1.890188444E1;-1.682148278E-1;2.235766686E-2;-1.543743759E-1
1.891379538E1;-2.885203660E-1;7.346090674E-2;7.346090674E-2
1.892570006E1;-2.395464331E-1;1.320167035E-1;2.597748041E-1
1.893761256E1;7.346090674E-2;3.193952516E-2;2.012190074E-1
1.894952350E1;5.908812284E-1;-9.688322991E-2;1.043357849E-1
1.896144225E1;9.166643620E-1;-4.258603454E-1;4.365068302E-2
1.897334694E1;7.516434789E-1;-1.039099216E0;7.452555746E-2
1.898525788E1;4.546059072E-1;-1.052939653E0;1.788613349E-1
1.899717194E1;-1.064650808E-2;-5.429719090E-1;2.459343374E-1
1.900908131E1;-4.780282378E-1;-2.917143404E-1;2.736152709E-1
1.902100006E1;-6.622128487E-1;-2.576455176E-1;3.119426966E-1
1.903292350E1;-6.558248997E-1;-2.086715698E-1;3.396236300E-1
1.904481569E1;-5.142263770E-1;-1.309520602E-1;3.875329196E-1
1.905672819E1;-2.203827202E-1;7.452555932E-3;2.533869147E-1
1.906863912E1;2.235766686E-2;7.984881103E-2;1.181762442E-1
1.908055788E1;8.836601675E-2;-5.749114603E-2;3.087487444E-2
1.909246256E1;4.471533373E-2;-2.150594741E-1;-8.517206647E-3
1.910437506E1;-1.490511186E-2;-1.458571702E-1;-8.517206647E-3
1.911628600E1;-7.771950960E-2;1.054004356E-1;-4.365068302E-2
1.912819694E1;-1.149822921E-1;4.886747301E-1;-1.266934574E-1
1.914011256E1;-1.831199378E-1;6.100449562E-1;-1.511804163E-1
1.915202350E1;-2.746799290E-1;5.663942695E-1;-1.277581006E-1
1.916393131E1;-3.907268643E-1;4.641877711E-1;-7.239625603E-2
1.917584381E1;-5.035798550E-1;4.035026729E-1;7.452555932E-3
1.918775475E1;-6.238853931E-1;3.545287251E-1;7.878416032E-2
1.919967350E1;-6.739239693E-1;2.789385319E-1;1.415985674E-1
1.921157819E1;-6.696653962E-1;1.256287992E-1;1.916371584E-1
1.922348912E1;-6.281439662E-1;-2.022836544E-2;1.714087874E-1
1.923540162E1;-5.770407319E-1;-1.490511149E-1;8.517206460E-2
1.924731413E1;-5.099677444E-1;-2.746799290E-1;-7.771950960E-2
1.925923131E1;-4.801575243E-1;-2.619041204E-1;-1.724734306E-1
1.927113600E1;-4.279896319E-1;-1.905725002E-1;-2.086715698E-1
1.928304850E1;-3.651752472E-1;-1.224348471E-1;-2.416757345E-1
1.929495944E1;-3.076840937E-1;-7.878416032E-2;-2.565808594E-1
1.930687194E1;-2.800031602E-1;-8.836601675E-2;-2.757445574E-1
1.931878444E1;-2.863910794E-1;-1.234994978E-1;-2.853264213E-1
1.933069538E1;-2.714859545E-1;-1.192408949E-1;-2.384817898E-1
1.934260631E1;-1.852492392E-1;-1.022064835E-1;-1.128529906E-1
1.935451725E1;-2.981022373E-2;-1.192408949E-1;3.193952516E-2
1.936642975E1;4.684463516E-2;-2.203827202E-1;1.533097178E-1
1.937834069E1;-7.559020817E-2;-4.205370843E-1;2.246413231E-1
1.939025162E1;-3.438822329E-1;-5.695881844E-1;3.619812727E-1
1.940216413E1;-5.376486778E-1;-5.376486778E-1;6.089802980E-1
1.941407662E1;-5.259374976E-1;-2.650980651E-1;8.272337317E-1
1.942598756E1;-2.640334070E-1;2.491282970E-1;5.248728395E-1
1.943790006E1;1.022064835E-1;4.247956872E-1;-1.735380888E-1
1.944981100E1;2.927789688E-1;1.288227588E-1;-4.982565939E-1
1.946172194E1;2.619041204E-1;-5.206142664E-1;-7.175746560E-1
1.947363288E1;1.607622802E-1;-1.110430837E0;-7.548374534E-1
1.948554538E1;1.809906363E-1;-1.756673932E0;-4.865454435E-1
1.949745631E1;2.225120217E-1;-1.899337053E0;-8.197811246E-2
1.950936881E1;-1.490511186E-2;-1.678954363E0;2.097362131E-1
1.952127975E1;-3.311064243E-1;-1.354235888E0;2.118655145E-1
1.953319225E1;-4.322482347E-1;-7.612253428E-1;-5.536184460E-2
1.954510944E1;-2.874557376E-1;-4.098905623E-1;-1.916371584E-1
1.955701413E1;-6.494370103E-2;-4.716403186E-1;-1.692794859E-1
1.956892506E1;9.049531817E-2;-5.408426523E-1;-2.981022373E-2
1.958083756E1;1.373399645E-1;-5.301961303E-1;1.384046078E-1
1.959275006E1;6.494370103E-2;-2.203827202E-1;2.161241174E-1
1.960466100E1;-3.193952609E-3;1.809906363E-1;1.884431988E-1
1.961657819E1;8.517206647E-3;8.836601675E-2;6.174974889E-2
1.962849069E1;1.522450745E-1;-2.118655145E-1;2.874557301E-2
1.964039538E1;4.279896319E-1;-5.067738295E-1;8.943066746E-2
1.965230631E1;7.431262732E-1;-7.037342191E-1;1.660855263E-1
1.966421881E1;8.708843589E-1;-6.366612315E-1;1.958957613E-1
1.967613131E1;8.144578934E-1;-4.003087282E-1;1.937664598E-1
1.968804225E1;6.366612315E-1;-5.323254317E-2;2.076069117E-1
1.969995319E1;4.727049768E-1;1.820552945E-1;2.267706245E-1
1.971186412E1;3.151366413E-1;3.662398756E-1;2.565808594E-1
1.972377663E1;2.299645841E-1;4.716403186E-1;2.523222566E-1
1.973568756E1;2.533869147E-1;5.099677444E-1;1.927018017E-1
1.974760006E1;2.746799290E-1;5.600063205E-1;1.330813617E-1
1.975951256E1;2.917143404E-1;6.089802980E-1;7.665485889E-2
1.977142350E1;2.885203660E-1;6.622128487E-1;1.171115879E-2
1.978333444E1;2.459343374E-1;6.803118587E-1;-4.684463516E-2
1.979525319E1;2.310292274E-1;6.281439662E-1;-7.133160532E-2
1.980716412E1;2.161241174E-1;5.834286809E-1;-6.707300246E-2
1.981906881E1;1.746027321E-1;5.940751433E-1;-6.707300246E-2
1.983098131E1;1.682148278E-1;6.366612315E-1;-6.920230389E-2
1.984289381E1;1.980250627E-1;7.676132321E-1;-7.026695460E-2
1.985480475E1;1.895078421E-1;7.644193172E-1;-8.197811246E-2
1.986671881E1;1.852492392E-1;6.292086244E-1;-9.901253134E-2
1.987862663E1;2.331585288E-1;4.769635797E-1;-1.330813617E-1
1.989053912E1;2.214473784E-1;3.598519862E-1;-1.724734306E-1
1.990245162E1;1.415985674E-1;1.990897059E-1;-1.990897059E-1
1.991436413E1;3.832742944E-2;1.234994978E-1;-1.820552945E-1
1.992627350E1;-1.234994978E-1;1.011418328E-1;-3.939208016E-2
1.993818600E1;-3.513347730E-2;2.469989955E-1;9.368927032E-2
1.995009538E1;2.576455176E-1;3.790156841E-1;1.330813617E-1
1.996200788E1;6.952170134E-1;2.789385319E-1;1.405339092E-1
1.997392506E1;9.113411307E-1;-1.085943878E-1;8.410741389E-2
1.998583756E1;8.197811246E-1;-6.441137791E-1;3.513347730E-2
1.999774381E1;6.047216654E-1;-8.378801942E-1;7.984881103E-2
2.000965475E1;3.428175747E-1;-6.121742129E-1;1.447925121E-1
2.002156725E1;-7.559020817E-2;-5.120970607E-1;1.948311031E-1
2.003347819E1;-2.501929402E-1;-5.578770638E-1;1.884431988E-1
2.004538912E1;-2.789385319E-1;-4.908040464E-1;1.831199378E-1
2.005730162E1;-2.640334070E-1;-4.663170576E-1;2.331585288E-1
2.006921256E1;-1.905725002E-1;-3.768863976E-1;2.757445574E-1
2.008112506E1;-8.836601675E-2;-2.310292274E-1;2.768092155E-1
2.009304381E1;-4.577998444E-2;-1.650208831E-1;2.746799290E-1
2.010494850E1;-3.726277873E-2;-1.437278688E-1;2.267706245E-1
2.011685944E1;-1.171115935E-1;-1.277581044E-2;1.362753063E-1
2.012877038E1;-2.831971347E-1;2.640334070E-1;-1.064650831E-3
2.014068288E1;-3.779510558E-1;5.259374976E-1;-1.639562249E-1
2.015260006E1;-3.758217394E-1;7.761304379E-1;-2.725506127E-1
2.016450475E1;-3.587873280E-1;8.549146056E-1;-3.087487519E-1
2.017641725E1;-3.779510558E-1;6.686007380E-1;-2.597748041E-1
2.018832819E1;-4.269249737E-1;3.587873280E-1;-1.895078421E-1
2.020024069E1;-4.716403186E-1;1.863138974E-1;-1.426632106E-1
2.021215162E1;-5.078384280E-1;1.852492392E-1;-1.330813617E-1
2.022406725E1;-5.610709786E-1;2.065422684E-1;-1.352106631E-1
2.023597350E1;-5.557477474E-1;2.576455176E-1;-1.309520602E-1
2.024788756E1;-4.663170576E-1;3.566580415E-1;-9.901253134E-2
2.025979850E1;-2.991668880E-1;4.790928662E-1;-8.197811246E-2
2.027171413E1;-1.011418328E-1;6.292086244E-1;-9.475392103E-2
2.028362038E1;5.962044746E-2;7.282211781E-1;-1.213701963E-1
2.029553288E1;1.682148278E-1;7.207686305E-1;-1.596976221E-1
2.030744381E1;2.086715698E-1;6.898937225E-1;-1.841845959E-1
2.031935944E1;2.044129670E-1;6.206914186E-1;-1.863138974E-1
2.033126725E1;1.309520602E-1;5.014505386E-1;-1.511804163E-1
2.034317975E1;5.323254038E-3;3.694338500E-1;-8.836601675E-2
2.035509069E1;-7.239625603E-2;3.790156841E-1;1.064650831E-3
2.036700319E1;-1.479864717E-1;4.546059072E-1;1.181762442E-1
2.037891412E1;-2.682920098E-1;4.939979911E-1;2.139948159E-1
2.039082819E1;-4.152138233E-1;4.418300986E-1;3.289771080E-1
2.040274069E1;-4.950626493E-1;2.650980651E-1;5.174202919E-1
2.041464850E1;-4.088259339E-1;3.939208016E-2;6.366612315E-1
2.042655944E1;-1.469218135E-1;-1.160469428E-1;6.185621619E-1
2.043847194E1;1.863138974E-1;2.235766686E-2;1.980250627E-1
2.045038912E1;4.556705654E-1;4.684463516E-2;-3.012961745E-1
2.046229850E1;6.430491209E-1;-1.927018017E-1;-7.729365230E-1
2.047420631E1;6.643421054E-1;-3.843389452E-1;-1.154081464E0
2.048611881E1;4.450240433E-1;-3.800803423E-1;-1.403209805E0
2.049803288E1;3.449468613E-1;-5.280668139E-1;-1.094461083E0
2.050994538E1;2.171887755E-1;-5.663942695E-1;-4.897393882E-1
2.052185319E1;-5.642649531E-2;-5.238082409E-1;-1.320167035E-1
2.053376412E1;-3.758217394E-1;-3.736924529E-1;1.895078421E-1
2.054567663E1;-5.908812284E-1;-1.533097178E-1;5.887519121E-1
2.055759381E1;-4.929333329E-1;2.576455176E-1;6.004630923E-1
2.056950006E1;-2.863910794E-1;8.442681432E-1;1.948311031E-1
2.058142975E1;-9.049531817E-2;1.486252546E0;3.087487444E-2
2.059332194E1;-6.707300246E-2;1.728992939E0;1.043357849E-1
2.060523444E1;-1.341460049E-1;1.414920926E0;8.197811246E-2
2.061714538E1;-1.373399645E-1;7.527081370E-1;6.494370103E-2
2.062905944E1;6.707300246E-2;2.661627159E-2;3.939208016E-2
2.064096881E1;2.576455176E-1;-6.164328456E-1;1.809906401E-2
2.065287975E1;3.949854672E-1;-1.379787445E0;-2.235766686E-2
2.066479225E1;5.046445131E-1;-2.056905508E0;-7.771950960E-2
2.067670319E1;6.121742129E-1;-2.769156933E0;-2.086715698E-1
2.068861569E1;6.324025989E-1;-2.983151674E0;-3.183306158E-1
2.070053756E1;6.398551464E-1;-2.722312212E0;-3.939208090E-1
2.071243756E1;6.515663266E-1;-1.797130585E0;-4.641877711E-1
2.072435006E1;5.738468170E-1;-6.409198046E-1;-3.747570813E-1
2.073626100E1;3.832743168E-1;3.396236300E-1;-1.575683206E-1
2.074817350E1;1.203055456E-1;9.358280897E-1;5.642649531E-2
2.076008600E1;-1.085943878E-1;1.099784374E0;1.852492392E-1
2.077199694E1;-2.736152709E-1;9.826727509E-1;2.768092155E-1
2.078391569E1;-3.502701223E-1;7.399323583E-1;3.492054641E-1
2.079582038E1;-3.151366413E-1;6.004630923E-1;3.257831633E-1
2.080775631E1;-1.043357849E-1;6.217560768E-1;1.469218135E-1
2.081964850E1;1.022064835E-1;5.397779942E-1;-1.266934574E-1
2.083155475E1;1.895078421E-1;4.631231129E-1;-2.171887755E-1
2.084346569E1;2.022836655E-1;4.428947568E-1;-2.235766798E-1
2.085537662E1;1.777966917E-1;5.110324025E-1;-2.044129670E-1
2.086729381E1;1.958957613E-1;5.482951999E-1;-1.948311031E-1
2.087920006E1;2.012190074E-1;5.759761333E-1;-1.809906363E-1
2.089111100E1;1.639562249E-1;5.419072509E-1;-1.554390192E-1
2.090302350E1;1.618269235E-1;3.289771080E-1;-1.426632106E-1
2.091493600E1;9.688322991E-2;1.415985674E-1;-5.855579674E-2
2.092684850E1;-9.581857361E-3;3.726277873E-2;1.032711342E-1
2.093877663E1;2.342231758E-2;5.749114603E-2;1.596976221E-1
2.095067038E1;3.098133802E-1;1.181762442E-1;1.362753063E-1
2.096258131E1;6.600835323E-1;2.342231758E-2;3.939208016E-2
2.097449381E1;8.889834285E-1;-3.268478215E-1;-7.346090674E-2
2.098641256E1;7.590960264E-1;-6.505016685E-1;-4.152138159E-2
2.099831725E1;4.279896319E-1;-6.654067636E-1;1.075297371E-1
2.101022819E1;5.642649531E-2;-4.908040464E-1;2.150594741E-1
2.102213913E1;-2.235766798E-1;-3.683691919E-1;3.151366413E-1
2.103405162E1;-3.023608327E-1;-4.088259339E-1;2.938436270E-1
2.104597194E1;-2.863910794E-1;-3.673045337E-1;3.140719831E-1
2.105788131E1;-1.927018017E-1;-2.938436270E-1;3.460115194E-1
2.106978600E1;2.874557301E-2;-1.511804163E-1;2.693566680E-1
2.108169694E1;1.714087874E-1;-4.684463516E-2;2.203827202E-1
2.109360788E1;2.171887755E-1;-2.203827202E-1;2.086715698E-1
2.110552194E1;1.000771821E-1;-3.183306158E-1;2.193180770E-1
2.111744225E1;-1.458571702E-1;-2.097362131E-1;1.831199378E-1
2.112934225E1;-3.428175747E-1;-1.490511186E-2;7.239625603E-2
2.114125475E1;-5.301961303E-1;1.011418328E-1;-1.054004356E-1
2.115316725E1;-6.047216654E-1;-4.684463516E-2;-1.724734306E-1
2.116507819E1;-6.419844627E-1;-2.044129670E-1;-1.650208831E-1
2.117699850E1;-7.292858362E-1;-3.215245605E-1;-1.213701963E-1
2.118890162E1;-7.878416181E-1;-2.831971347E-1;-8.091346174E-2
2.120081256E1;-8.016820550E-1;-9.901253134E-2;-3.193952516E-2
2.121272506E1;-8.378801942E-1;1.788613349E-1;-5.323254317E-2
2.122464225E1;-8.772723079E-1;3.279124498E-1;-1.054004356E-1
2.123654694E1;-8.634318113E-1;3.577226698E-1;-1.937664598E-1
2.124845944E1;-7.186393142E-1;3.875329196E-1;-2.342231870E-1
2.126037194E1;-5.099677444E-1;4.833514690E-1;-2.661627233E-1
2.127228288E1;-3.300417662E-1;6.100449562E-1;-3.225892186E-1
2.128420162E1;-2.863910794E-1;6.111095548E-1;-4.546059072E-1
2.129612663E1;-3.577226698E-1;5.440365672E-1;-5.844933391E-1
2.130801725E1;-4.407654405E-1;4.365068376E-1;-5.812993646E-1
2.131992975E1;-4.758989215E-1;3.023608327E-1;-3.907268643E-1
2.133184069E1;-4.247956872E-1;6.494370103E-2;-3.619812801E-2
2.134375944E1;-2.991668880E-1;-2.342231870E-1;2.725506127E-1
2.135566412E1;-2.501929402E-1;-3.428175747E-1;4.844161272E-1
2.136757506E1;-3.076840937E-1;-4.322482347E-1;5.504244566E-1
2.137948756E1;-4.375714958E-1;-5.365840197E-1;4.961272776E-1
2.139140006E1;-5.887519121E-1;-5.653296113E-1;3.289771080E-1
2.140331256E1;-6.377258301E-1;-5.653296113E-1;1.948311031E-1
2.141522194E1;-6.228207350E-1;-4.716403186E-1;1.394692659E-1
2.142713288E1;-4.556705654E-1;-2.012190074E-1;7.771950960E-2
2.143904538E1;-1.980250627E-1;1.000771821E-1;-6.920230389E-2
2.145095788E1;-5.429719388E-2;1.490511186E-2;-2.714859545E-1
2.146287506E1;4.152138159E-2;-4.492826462E-1;-4.077612758E-1
2.147477975E1;1.469218135E-1;-1.008224368E0;-5.216789246E-1
2.148669225E1;1.916371584E-1;-1.461765647E0;-5.653296113E-1
2.149860319E1;1.256287992E-1;-1.708764553E0;-4.556705654E-1
2.151051412E1;-1.724734306E-1;-1.125335932E0;-2.725506127E-1
2.152243288E1;-5.940751433E-1;-4.673817158E-1;-1.256287992E-1
2.153433913E1;-9.464746118E-1;-6.813765317E-2;-1.384046115E-2
2.154624850E1;-9.773494601E-1;1.277581006E-1;-6.920230389E-2
2.155816100E1;-7.899709344E-1;7.452555932E-3;-2.065422684E-1
2.157007350E1;-6.771179438E-1;-7.921002507E-1;-2.927789688E-1
2.158199069E1;-5.078384280E-1;-1.460700989E0;-2.076069117E-1
2.159389538E1;-2.448696941E-1;-1.522450686E0;-8.091346174E-2
2.160580788E1;-1.330813617E-1;-1.269063830E0;-2.768092230E-2
2.161771881E1;-1.362753063E-1;-9.592503905E-1;-9.901253134E-2
2.162962975E1;-1.203055456E-1;-7.271565199E-1;-2.022836655E-1
2.164154850E1;-9.581857361E-3;-6.973463297E-1;-1.895078421E-1
2.165345944E1;1.628915817E-1;-7.335444093E-1;-1.596976221E-1
2.166536412E1;2.491282970E-1;-6.590188742E-1;-1.352106631E-1
2.167727662E1;1.852492392E-1;-5.227435827E-1;-1.054004356E-1
2.168918756E1;4.790928960E-2;-3.960501254E-1;-2.661627159E-2
2.170110162E1;-4.577998444E-2;-3.939208090E-1;2.129301615E-2
2.171301100E1;-8.623671532E-2;-4.982565939E-1;5.536184460E-2
2.172492350E1;-1.458571702E-1;-6.430491209E-1;7.771950960E-2
2.173683913E1;-2.086715698E-1;-7.207686305E-1;7.984881103E-2
2.174874694E1;-3.247185051E-1;-6.590188742E-1;8.197811246E-2
2.176066412E1;-4.077612758E-1;-5.802347064E-1;4.152138159E-2
2.177257194E1;-4.354421794E-1;-5.248728395E-1;-5.323254038E-3
2.178448131E1;-4.216017425E-1;-4.514119625E-1;-4.897394031E-2
2.179639225E1;-3.428175747E-1;-3.247185051E-1;-6.920230389E-2
2.180830631E1;-2.374171317E-1;-7.771950960E-2;-5.749114603E-2
2.182022350E1;-1.054004356E-1;1.522450745E-1;-2.129301662E-3
2.183212819E1;4.790928960E-2;2.895850241E-1;7.984881103E-2
2.184403913E1;1.639562249E-1;3.438822329E-1;1.011418328E-1
2.185595163E1;2.395464331E-1;4.141491652E-1;9.262461960E-2
2.186786256E1;3.907268643E-1;4.098905623E-1;6.281439960E-2
2.187977975E1;6.111095548E-1;4.577998519E-1;3.087487444E-2
2.189170631E1;7.750658393E-1;5.280668139E-1;-1.596976258E-2
2.190359694E1;6.973463297E-1;4.247956872E-1;-3.513347730E-2
2.191550944E1;3.428175747E-1;1.799259931E-1;-2.981022373E-2
2.192742038E1;-1.277581044E-2;7.452555746E-2;8.943066746E-2
2.193934381E1;-9.581857361E-3;2.746799290E-1;2.661627233E-1
2.195124381E1;4.588645101E-1;5.568124056E-1;2.406110913E-1
2.196315475E1;9.432806373E-1;5.376486778E-1;1.405339092E-1
2.197506569E1;1.348912597E0;3.481408358E-1;7.559020817E-2
2.198697819E1;1.261611223E0;-1.000771821E-1;1.916371472E-2
2.199889850E1;7.814537287E-1;-3.822096586E-1;8.304276317E-2
2.201080163E1;3.683691919E-1;-1.735380888E-1;1.735380888E-1
2.202271256E1;-1.064650808E-2;-5.962044746E-2;1.927018017E-1
2.203462350E1;-2.650980651E-1;-2.257059813E-1;1.458571702E-1
2.204653600E1;-2.523222566E-1;-3.960501254E-1;1.298874021E-1
2.205844694E1;-7.984881103E-2;-1.969604045E-1;2.853264213E-1
2.207035944E1;1.160469428E-1;1.618269235E-1;3.981794119E-1
2.208228913E1;2.161241174E-1;3.534640670E-1;3.832743168E-1
2.209418288E1;3.183306158E-1;4.971919358E-1;3.438822329E-1
2.210609381E1;4.194724262E-1;6.952170134E-1;3.566580415E-1
2.211801256E1;4.173431396E-1;8.272337317E-1;3.268478215E-1
2.212991725E1;3.257831633E-1;9.219876528E-1;2.182534188E-1
2.214182819E1;1.767320335E-1;9.464746118E-1;5.429719388E-2
2.215373912E1;5.855579674E-2;8.666257858E-1;-5.429719388E-2
2.216565163E1;-6.600835174E-2;6.345319152E-1;-1.000771821E-1
2.217756256E1;-1.352106631E-1;3.811450005E-1;-9.049531817E-2
2.218947506E1;-1.927018017E-1;1.916371584E-1;-3.513347730E-2
2.220138600E1;-2.523222566E-1;1.288227588E-1;1.703441329E-2
2.221329694E1;-3.215245605E-1;2.044129670E-1;2.661627159E-2
2.222520944E1;-4.045673311E-1;3.768863976E-1;3.619812801E-2
2.223714850E1;-4.492826462E-1;5.461658835E-1;4.152138159E-2
2.224903288E1;-4.652524292E-1;6.898937225E-1;2.768092230E-2
2.226094381E1;-4.120198786E-1;6.686007380E-1;6.387905218E-3
2.227285631E1;-2.555162013E-1;4.503473043E-1;-2.022836544E-2
2.228476725E1;-8.410741389E-2;1.490511149E-1;-3.193952516E-2
2.229668600E1;5.003859103E-2;-8.517206647E-3;-9.581857361E-3
2.230859069E1;1.234994978E-1;-3.406882659E-2;3.087487444E-2
2.232050163E1;1.447925121E-1;-2.555162087E-2;7.559020817E-2
2.233241412E1;1.085943878E-1;-2.235766686E-2;1.490511149E-1
2.234432662E1;1.384046115E-2;0.000000000E0;2.395464331E-1
2.235624381E1;-7.771950960E-2;5.323254317E-2;3.055547774E-1
2.236815319E1;-1.384046078E-1;1.426632106E-1;3.076840937E-1
2.238005944E1;-1.788613349E-1;1.841845959E-1;2.533869147E-1
2.239197194E1;-2.118655145E-1;9.901253134E-2;2.097362131E-1
2.240388444E1;-1.927018017E-1;-1.192408949E-1;2.320938855E-1
2.241579538E1;-2.342231758E-2;-3.076840937E-1;2.842617631E-1
2.242770631E1;2.512575984E-1;-4.993212521E-1;2.544515431E-1
2.243961881E1;4.854807854E-1;-7.580313683E-1;1.032711342E-1
2.245152975E1;6.228207350E-1;-8.804662228E-1;-9.688322991E-2
2.246344225E1;7.090574503E-1;-7.367383838E-1;-2.320938855E-1
2.247536100E1;6.664714217E-1;-4.865454435E-1;-2.725506127E-1
2.248726881E1;5.078384280E-1;-1.298874021E-1;-2.331585288E-1
2.249917662E1;2.746799290E-1;-5.536184460E-2;-4.577998444E-2
2.251108756E1;-1.256287992E-1;-4.162784815E-1;5.536184460E-2
2.252300006E1;-5.600063205E-1;-7.452555895E-1;1.788613349E-1
2.253491881E1;-6.994755864E-1;-8.123285770E-1;2.203827202E-1
2.254682350E1;-7.409969568E-1;-1.207314014E0;2.544515431E-1
2.255873444E1;-6.483723521E-1;-1.936599851E0;2.938436270E-1
2.257064538E1;-4.141491652E-1;-2.565808535E0;2.576455176E-1
2.258255788E1;-2.981022298E-1;-2.200633287E0;1.522450745E-1
2.259446881E1;-3.673045337E-1;-9.336987734E-1;1.724734306E-1
2.260637975E1;-4.088259339E-1;1.884431988E-1;7.878416032E-2
2.261829225E1;-2.001543641E-1;5.834286809E-1;-2.661627159E-2
2.263020319E1;6.920230389E-2;4.599291682E-1;6.174974889E-2
2.264211569E1;3.130073547E-1;1.160469428E-1;1.266934574E-1
2.265403288E1;4.333128929E-1;3.726277873E-2;1.511804163E-1
2.266593756E1;4.556705654E-1;-7.452555932E-3;2.129301727E-1
2.267785006E1;4.098905623E-1;-1.501157731E-1;2.320938855E-1
2.268976100E1;3.172659576E-1;-2.214473784E-1;2.363524884E-1
2.270167194E1;2.650980651E-1;-1.043357849E-1;2.299645841E-1
2.271358913E1;2.374171317E-1;8.623671532E-2;2.267706245E-1
2.272549538E1;2.139948159E-1;2.139948159E-1;1.895078421E-1
2.273740788E1;2.086715698E-1;2.150594741E-1;1.224348471E-1
2.274932038E1;2.108008713E-1;1.501157731E-1;7.239625603E-2
2.276123131E1;1.990897059E-1;7.346090674E-2;6.707300246E-2
2.277314225E1;1.586329788E-1;4.258603230E-2;7.239625603E-2
2.278505475E1;1.373399645E-1;1.565036774E-1;7.239625603E-2
2.279696569E1;1.788613349E-1;4.077612758E-1;5.962044746E-2
2.280887819E1;2.246413231E-1;6.143035293E-1;3.406882659E-2
2.282078912E1;2.225120217E-1;7.314151525E-1;1.703441329E-2
2.283270788E1;2.480636388E-1;8.027467132E-1;-5.323254038E-3
2.284461256E1;2.842617631E-1;8.740783334E-1;-3.300417587E-2
2.285652350E1;3.641105890E-1;8.836601973E-1;-7.239625603E-2
2.286843444E1;5.727821589E-1;9.124057889E-1;-8.410741389E-2
2.288034694E1;7.729365230E-1;1.001836419E0;-1.064650863E-1
2.289225788E1;6.409198046E-1;9.102764726E-1;-1.405339092E-1
2.290417038E1;2.874557376E-1;4.695110321E-1;-1.937664598E-1
2.291608131E1;-2.981022373E-2;2.533869147E-1;-1.948311031E-1
2.292799381E1;1.277581044E-2;3.811450005E-1;-1.266934574E-1
2.293990475E1;3.300417662E-1;5.355193615E-1;-6.707300246E-2
2.295181881E1;6.898937225E-1;5.685235262E-1;-6.813765317E-2
2.296372819E1;9.922545552E-1;4.854807854E-1;-1.139176413E-1
2.297563912E1;1.038034558E0;2.682920098E-1;-1.735380888E-1
2.298755163E1;7.601606846E-1;8.517206647E-3;-2.139948159E-1
2.299946256E1;4.918686748E-1;1.064650808E-2;-1.746027321E-1
2.301137975E1;2.672273517E-1;-8.304276317E-2;-1.309520602E-1
2.302328600E1;-5.749114603E-2;-3.460115194E-1;-1.213701963E-1
2.303519694E1;-2.299645841E-1;-5.057091713E-1;-9.475392103E-2
2.304710944E1;-3.343003690E-1;-3.981794119E-1;8.304276317E-2
2.305902038E1;-1.969604045E-1;-4.577998444E-2;2.342231870E-1
2.307093288E1;-4.790928960E-2;2.480636388E-1;1.735380888E-1
2.308284381E1;2.342231758E-2;1.415985674E-1;8.091346174E-2
2.309475475E1;-2.661627159E-2;-8.197811246E-2;8.517206647E-3
2.310666725E1;-7.771950960E-2;-1.990897059E-1;-4.045673087E-2
2.311857819E1;-8.623671532E-2;-8.197811246E-2;-1.809906363E-1
2.313049069E1;-1.352106631E-1;1.458571702E-1;-3.385589719E-1
2.314240319E1;-2.161241174E-1;2.874557376E-1;-4.290542901E-1
2.315431256E1;-2.991668880E-1;3.555933833E-1;-5.376486778E-1
2.316622350E1;-3.130073547E-1;3.896622062E-1;-6.015277505E-1
2.317813600E1;-3.289771080E-1;3.438822329E-1;-5.504244566E-1
2.319005319E1;-3.364296556E-1;1.746027321E-1;-4.269249737E-1
2.320196412E1;-3.162012994E-1;1.916371472E-2;-3.215245605E-1
2.321387038E1;-3.204599023E-1;-5.536184460E-2;-2.597748041E-1
2.322578288E1;-3.225892186E-1;-1.064650863E-1;-2.310292274E-1
2.323769538E1;-2.938436270E-1;-1.596976221E-1;-2.714859545E-1
2.324961412E1;-2.299645841E-1;-1.128529906E-1;-3.449468613E-1
2.326151725E1;-1.064650863E-1;1.075297371E-1;-3.492054641E-1
2.327342975E1;7.346090674E-2;3.311064243E-1;-3.044901490E-1
2.328534069E1;2.757445574E-1;6.121742129E-1;-2.416757345E-1
2.329725162E1;3.885975480E-1;9.017592669E-1;-1.490511149E-1
2.330916413E1;4.354421794E-1;9.997071624E-1;-5.855579674E-2
2.332107662E1;4.056319594E-1;8.634318113E-1;2.768092230E-2
2.333298756E1;2.853264213E-1;5.323254466E-1;9.368927032E-2
2.334489850E1;1.213701963E-1;1.415985674E-1;1.373399645E-1
2.335681100E1;-2.981022373E-2;3.087487444E-2;1.756673902E-1
2.336873131E1;-1.469218135E-1;9.155996889E-2;2.108008713E-1
2.338063444E1;-2.459343374E-1;2.214473784E-1;2.906496823E-1
2.339254538E1;-2.608394623E-1;2.757445574E-1;3.917915225E-1
2.340445788E1;-2.267706245E-1;2.065422684E-1;4.780282378E-1
2.341636881E1;-1.458571702E-1;-8.517206647E-3;4.397007823E-1
2.342828756E1;-6.920230389E-2;-2.565808594E-1;1.405339092E-1
2.344019069E1;-3.193952609E-3;-4.801575243E-1;-1.234994978E-1
2.345210319E1;1.000771821E-1;-6.206914186E-1;-2.587101460E-1
2.346401413E1;1.852492392E-1;-6.696653962E-1;-2.831971347E-1
2.347592663E1;1.160469428E-1;-6.579542160E-1;-2.853264213E-1
2.348783756E1;-2.874557301E-2;-7.239625454E-1;-2.927789688E-1
2.349975944E1;-1.160469428E-1;-8.240397573E-1;-2.874557376E-1
2.351166100E1;-2.299645841E-1;-9.198583364E-1;-2.257059813E-1
2.352357194E1;-3.098133802E-1;-8.815308809E-1;-1.000771821E-1
2.353548600E1;-4.269249737E-1;-9.060178399E-1;-1.384046115E-2
2.354740475E1;-4.822868407E-1;-1.055068970E0;2.981022373E-2
2.355930631E1;-4.556705654E-1;-1.095525742E0;8.517206460E-2
2.357121881E1;-3.875329196E-1;-8.804662228E-1;2.310292274E-1
2.358312975E1;-3.087487519E-1;-5.440365672E-1;3.502701223E-1
2.359504225E1;-2.299645841E-1;-8.304276317E-2;3.460115194E-1
2.360695944E1;-2.235766798E-1;8.091346174E-2;2.406110913E-1
2.361886725E1;-1.937664598E-1;5.536184460E-2;1.181762442E-1
2.363077663E1;-1.107236892E-1;-2.672273517E-1;-7.452555932E-3
2.364268756E1;1.075297371E-1;-6.419844627E-1;-4.365068302E-2
2.365460006E1;4.130845368E-1;-7.793244123E-1;-4.684463516E-2
2.366653444E1;6.132388711E-1;-6.675360799E-1;-5.110324174E-2
2.367844850E1;6.654067636E-1;-4.035026729E-1;-2.981022373E-2
2.369033444E1;5.557477474E-1;-7.239625603E-2;3.726277873E-2
2.370224538E1;3.151366413E-1;2.672273517E-1;1.320167035E-1
2.371415788E1;1.064650863E-1;4.993212521E-1;1.746027321E-1
2.372607819E1;-2.129301615E-2;6.281439662E-1;1.628915817E-1
2.373798131E1;-1.064650863E-1;6.877644658E-1;1.224348471E-1
2.374989225E1;-1.054004356E-1;6.228207350E-1;4.471533373E-2
2.376180475E1;-2.661627159E-2;5.120970607E-1;-4.471533373E-2
2.377371569E1;7.878416032E-2;5.120970607E-1;-6.813765317E-2
2.378563444E1;1.671501845E-1;5.855579376E-1;-5.962044746E-2
