"Time (s)";"Acceleration x (m/s^2)";"Acceleration y (m/s^2)";"Acceleration z (m/s^2)"
0.000000000E0;4.699703217E0;5.769412994E0;6.352161884E0
1.191250000E-2;4.721873760E0;5.782897472E0;6.346588612E0
2.382343700E-2;4.809740543E0;5.859358311E0;6.088234901E0
3.573437500E-2;4.662267208E0;5.916034222E0;5.896085262E0
4.764687500E-2;4.611280441E0;5.946842670E0;5.953843117E0
5.955781200E-2;4.733806133E0;5.985973835E0;6.048222542E0
7.147031200E-2;4.713685036E0;6.000386715E0;6.337892532E0
8.338125000E-2;4.675033092E0;6.055942059E0;6.647941589E0
9.529375000E-2;4.753505230E0;6.155578613E0;6.513301373E0
1.072078120E-1;4.913217545E0;6.249766827E0;6.345266819E0
1.191156250E-1;4.801111698E0;6.155607224E0;6.479753971E0
1.310281250E-1;4.765083790E0;6.090006351E0;6.395755291E0
1.429390620E-1;4.646043777E0;5.987295151E0;6.468692303E0
1.548515620E-1;4.632148266E0;5.936279297E0;6.433162689E0
1.667625000E-1;4.660830498E0;5.973485470E0;6.482894897E0
1.786812500E-1;4.778615952E0;5.938836575E0;6.485767841E0
1.905921870E-1;4.865563869E0;6.038434982E0;6.287087440E0
2.024968750E-1;4.698745251E0;6.143942833E0;6.254995823E0
2.144078120E-1;4.749521255E0;6.155492783E0;6.349489689E0
2.263296870E-1;4.827831268E0;6.086491585E0;6.559442520E0
2.382312500E-1;4.844657898E0;6.074865341E0;6.680454731E0
2.501437500E-1;4.871109009E0;6.151901245E0;6.498466969E0
2.620546870E-1;4.962509632E0;6.144718647E0;6.476545334E0
2.739671870E-1;4.778453350E0;6.122318268E0;6.369495869E0
2.858781250E-1;4.677370071E0;6.304718494E0;6.275116920E0
2.977906250E-1;4.709624290E0;6.236359119E0;6.656273365E0
3.097109370E-1;4.426649094E0;6.325471401E0;6.682963848E0
3.216125000E-1;4.624707222E0;6.669613838E0;5.927717686E0
3.335250000E-1;5.161822319E0;5.985762596E0;6.902091026E0
3.454375000E-1;4.363557339E0;4.576535702E0;7.299662590E0
3.573531250E-1;4.573384762E0;3.983214140E0;6.531784534E0
3.692609370E-1;4.455034733E0;4.039679050E0;6.394289970E0
3.811718750E-1;3.873712778E0;4.657507896E0;6.193397522E0
3.930828120E-1;3.680098534E0;5.184289455E0;6.540604591E0
4.049953120E-1;3.925150156E0;5.537539482E0;7.615811825E0
4.169125000E-1;4.980945110E0;6.588785648E0;7.753086090E0
4.288171870E-1;5.261344433E0;6.994851589E0;7.422150135E0
4.407296870E-1;4.734313488E0;7.038378239E0;7.017596722E0
4.526406250E-1;4.393666267E0;6.940771580E0;6.792876720E0
4.645515620E-1;4.341731548E0;6.643593788E0;6.568703175E0
4.764703120E-1;4.124204159E0;6.114657402E0;6.576527119E0
4.883750000E-1;3.634053469E0;5.633996964E0;6.741458893E0
5.002875000E-1;3.288435936E0;5.113076210E0;6.839228630E0
5.121984370E-1;3.002367258E0;5.015421391E0;6.987707615E0
5.241093750E-1;3.091373920E0;5.100253105E0;7.249336243E0
5.360218750E-1;3.731593370E0;5.212981224E0;7.149909496E0
5.479328120E-1;4.556462765E0;5.554213047E0;6.939727306E0
5.598453120E-1;4.847693443E0;5.990532398E0;6.951449871E0
5.717562500E-1;4.749358654E0;6.038349152E0;7.000483036E0
5.836687500E-1;4.579063892E0;5.842216492E0;6.831672192E0
5.955812500E-1;4.453396797E0;5.924049854E0;6.800184250E0
6.075031250E-1;4.269780636E0;5.961466312E0;6.976119518E0
6.194031250E-1;3.839447260E0;5.287508488E0;7.984040260E0
6.313140620E-1;3.079067945E0;5.028963566E0;7.759099960E0
6.432265620E-1;2.756501913E0;4.911915302E0;6.931740761E0
6.551375000E-1;2.981020451E0;5.241443634E0;6.852157116E0
6.670484370E-1;3.648677349E0;5.560801983E0;7.032248974E0
6.789609370E-1;4.070123672E0;5.668694019E0;7.071792126E0
6.908718750E-1;4.129729748E0;5.629821777E0;7.432214737E0
7.027828120E-1;4.082822323E0;5.809674263E0;7.596964836E0
7.146984370E-1;4.441522121E0;6.339587212E0;6.987343788E0
7.266062500E-1;4.324273109E0;6.154630661E0;6.770112991E0
7.385187500E-1;4.128695488E0;6.113450050E0;6.851755142E0
7.504296870E-1;4.205214500E0;6.005759239E0;7.131225586E0
7.623421870E-1;4.201335430E0;5.908046722E0;6.999774456E0
7.742546870E-1;4.095856667E0;5.867699623E0;7.081119537E0
7.861765620E-1;3.962308168E0;5.702672482E0;7.052532673E0
7.980765620E-1;4.201958179E0;5.616423607E0;7.023840904E0
8.099875000E-1;4.543275356E0;5.537663937E0;7.262121201E0
8.219000000E-1;3.996056557E0;5.611367226E0;7.036128044E0
8.338109370E-1;3.751599073E0;5.371803284E0;6.624784470E0
8.457250000E-1;3.672015905E0;5.330143929E0;6.442155361E0
8.576343750E-1;3.789705276E0;5.444586754E0;6.444376945E0
8.695468750E-1;4.130409718E0;5.673223495E0;6.968668938E0
8.814578120E-1;4.319005966E0;5.638000011E0;7.118574619E0
8.933734370E-1;4.458281040E0;5.638239861E0;6.998739719E0
9.052812500E-1;4.732407570E0;5.804770470E0;7.143828392E0
9.171921870E-1;4.935751915E0;5.878818989E0;7.000377655E0
9.291281250E-1;4.952492237E0;5.873148918E0;6.995723248E0
9.410156250E-1;4.747817039E0;5.810957432E0;6.766061783E0
9.529265620E-1;4.396309376E0;5.669478893E0;6.515053749E0
9.648390620E-1;4.528546333E0;5.475060463E0;6.423413277E0
9.767500000E-1;4.552172184E0;5.496129513E0;6.450458050E0
9.886625000E-1;4.523537636E0;5.559930325E0;6.770419598E0
1.000579687E0;4.721509457E0;5.575013638E0;6.705009937E0
1.012485937E0;4.719526768E0;5.756187439E0;6.547413349E0
1.024423437E0;4.841104507E0;5.894534111E0;6.314007759E0
1.036310937E0;5.183465958E0;5.999907494E0;6.033244610E0
1.048220312E0;5.311469078E0;6.094162464E0;6.059475422E0
1.060139062E0;5.332346916E0;6.089632988E0;6.256442070E0
1.072042187E0;5.131348610E0;5.956448078E0;6.325538635E0
1.083954687E0;5.053144455E0;5.973016262E0;6.299537182E0
1.095865625E0;4.897033215E0;5.770198345E0;6.075612068E0
1.107778125E0;4.544989586E0;5.537587166E0;6.310368538E0
1.119689062E0;4.586524487E0;5.527205944E0;6.773982048E0
1.131601562E0;4.704232693E0;5.578097343E0;6.827899456E0
1.143512500E0;4.908448696E0;5.689168930E0;6.604969978E0
1.155423437E0;5.269226074E0;5.934996128E0;6.451597691E0
1.167335937E0;5.492002010E0;6.101957798E0;6.459192276E0
1.179251562E0;5.507343769E0;6.153644085E0;6.187967300E0
1.191157812E0;5.303003311E0;6.133235931E0;6.501157761E0
1.203070312E0;4.951525211E0;5.936403751E0;6.472762585E0
1.214981250E0;4.687511921E0;5.684706688E0;5.994362831E0
1.226893750E0;4.759021759E0;5.608235359E0;5.814453125E0
1.238804687E0;5.026051521E0;5.637147903E0;6.172558784E0
1.250717187E0;5.214293480E0;5.577972889E0;6.439521313E0
1.262628125E0;5.375825882E0;5.544539928E0;6.439186573E0
1.274540625E0;5.528403282E0;5.639456272E0;6.400975227E0
1.286451562E0;5.536198616E0;5.596676350E0;6.064943790E0
1.298368750E0;5.399116039E0;5.532013893E0;5.845146656E0
1.310275000E0;5.286617756E0;5.476947308E0;6.068630695E0
1.322185937E0;5.281541824E0;5.504930496E0;6.306097507E0
1.334098437E0;5.410359383E0;5.553044319E0;6.525549889E0
1.346009375E0;5.514832973E0;5.578049183E0;6.387328148E0
1.357921875E0;5.579323292E0;5.593429565E0;6.283103466E0
1.369834375E0;5.512601376E0;5.510216713E0;6.236809254E0
1.381743750E0;5.668732643E0;5.506568432E0;6.218019485E0
1.393656250E0;5.775360584E0;5.613876343E0;6.315683365E0
1.405567187E0;5.677638531E0;5.677427769E0;6.165471554E0
1.417479687E0;5.518769264E0;5.670963287E0;6.059226513E0
1.429392187E0;5.508674622E0;5.618415356E0;6.104055882E0
1.441303125E0;5.484148979E0;5.501157284E0;5.979748726E0
1.453214062E0;5.425385952E0;5.497834206E0;6.027757168E0
1.465125000E0;5.482328892E0;5.484943867E0;6.001449585E0
1.477037500E0;5.533115387E0;5.492040157E0;5.984076977E0
1.488948437E0;5.570110321E0;5.494194984E0;5.854282856E0
1.500859375E0;5.720619202E0;5.587118626E0;5.943299294E0
1.512771875E0;5.917777061E0;5.649961472E0;5.962165356E0
1.524682812E0;5.845337868E0;5.618425369E0;5.878923893E0
1.536593750E0;5.707231045E0;5.541915894E0;6.030419350E0
1.548506250E0;5.781968117E0;5.526813507E0;6.184347630E0
1.560426562E0;5.861427307E0;5.505437851E0;6.073677540E0
1.572329687E0;5.819145679E0;5.513032913E0;5.997044563E0
1.584240625E0;5.855537415E0;5.491226196E0;6.105875015E0
1.596156250E0;5.864415169E0;5.506922245E0;6.013247967E0
1.608064062E0;5.959857464E0;5.561136723E0;5.968160629E0
1.619976562E0;6.002982140E0;5.593717098E0;5.793489456E0
1.631887500E0;5.971129417E0;5.626096249E0;5.953804970E0
1.643798437E0;5.945492268E0;5.602949142E0;5.983273029E0
1.655717187E0;5.892590046E0;5.549922466E0;5.930140495E0
1.667623437E0;5.936097622E0;5.626479626E0;5.755842686E0
1.679532812E0;5.996258736E0;5.568970680E0;5.664968967E0
1.691445312E0;5.957818031E0;5.520378113E0;5.744024754E0
1.703356250E0;5.878176689E0;5.444079399E0;5.842752457E0
1.715268750E0;5.918992996E0;5.449365616E0;5.727801800E0
1.727179687E0;5.972719193E0;5.462840557E0;5.509201527E0
1.739092187E0;5.923973083E0;5.490153313E0;5.654884338E0
1.751010937E0;6.000836849E0;5.482673645E0;5.641945839E0
1.762915625E0;6.082239628E0;5.501300812E0;5.537836552E0
1.774826562E0;6.160529613E0;5.637741566E0;5.551674843E0
1.786739062E0;6.250523567E0;5.667372227E0;5.635136604E0
1.798650000E0;6.332251549E0;5.598620415E0;5.456902981E0
1.810560937E0;6.314688206E0;5.628691196E0;5.321907997E0
1.822473437E0;6.174770355E0;5.561644554E0;5.198692799E0
1.834390625E0;6.134931087E0;5.430384636E0;5.205396652E0
1.846298437E0;6.272416115E0;5.519391537E0;5.372033119E0
1.858207812E0;6.419438839E0;5.575962067E0;5.297946930E0
1.870118750E0;6.553686619E0;5.579093456E0;5.264725208E0
1.882031250E0;6.532550812E0;5.505141258E0;5.251078129E0
1.893942187E0;6.583891869E0;5.628605366E0;5.180765152E0
1.905854687E0;6.710468769E0;5.729430199E0;5.043318748E0
1.917765625E0;6.674469471E0;5.717334270E0;5.008468628E0
1.929676562E0;6.616893768E0;5.772085190E0;4.855919838E0
1.941589062E0;6.535145760E0;5.783500671E0;4.653485298E0
1.953506250E0;6.475003242E0;5.677159786E0;4.692357540E0
1.965412500E0;6.483296871E0;5.700278282E0;4.794360161E0
1.977326562E0;6.461442947E0;5.664805889E0;4.844896793E0
1.989234375E0;6.553715229E0;5.680943012E0;4.808619976E0
2.001146875E0;6.743786335E0;5.696274757E0;5.062079430E0
2.013060937E0;6.869347572E0;5.703313828E0;5.199813366E0
2.024970312E0;6.802673817E0;5.659347057E0;4.983636379E0
2.036881250E0;6.761828899E0;5.619382858E0;4.591494560E0
2.048793750E0;6.632331371E0;5.573816299E0;4.290505409E0
2.060704687E0;6.552556515E0;5.402123451E0;4.015038013E0
2.072615625E0;6.655938148E0;5.836249352E0;4.676450729E0
2.084529687E0;6.923016071E0;5.806877613E0;4.790491104E0
2.096439062E0;6.962616444E0;5.612717152E0;4.824354649E0
2.108350000E0;6.901564121E0;5.605592251E0;4.890521049E0
2.120260937E0;6.997600555E0;5.788202763E0;4.795882702E0
2.132173437E0;7.042400837E0;5.893921375E0;4.635155201E0
2.144085937E0;7.036070347E0;5.860450268E0;4.276140213E0
2.155996875E0;6.922010899E0;5.737254620E0;4.130697250E0
2.167907812E0;6.904801369E0;5.660132408E0;4.088702679E0
2.179820312E0;7.064331532E0;5.698353291E0;4.204773426E0
2.191737500E0;7.134749889E0;5.639302731E0;4.072566032E0
2.203643750E0;7.124646664E0;5.565053940E0;4.135322571E0
2.215554687E0;7.091625690E0;5.561539173E0;4.291683197E0
2.227467187E0;7.044756413E0;5.688441277E0;4.376141071E0
2.239378125E0;7.078055382E0;5.817804813E0;4.225124359E0
2.251290625E0;7.094670773E0;5.824125290E0;4.189163685E0
2.263201562E0;7.099248409E0;5.793632984E0;4.183934689E0
2.275114062E0;7.095925331E0;5.653026581E0;4.167998314E0
2.287025000E0;7.070584774E0;5.609758377E0;3.975562334E0
2.298935937E0;7.103079319E0;5.656225204E0;3.981509447E0
2.310850000E0;7.121973991E0;5.707901478E0;3.910593271E0
2.322759375E0;7.176044941E0;5.765285492E0;3.818608046E0
2.334670312E0;7.282519817E0;5.728500843E0;3.910574198E0
2.346582812E0;7.232088566E0;5.796314240E0;4.083301544E0
2.358495312E0;7.240506172E0;5.817747593E0;4.021166801E0
2.370409375E0;7.318404198E0;5.735473156E0;3.746638536E0
2.382318750E0;7.194777489E0;5.582732201E0;3.746523380E0
2.394229687E0;7.148626328E0;5.665955067E0;3.858294487E0
2.406140625E0;7.375156403E0;5.761148453E0;3.815926552E0
2.418053125E0;7.582188129E0;5.799436569E0;3.807154179E0
2.429964062E0;7.560544491E0;5.836585045E0;3.739819527E0
2.441875000E0;7.527341366E0;5.928647041E0;3.533056498E0
2.453787500E0;7.549942970E0;5.930859089E0;3.249583006E0
2.465698437E0;7.497787476E0;5.733586311E0;3.232191324E0
2.477610937E0;7.177423954E0;5.595153809E0;3.731756210E0
2.489521875E0;6.950453758E0;5.617065430E0;3.888039827E0
2.501439062E0;7.070776939E0;5.699215412E0;3.715312481E0
2.513345312E0;7.240956306E0;5.837446690E0;3.408806801E0
2.525262500E0;7.363960743E0;5.929700375E0;3.366084814E0
2.537168750E0;7.241157532E0;5.815717220E0;3.328026533E0
2.549082812E0;7.248244762E0;5.787082672E0;3.069653749E0
2.560990625E0;7.422542572E0;5.879824162E0;3.026539087E0
2.572903125E0;7.490260124E0;5.979605198E0;3.055604696E0
2.584814062E0;7.556550980E0;5.971129417E0;3.306488276E0
2.596726562E0;7.509614944E0;5.905289173E0;3.378860235E0
2.608637500E0;7.330681801E0;5.778779507E0;3.271781921E0
2.620548437E0;7.291224957E0;5.706656456E0;3.132266998E0
2.632460937E0;7.413760185E0;5.750125408E0;3.149371386E0
2.644371875E0;7.469956875E0;5.835368633E0;3.239402771E0
2.656284375E0;7.567171574E0;5.916130066E0;3.236261368E0
2.668195312E0;7.635118484E0;5.930590630E0;3.044984102E0
2.680106250E0;7.681891918E0;5.942992687E0;3.023934364E0
2.692018750E0;7.717699528E0;5.970870972E0;2.987925291E0
2.703929687E0;7.617066383E0;5.862643719E0;2.971060514E0
2.715842187E0;7.400113583E0;5.690816402E0;3.119223356E0
2.727753125E0;7.414823532E0;5.733615398E0;3.246183157E0
2.739665625E0;7.506330013E0;5.861532688E0;3.232986212E0
2.751576562E0;7.498045921E0;5.916349888E0;3.073781490E0
2.763487500E0;7.423461914E0;5.884181499E0;3.037466288E0
2.775400000E0;7.353321075E0;5.837485313E0;3.034277201E0
2.787310937E0;7.376755714E0;5.784659863E0;3.022267818E0
2.799223437E0;7.440729141E0;5.751456738E0;3.094955921E0
2.811134375E0;7.471010685E0;5.763513565E0;3.150913000E0
2.823046875E0;7.605899811E0;5.898747921E0;3.064760208E0
2.834957812E0;7.759521484E0;5.939257622E0;2.921203852E0
2.846876562E0;7.753373146E0;5.953604221E0;3.019528866E0
2.858782812E0;7.696525574E0;5.997972965E0;2.791131496E0
2.870693750E0;7.537866116E0;5.880704880E0;2.762343645E0
2.882604687E0;7.476919651E0;5.848058224E0;2.695794344E0
2.894515625E0;7.524822712E0;5.797664642E0;2.875014782E0
2.906426562E0;7.586085320E0;5.751849174E0;2.940558672E0
2.918339062E0;7.582695484E0;5.808946133E0;2.879583120E0
2.930250000E0;7.690310001E0;5.981462955E0;2.665244341E0
2.942164062E0;7.652826309E0;5.975582600E0;2.559238672E0
2.954073437E0;7.545422554E0;5.933885098E0;2.371303558E0
2.965984375E0;7.500833035E0;5.994841576E0;2.199064732E0
2.977896875E0;7.666119099E0;6.173324585E0;2.249065161E0
2.989807812E0;7.717239857E0;6.165462017E0;2.321331739E0
3.001720312E0;7.707442760E0;6.016188622E0;2.415969610E0
3.013631250E0;7.777430058E0;5.912241936E0;2.535172462E0
3.025551562E0;7.852560043E0;5.920439243E0;2.561125517E0
3.037454687E0;7.782304764E0;5.913678169E0;2.443608284E0
3.049387500E0;7.672410488E0;5.875351906E0;2.194170952E0
3.061278125E0;7.768858910E0;5.927985668E0;2.075217485E0
3.073189062E0;7.871905327E0;5.997207165E0;2.234125376E0
3.085101562E0;7.859388828E0;6.022049427E0;2.255481720E0
3.097015625E0;7.955118179E0;5.990053177E0;2.142369986E0
3.108923437E0;8.421221733E0;6.086711884E0;1.584396482E0
3.120835937E0;7.882123947E0;6.082431316E0;1.885031581E0
3.132746875E0;7.529410362E0;6.047916412E0;2.062384605E0
3.144665625E0;7.269103050E0;5.990580082E0;2.035138369E0
3.156570312E0;7.097917557E0;5.843202591E0;1.903898001E0
3.168481250E0;7.052274227E0;5.802482128E0;1.733995795E0
3.180393750E0;7.080640793E0;5.861580372E0;1.728910565E0
3.192304687E0;7.102523804E0;5.894447803E0;1.717935562E0
3.204217187E0;7.183055401E0;5.840645313E0;1.835347176E0
3.216128125E0;7.434676170E0;5.820562840E0;2.069442511E0
3.228039062E0;7.457832813E0;5.866502762E0;2.123044014E0
3.239951562E0;7.533365250E0;5.947445869E0;2.098239899E0
3.251864062E0;7.767584801E0;6.027987003E0;1.816394687E0
3.263775000E0;8.023314476E0;6.189988136E0;1.755505204E0
3.275685937E0;8.114399910E0;6.237020016E0;1.609937906E0
3.287598437E0;8.185871124E0;6.120134830E0;1.606528401E0
3.299509375E0;8.227013588E0;6.005328178E0;1.662342191E0
3.311421875E0;8.028180122E0;5.957348824E0;1.892128110E0
3.323343750E0;7.886701584E0;6.048299313E0;1.883949518E0
3.335245312E0;7.784785271E0;6.109485149E0;1.902279377E0
3.347156250E0;7.909168243E0;6.096949577E0;1.786074519E0
3.359067187E0;7.814099789E0;5.978685379E0;1.735767484E0
3.370979687E0;7.830380440E0;5.949064255E0;1.753733635E0
3.382892187E0;7.947935581E0;6.098721027E0;1.438666224E0
3.394803125E0;8.034940720E0;6.282231808E0;9.679182768E-1
3.406714062E0;8.063431740E0;6.276035786E0;8.272349834E-1
3.418625000E0;8.183773994E0;6.231561184E0;9.742389321E-1
3.430537500E0;8.112972260E0;6.117951870E0;9.909505248E-1
3.442448437E0;7.975832939E0;5.992035866E0;1.001963854E0
3.454362500E0;7.924271584E0;5.847263336E0;1.041152120E0
3.466271875E0;7.826137543E0;5.771845818E0;1.209263444E0
3.478182812E0;7.558830261E0;5.806753159E0;1.263918161E0
3.490095312E0;7.286906242E0;5.822133064E0;1.331319809E0
3.502006250E0;7.085448265E0;5.769547462E0;1.437153101E0
3.513921875E0;7.333525658E0;5.844217777E0;1.595907807E0
3.525829687E0;7.738050461E0;5.970430374E0;1.127764821E0
3.537740625E0;8.006555557E0;6.068334103E0;5.865315795E-1
3.549653125E0;8.215089798E0;6.175824165E0;3.658818901E-1
3.561564062E0;8.247047424E0;6.241224289E0;4.263211489E-1
3.573478125E0;8.154335022E0;6.174857140E0;6.860920191E-1
3.585387500E0;8.232577324E0;6.288974285E0;9.653612375E-1
3.597300000E0;8.324801445E0;6.237422466E0;9.031982422E-1
3.609210937E0;8.377110481E0;6.133877754E0;7.976617813E-1
3.621125000E0;8.342911720E0;6.033617973E0;6.562123895E-1
3.633034375E0;8.273097038E0;5.874595165E0;5.898355246E-1
3.644945312E0;8.132394791E0;5.834832668E0;5.567476749E-1
3.656860937E0;7.957780838E0;5.937582016E0;5.912433267E-1
3.668768750E0;7.940283775E0;6.023332596E0;6.797234416E-1
3.680679687E0;8.076868057E0;6.020297050E0;7.177625299E-1
3.692590625E0;8.045102119E0;5.949255943E0;6.854695678E-1
3.704503125E0;8.087105751E0;6.002675056E0;5.531851053E-1
3.716414062E0;8.212580681E0;6.081588268E0;3.707565069E-1
3.728326562E0;8.120778084E0;6.050406456E0;3.871615529E-1
3.740239062E0;7.868572712E0;5.929633141E0;4.258135557E-1
3.752151562E0;7.765028477E0;5.892273903E0;5.126464963E-1
3.764060937E0;7.760306835E0;5.839467049E0;4.572446346E-1
3.775973437E0;7.790607929E0;5.716414928E0;4.295102060E-1
3.787884375E0;8.059026718E0;5.840520859E0;4.097149372E-1
3.799796875E0;8.168326378E0;5.922938824E0;5.257284045E-1
3.811707812E0;8.021006584E0;5.978226185E0;5.608369708E-1
3.823618750E0;7.781385422E0;5.962835789E0;4.393360019E-1
3.835531250E0;7.785531998E0;6.041882992E0;2.558827102E-1
3.847442187E0;8.005598068E0;6.063469410E0;6.653965265E-2
3.859354687E0;8.335585594E0;6.172491074E0;1.092713606E-2
3.871265625E0;8.295869827E0;6.093971252E0;9.678321332E-2
3.883178125E0;8.210972786E0;5.946181774E0;7.985141873E-2
3.895089062E0;8.250199318E0;5.885675907E0;5.863878503E-2
3.907000000E0;8.069053650E0;5.997188091E0;-8.211154491E-2
3.918912500E0;8.321220398E0;5.773090839E0;8.818323165E-2
3.930823437E0;8.094623566E0;5.837944984E0;3.238014281E-1
3.942735937E0;7.911773205E0;5.780330658E0;2.819316089E-1
3.954646875E0;7.850367069E0;5.692080498E0;1.483734697E-1
3.966557812E0;7.758190632E0;5.752941132E0;2.730347589E-2
3.978476562E0;7.862452984E0;5.900021553E0;1.679005772E-1
3.990381250E0;8.292058945E0;6.231810093E0;-1.915361360E-2
4.002293750E0;7.982584476E0;5.869672775E0;3.148854077E-1
4.014204687E0;7.789343834E0;5.933770657E0;2.281674147E-1
4.026115625E0;7.926847458E0;5.943519592E0;-2.014960162E-2
4.038034375E0;8.031493187E0;5.946976662E0;-2.494279295E-1
4.049939062E0;8.150733948E0;5.842340469E0;-1.287410110E-1
4.061850000E0;8.154440880E0;5.887083530E0;-1.137724705E-2
4.073762500E0;8.043952942E0;5.933310509E0;-1.991592646E-1
4.085673437E0;8.141367912E0;6.004083633E0;-3.475806415E-1
4.097585937E0;8.134596825E0;5.977900505E0;5.516240373E-3
4.109498437E0;8.185679436E0;6.030390739E0;2.873042133E-3
4.121407812E0;8.277473450E0;6.050042629E0;-9.315360337E-2
4.133320312E0;8.238782883E0;6.000175953E0;-1.095107868E-1
4.145231250E0;8.127902985E0;6.009877205E0;-1.141268089E-1
4.157146875E0;8.094241142E0;5.943414211E0;-1.083615720E-1
4.169054687E0;7.946911335E0;5.836786270E0;-5.908889696E-2
4.180967187E0;7.916676521E0;5.769384384E0;-1.784733683E-1
4.192878125E0;7.826185703E0;5.801572323E0;-3.634876907E-1
4.204789062E0;7.683117867E0;5.779900074E0;-4.290792644E-1
4.216701562E0;7.664844990E0;5.881672382E0;-5.111716390E-1
4.228615625E0;7.821339607E0;5.961494923E0;-6.736038923E-1
4.240525000E0;8.008134842E0;5.990637302E0;-7.370693088E-1
4.252435937E0;8.112781525E0;5.963142395E0;-5.608369708E-1
4.264348437E0;8.155522346E0;5.838605404E0;-4.208527803E-1
4.276265625E0;8.063680649E0;5.809712410E0;-5.472857952E-1
4.288175000E0;8.137719154E0;5.911408901E0;-5.787742734E-1
4.300082812E0;8.374994278E0;6.015604019E0;-6.658945084E-1
4.311993750E0;8.274696350E0;5.901783466E0;-8.098051548E-1
4.323906250E0;8.119044304E0;5.789591312E0;-8.199661970E-1
4.335823437E0;8.081982613E0;5.816463947E0;-7.111736536E-1
4.347729687E0;8.055089951E0;5.832658291E0;-7.724939585E-1
4.359640625E0;8.078812599E0;5.847531319E0;-7.938693762E-1
4.371553125E0;8.118728638E0;5.939726830E0;-7.809694409E-1
4.383464062E0;8.090323448E0;5.959455490E0;-8.830486536E-1
4.395390625E0;7.946805477E0;5.917326927E0;-9.409500360E-1
4.407287500E0;7.974252224E0;5.942265034E0;-7.204056978E-1
4.419198437E0;7.918946743E0;5.889822483E0;-7.804044485E-1
4.431110937E0;7.864607811E0;5.818494320E0;-9.414384365E-1
4.443021875E0;7.887678146E0;5.851745129E0;-1.080924511E0
4.454937500E0;7.926675320E0;5.955978870E0;-9.013690948E-1
4.466846875E0;7.963641644E0;5.942197800E0;-8.359882236E-1
4.478756250E0;8.058911324E0;5.869337559E0;-8.646420240E-1
4.490668750E0;8.135114670E0;5.924145699E0;-7.686632872E-1
4.502579687E0;8.072884560E0;5.919117451E0;-7.391379476E-1
4.514490625E0;8.004630089E0;5.884277344E0;-8.349251747E-1
4.526403125E0;7.969234467E0;5.853602886E0;-9.909696579E-1
4.538314062E0;7.944229603E0;5.822057247E0;-1.086938858E0
4.550226562E0;7.995771885E0;5.855546951E0;-1.135234594E0
4.562137500E0;7.947820663E0;5.883041859E0;-1.097310543E0
4.574048437E0;7.865699768E0;5.844830513E0;-1.130513310E0
4.585960937E0;7.730733395E0;5.793020248E0;-9.955473542E-1
4.597871875E0;7.659137249E0;5.756494045E0;-9.265751839E-1
4.609784375E0;7.631173134E0;5.733500004E0;-1.033241749E0
4.621695312E0;7.720247269E0;5.795864105E0;-1.105077267E0
4.633614062E0;7.938473701E0;5.881117344E0;-1.116617322E0
4.645520312E0;8.199393272E0;5.962318897E0;-1.111005425E0
4.657429687E0;8.261125565E0;5.928263664E0;-1.192494392E0
4.669342187E0;8.367639542E0;5.784745693E0;-1.302436113E0
4.681253125E0;8.488306999E0;5.654683113E0;-1.315087199E0
4.693170312E0;8.369373322E0;5.746016979E0;-1.232180715E0
4.705076562E0;8.147459030E0;5.928091526E0;-1.256639838E0
4.716989062E0;8.082230568E0;5.870649338E0;-1.232956409E0
4.728900000E0;7.987008572E0;5.829555511E0;-1.125945210E0
4.740810937E0;7.760823727E0;5.828846455E0;-1.156543136E0
4.752723437E0;7.716483593E0;5.841727734E0;-1.220745921E0
4.764634375E0;7.778110027E0;5.774163246E0;-1.228445649E0
4.776545312E0;7.827507496E0;5.623855591E0;-1.227612495E0
4.788460937E0;7.894477844E0;5.680023670E0;-1.134822845E0
4.800368750E0;8.048463821E0;5.744484901E0;-1.137303233E0
4.812281250E0;8.365416527E0;5.764548302E0;-1.222230315E0
4.824192187E0;8.620255470E0;5.862250805E0;-1.266188025E0
4.836104687E0;8.520169258E0;5.907568455E0;-1.332938194E0
4.848015625E0;8.293255806E0;5.798182011E0;-1.489365816E0
4.859928125E0;8.079415321E0;5.695049286E0;-1.646368027E0
4.871839062E0;7.916590691E0;5.784602165E0;-1.651740551E0
4.883753125E0;7.995206356E0;5.906342506E0;-1.699873686E0
4.895678125E0;8.043540955E0;5.931232452E0;-1.599729061E0
4.907573437E0;8.030037880E0;5.908909321E0;-1.459352136E0
4.919485937E0;7.956985950E0;5.754741669E0;-1.432766914E0
4.931398437E0;8.137508392E0;5.730177402E0;-1.199715376E0
4.943307812E0;8.457182884E0;5.752079010E0;-1.183635831E0
4.955223437E0;8.616521835E0;5.668425560E0;-1.162787080E0
4.967131250E0;8.764971733E0;5.617055893E0;-1.145204067E0
4.979046875E0;8.678310394E0;5.695547581E0;-1.340322018E0
4.990954687E0;8.557757378E0;5.832562447E0;-1.665943027E0
5.002865625E0;8.194461823E0;5.825475693E0;-2.018321753E0
5.014778125E0;8.065270424E0;5.849418163E0;-2.037216663E0
5.026689062E0;7.776137352E0;6.100157738E0;-1.892903805E0
5.038601562E0;7.649847984E0;5.929565907E0;-1.671497583E0
5.050517187E0;7.746324539E0;5.819432735E0;-1.565214157E0
5.062423437E0;7.927115917E0;5.794763088E0;-1.582241654E0
5.074335937E0;8.032843590E0;5.767957687E0;-1.734493732E0
5.086246875E0;8.169638634E0;5.679812431E0;-1.876680613E0
5.098159375E0;8.125164032E0;5.676077843E0;-1.785088062E0
5.110073437E0;7.960596085E0;5.747376919E0;-1.803370237E0
5.121981250E0;7.734535694E0;5.638144016E0;-1.702440143E0
5.133893750E0;7.471891403E0;5.530921936E0;-1.614573002E0
5.145804687E0;7.286456108E0;5.455964565E0;-1.525307655E0
5.157715625E0;7.241464138E0;5.375911713E0;-1.442171335E0
5.169632812E0;7.322637081E0;5.450112820E0;-1.339622974E0
5.181543750E0;7.537291527E0;5.677044868E0;-1.312089562E0
5.193451562E0;7.660554886E0;5.701341152E0;-1.367807388E0
5.205362500E0;7.774250507E0;5.784113884E0;-1.490352273E0
5.217275000E0;7.966131210E0;5.872785091E0;-1.606442213E0
5.229185937E0;8.068306923E0;5.915535927E0;-1.617388606E0
5.241098437E0;8.081933975E0;5.841880798E0;-1.614841223E0
5.253009375E0;8.029578209E0;5.714317799E0;-1.633918166E0
5.264920312E0;7.997888088E0;5.720561981E0;-1.560550332E0
5.276832812E0;8.034950256E0;5.883425236E0;-1.479434729E0
5.288765625E0;8.041702271E0;5.977545738E0;-1.424664974E0
5.300656250E0;8.109094620E0;5.998298645E0;-1.476149917E0
5.312567187E0;8.071418762E0;5.956927299E0;-1.484989285E0
5.324479687E0;7.934776783E0;5.882678032E0;-1.505244136E0
5.336392187E0;7.829278946E0;5.723387241E0;-1.563873410E0
5.348309375E0;7.788721085E0;5.666089058E0;-1.437296748E0
5.360214062E0;7.792494774E0;5.751331806E0;-1.385534048E0
5.372125000E0;7.804915428E0;5.801103115E0;-1.388445377E0
5.384037500E0;7.871541500E0;5.786651134E0;-1.316782236E0
5.395948437E0;7.853010178E0;5.754971027E0;-1.213515520E0
5.407868750E0;7.892629623E0;5.674286842E0;-1.216733217E0
5.419771875E0;7.929644108E0;5.651426792E0;-1.192120790E0
5.431684375E0;7.854159832E0;5.740165710E0;-1.273341775E0
5.443595312E0;7.780130863E0;5.707939625E0;-1.519149661E0
5.455506250E0;7.920948029E0;5.711597919E0;-1.761394978E0
5.467434375E0;8.019014359E0;5.687761307E0;-1.757516503E0
5.479329687E0;8.084788322E0;5.799321651E0;-1.987790823E0
5.491240625E0;8.177750587E0;5.880667210E0;-2.058525085E0
5.503153125E0;8.280835152E0;5.920458317E0;-2.033271074E0
5.515064062E0;8.221937180E0;5.777323723E0;-2.045289993E0
5.526982812E0;8.217360497E0;5.660036564E0;-2.057739735E0
5.538887500E0;8.545863152E0;5.926941872E0;-1.854663610E0
5.550798437E0;8.664136887E0;6.055932045E0;-1.848438621E0
5.562710937E0;8.540586472E0;5.926913738E0;-2.063849926E0
5.574621875E0;8.220874786E0;5.730694294E0;-2.214454651E0
5.586534375E0;7.848470688E0;5.604625225E0;-2.265068054E0
5.598445312E0;7.458665848E0;5.526890278E0;-2.154245138E0
5.610356250E0;7.234846592E0;5.489511490E0;-1.977706432E0
5.622268750E0;7.191118717E0;5.500180244E0;-1.822533369E0
5.634179687E0;7.266986370E0;5.415310383E0;-1.716786265E0
5.646092187E0;7.391254902E0;5.321563244E0;-1.633803248E0
5.658003125E0;7.571011543E0;5.419515133E0;-1.524733067E0
5.669914062E0;7.796507359E0;5.614259243E0;-1.513930321E0
5.681826562E0;8.005654335E0;5.644426346E0;-1.643437505E0
5.693737500E0;8.144030571E0;5.632186890E0;-1.836247325E0
5.705662500E0;8.114409447E0;5.540747643E0;-2.141153812E0
5.717560937E0;7.868994236E0;5.412466526E0;-2.346662283E0
5.729473437E0;7.677342892E0;5.395956039E0;-2.347323179E0
5.741384375E0;7.654923916E0;5.432721138E0;-2.321063757E0
5.753296875E0;7.696008205E0;5.472790718E0;-2.358987808E0
5.765207812E0;7.885561943E0;5.435431480E0;-2.482231617E0
5.777128125E0;7.989508152E0;4.995310783E0;-2.587978840E0
5.789031250E0;8.023390770E0;4.928416729E0;-2.254533529E0
5.800948437E0;8.347078323E0;5.301394463E0;-1.883623838E0
5.812854687E0;8.659386635E0;5.665303707E0;-1.932446361E0
5.824767187E0;8.760939598E0;5.767066956E0;-2.149571896E0
5.836676562E0;8.715344429E0;5.641371250E0;-2.454190969E0
5.848589062E0;8.514183998E0;5.460015297E0;-2.684656620E0
5.860500000E0;8.128085136E0;5.254956722E0;-2.934371710E0
5.872412500E0;7.723848343E0;5.198549271E0;-3.053373337E0
5.884325000E0;7.533863068E0;5.221619606E0;-3.187841415E0
5.896235937E0;7.436285019E0;5.305234909E0;-3.305358171E0
5.908146875E0;7.485864162E0;5.313116550E0;-3.340524197E0
5.920057812E0;7.582762241E0;5.195005894E0;-3.127382755E0
5.931970312E0;7.847331047E0;5.152073383E0;-2.893028736E0
5.943890625E0;8.221957207E0;5.203328133E0;-2.735193491E0
5.955793750E0;8.522438049E0;5.108460426E0;-2.713003874E0
5.967704687E0;8.654646873E0;5.126205921E0;-2.809930801E0
5.979615625E0;8.600968361E0;5.198013306E0;-2.970179796E0
5.991528125E0;8.430291176E0;5.178753853E0;-3.220392704E0
6.003439062E0;8.172616959E0;5.043385506E0;-3.264044046E0
6.015351562E0;7.935744286E0;4.996009350E0;-3.347630262E0
6.027262500E0;7.828589439E0;5.070478439E0;-3.327202797E0
6.039173437E0;7.730628490E0;5.073045254E0;-3.203403473E0
6.051085937E0;7.733252525E0;4.985886574E0;-3.010478735E0
6.062996875E0;7.812950611E0;4.879325867E0;-2.863302469E0
6.074909375E0;7.828283310E0;4.900902271E0;-2.848678827E0
6.086820312E0;7.887113094E0;4.982228279E0;-2.936239481E0
6.098731250E0;7.894592762E0;5.027545929E0;-2.939419031E0
6.110643750E0;7.753660679E0;5.006754398E0;-3.079173326E0
6.122554687E0;7.456357956E0;4.721518993E0;-3.223371029E0
6.134465625E0;7.185027599E0;4.526458263E0;-3.184767008E0
6.146378125E0;7.317877293E0;4.601655960E0;-3.209465504E0
6.158289062E0;7.646869659E0;4.602652073E0;-3.208843231E0
6.170201562E0;7.967482090E0;4.563616753E0;-3.228332043E0
6.182112500E0;8.244894028E0;4.590498447E0;-3.455560684E0
6.194023437E0;8.481497765E0;4.715897560E0;-3.554881811E0
6.205935937E0;8.475875854E0;4.770686626E0;-3.329712152E0
6.217846875E0;8.319621086E0;4.870907784E0;-3.291855097E0
6.229759375E0;8.057714462E0;4.860162735E0;-3.337613106E0
6.241671875E0;7.858344555E0;4.688402176E0;-3.389337063E0
6.253582812E0;7.800893784E0;4.569017887E0;-3.155127048E0
6.265493750E0;7.748853207E0;4.542557240E0;-3.115651369E0
6.277406250E0;7.856199265E0;4.687722683E0;-3.081308842E0
6.289317187E0;8.107782364E0;4.672907352E0;-3.169128180E0
6.301229687E0;8.265052795E0;4.630395412E0;-3.435066462E0
6.313142187E0;8.083888054E0;4.451357365E0;-3.881192446E0
6.325053125E0;7.602758884E0;4.202034473E0;-4.181348801E0
6.336964062E0;7.338802814E0;4.144708157E0;-4.375432014E0
6.348875000E0;7.489100933E0;4.121158600E0;-4.697797298E0
6.360790625E0;7.902848244E0;4.025313854E0;-7.377483368E0
6.372698437E0;8.077893257E0;4.492691040E0;-7.365225315E0
6.384610937E0;8.207400322E0;4.688958168E0;-5.722448826E0
6.396521875E0;8.439235687E0;4.696657658E0;-4.180141926E0
6.408432812E0;8.774970055E0;4.477731705E0;-4.203260899E0
6.420345312E0;9.119791985E0;4.454517365E0;-4.590815067E0
6.432256250E0;9.343314171E0;4.382509708E0;-4.775819302E0
6.444168750E0;9.186360359E0;4.174261570E0;-4.983684063E0
6.456079687E0;8.819549561E0;4.071828365E0;-5.134480476E0
6.467996875E0;8.286457062E0;3.913533449E0;-5.099640369E0
6.479921875E0;7.667900562E0;3.815974474E0;-5.199420929E0
6.491814062E0;7.200762749E0;3.730798244E0;-5.155989647E0
6.503726562E0;6.894027233E0;3.755525589E0;-4.914060593E0
6.515637500E0;6.776979446E0;3.775081635E0;-4.929000378E0
6.527548437E0;6.741919041E0;3.658416748E0;-4.901342869E0
6.539462500E0;6.839286327E0;3.730625868E0;-5.071675777E0
6.551371875E0;7.043157101E0;4.183139801E0;-5.147954941E0
6.563284375E0;7.249413013E0;4.406451702E0;-4.976137638E0
6.575195312E0;7.339118481E0;4.443849087E0;-4.877458096E0
6.587106250E0;7.335996628E0;4.376495838E0;-4.913131714E0
6.599018750E0;7.379149914E0;4.247572422E0;-4.908745766E0
6.610929687E0;7.636756420E0;4.143156052E0;-5.165997505E0
6.622842187E0;7.717373848E0;4.072125435E0;-5.176235199E0
6.634753125E0;7.410379887E0;3.815246582E0;-5.146489620E0
6.646664062E0;6.994746685E0;3.476304293E0;-5.104974270E0
6.658579687E0;7.016457081E0;3.316390514E0;-5.025142193E0
6.670487500E0;7.249461174E0;3.722954750E0;-5.367397785E0
6.682400000E0;7.402957916E0;4.041450500E0;-5.994602203E0
6.694315625E0;7.349892616E0;3.786363125E0;-6.650967598E0
6.706221875E0;7.231456757E0;3.634781361E0;-6.968467712E0
6.718135937E0;7.151777267E0;3.651167154E0;-6.960183620E0
6.730046875E0;7.052303314E0;3.669200182E0;-6.790358543E0
6.741957812E0;7.019100189E0;3.660705566E0;-6.591294765E0
6.753876562E0;6.857300282E0;3.625884295E0;-6.640280247E0
6.765781250E0;6.836431980E0;3.498685360E0;-6.823714256E0
6.777698437E0;6.986625671E0;3.536245584E0;-6.916666985E0
6.789603125E0;6.953623772E0;3.554431915E0;-7.125354767E0
6.801515625E0;6.794112206E0;3.517350435E0;-7.289338589E0
6.813428125E0;6.690108299E0;3.409362316E0;-7.297029018E0
6.825339062E0;6.808267117E0;3.433917284E0;-7.390824318E0
6.837250000E0;6.582378864E0;3.324368238E0;-7.480759621E0
6.849162500E0;6.005117893E0;2.985847235E0;-7.111899376E0
6.861073437E0;5.786823750E0;3.197264910E0;-7.143934250E0
6.872985937E0;5.809549809E0;3.433170319E0;-7.280796051E0
6.884896875E0;5.735597610E0;3.332115889E0;-7.383746624E0
6.896807812E0;5.798133850E0;3.107759953E0;-7.327923298E0
6.908720312E0;6.076292515E0;2.990549564E0;-7.212169170E0
6.920631250E0;6.336628437E0;2.876355648E0;-7.234157085E0
6.932543750E0;6.014723301E0;3.009693623E0;-7.243580341E0
6.944454687E0;5.851591587E0;3.017421961E0;-7.241885662E0
6.956373437E0;5.697711468E0;2.894608974E0;-7.190927029E0
6.968278125E0;5.474706173E0;2.684838533E0;-7.326362133E0
6.980189062E0;5.423920631E0;2.899971962E0;-7.367063999E0
6.992101562E0;5.584877968E0;3.051544189E0;-7.844860554E0
7.004012500E0;5.761244297E0;3.148279428E0;-7.919578552E0
7.015926562E0;5.656866550E0;3.077794075E0;-7.656283855E0
7.027835937E0;6.010327339E0;3.226770878E0;-7.549195766E0
7.039746875E0;6.266191006E0;3.300301790E0;-7.620341778E0
7.051657812E0;6.181244850E0;3.245867252E0;-7.596715927E0
7.063570312E0;5.848977089E0;3.185169458E0;-7.525435448E0
7.075482812E0;5.636554241E0;3.199601650E0;-7.630090714E0
7.087393750E0;5.659021378E0;2.928166151E0;-7.810824871E0
7.099304687E0;5.347420692E0;2.707248211E0;-7.511578083E0
7.111220312E0;5.198559284E0;2.872026920E0;-7.398887634E0
7.123128125E0;5.460197449E0;2.919978142E0;-7.590328217E0
7.135039062E0;5.760717392E0;3.312042952E0;-7.852033615E0
7.146951562E0;5.866320610E0;3.279797792E0;-7.698344707E0
7.158862500E0;5.671911716E0;3.236433983E0;-7.180421352E0
7.170775000E0;5.372847080E0;3.190762281E0;-7.537559986E0
7.182685937E0;5.618290901E0;3.305894613E0;-7.795894146E0
7.194601562E0;5.871894360E0;3.276838541E0;-7.689448357E0
7.206509375E0;5.962634563E0;3.289824724E0;-7.338965893E0
7.218420312E0;5.773454666E0;3.267050982E0;-7.278603077E0
7.230340625E0;5.456548214E0;3.298874855E0;-7.430309296E0
7.242243750E0;5.605189800E0;3.290581226E0;-7.602902412E0
7.254156250E0;5.679103851E0;3.260098219E0;-7.849907398E0
7.266067187E0;5.441675663E0;2.714028835E0;-7.885140419E0
7.277989062E0;5.289883137E0;2.537528038E0;-7.587617874E0
7.289890625E0;4.991871834E0;2.947415590E0;-7.674689770E0
7.301801562E0;4.641629219E0;3.172614098E0;-8.125882149E0
7.313714062E0;4.523748398E0;3.136078596E0;-8.280117035E0
7.325625000E0;4.605782986E0;3.204792261E0;-8.113298416E0
7.337537500E0;4.501664162E0;3.310271263E0;-8.237394333E0
7.349448437E0;4.487796783E0;3.195636749E0;-7.964858055E0
7.361360937E0;4.959454536E0;3.195493221E0;-7.718762875E0
7.373278125E0;4.847233772E0;2.932054520E0;-7.602902412E0
7.385184375E0;5.357926846E0;2.962757587E0;-7.894621372E0
7.397095312E0;5.861053944E0;3.427922010E0;-7.950167179E0
7.409006250E0;5.800183773E0;3.659690380E0;-8.195160866E0
7.420918750E0;5.080926895E0;3.530997276E0;-8.046384811E0
7.432829687E0;4.597230911E0;3.439357042E0;-7.856965542E0
7.444740625E0;5.358520508E0;3.843862057E0;-8.142507553E0
7.456653125E0;4.992216587E0;3.544059992E0;-8.905951500E0
7.468564062E0;5.181904793E0;3.077286720E0;-7.741507530E0
7.480476562E0;4.845050335E0;3.284480810E0;-7.241617203E0
7.492387500E0;4.891727448E0;3.108085632E0;-7.652127266E0
7.504301562E0;4.465090275E0;2.993049145E0;-8.192814827E0
7.516214062E0;4.136740208E0;3.237841845E0;-8.490451813E0
7.528121875E0;4.066292763E0;3.225650311E0;-8.530445099E0
7.540034375E0;4.009377956E0;3.130572081E0;-8.278153419E0
7.551960937E0;4.566795826E0;3.247830391E0;-8.229627609E0
7.563856250E0;4.700890541E0;3.440985203E0;-8.225289345E0
7.575768750E0;4.302600384E0;3.374857187E0;-8.246617317E0
7.587679687E0;4.633019447E0;3.287258148E0;-8.595184326E0
7.599592187E0;4.369073391E0;3.268238544E0;-8.301588058E0
7.611503125E0;4.604825497E0;3.236893654E0;-8.040936470E0
7.623414062E0;5.060231209E0;3.043116570E0;-8.055645943E0
7.635326562E0;5.416067600E0;2.875819445E0;-8.029175758E0
7.647237500E0;5.901486874E0;3.226033449E0;-7.862194538E0
7.659150000E0;5.671107292E0;3.456556797E0;-7.882190704E0
7.671060937E0;5.153863907E0;3.270757437E0;-7.780504227E0
7.682971875E0;4.832782269E0;3.355100155E0;-7.914014816E0
7.694884375E0;4.594386578E0;3.703647852E0;-8.137929916E0
7.706795312E0;4.580711365E0;3.768100023E0;-8.342097282E0
7.718707812E0;4.971492767E0;3.631438971E0;-8.567631721E0
7.730618750E0;5.491829395E0;3.536437035E0;-8.487234116E0
7.742531250E0;5.613426208E0;3.508549213E0;-8.089873314E0
7.754442187E0;5.335325241E0;3.622120619E0;-7.728445053E0
7.766354687E0;5.203213215E0;3.769565105E0;-7.460073948E0
7.778265625E0;5.185496330E0;3.568241596E0;-7.787849426E0
7.790185937E0;4.936508656E0;3.204495430E0;-7.401291370E0
7.802089062E0;4.700037956E0;2.781784773E0;-7.348810673E0
7.814001562E0;4.765648842E0;2.806052208E0;-7.051948547E0
7.825912500E0;5.153940201E0;3.270824194E0;-8.076159477E0
7.837823437E0;5.183255196E0;3.133502483E0;-8.290775299E0
7.849734375E0;4.986499310E0;3.182669640E0;-8.346359253E0
7.861646875E0;4.895654202E0;3.156745434E0;-8.478940010E0
7.873557812E0;4.973197460E0;3.555513859E0;-8.252736092E0
7.885470312E0;4.746859550E0;3.410530806E0;-8.108107567E0
7.897381250E0;4.765984058E0;3.299726963E0;-8.254796028E0
7.909293750E0;4.715312958E0;3.005575418E0;-7.965059280E0
7.921204687E0;4.494826317E0;3.026376247E0;-7.464708805E0
7.933115625E0;4.659700871E0;2.954598188E0;-7.505305290E0
7.945028125E0;4.896898746E0;2.832867384E0;-7.645777702E0
7.956939062E0;5.413060188E0;2.837397099E0;-7.745367050E0
7.968851562E0;5.716989517E0;2.819928885E0;-7.741775990E0
7.980762500E0;5.347717762E0;1.889743447E0;-7.757606030E0
7.992676562E0;4.212779999E0;1.618480310E-2;-8.222742081E0
8.004585937E0;5.764088154E0;4.359295368E0;-9.176659584E0
8.016496875E0;5.293292522E0;3.110163927E0;-9.266317368E0
8.028409375E0;3.986470222E0;1.729695797E0;-8.442012787E0
8.040320312E0;3.580681801E0;2.071089745E0;-7.407938004E0
8.052239062E0;4.208556652E0;2.333580494E0;-7.877785683E0
8.064143750E0;5.046392918E0;2.552420139E0;-8.271430969E0
8.076054687E0;5.512208939E0;2.627416134E0;-8.497807503E0
8.087967187E0;5.445353031E0;2.456029654E0;-8.430530548E0
8.099884375E0;5.023303032E0;2.631198883E0;-7.852560043E0
8.111795312E0;4.740202904E0;2.706807852E0;-7.718226433E0
8.123701562E0;4.716462612E0;2.452620029E0;-7.966466904E0
8.135612500E0;4.975658894E0;2.452074528E0;-8.216709137E0
8.147525000E0;5.082267761E0;3.040128708E0;-8.319993973E0
8.159435937E0;4.931471348E0;3.067211866E0;-8.278326035E0
8.171348437E0;5.022948742E0;3.020026922E0;-8.304403305E0
8.183259375E0;5.136415005E0;3.121378183E0;-8.118354797E0
8.195170312E0;5.065441608E0;3.060661316E0;-7.732256413E0
8.207090625E0;4.993691921E0;3.036068201E0;-7.705144405E0
8.218993750E0;5.033790112E0;3.070783854E0;-7.951230049E0
8.230906250E0;4.997714043E0;3.030475140E0;-7.960079193E0
8.242817187E0;5.081635952E0;3.069692135E0;-7.722238541E0
8.254729687E0;5.142735958E0;3.050940990E0;-7.691066265E0
8.266646875E0;5.464449406E0;3.297486067E0;-7.918630600E0
8.278554687E0;5.584561348E0;3.568145752E0;-7.621605873E0
8.290464062E0;3.809194088E0;4.918647766E0;-8.535693169E0
8.302375000E0;4.763302803E0;4.049208164E0;-7.299844265E0
8.314287500E0;4.604289055E0;3.089583158E0;-7.134433746E0
8.326204687E0;4.551118851E0;2.922065735E0;-7.600632668E0
8.338112500E0;4.847186089E0;2.861578703E0;-8.558399200E0
8.350021875E0;5.061897755E0;2.878510475E0;-8.795243263E0
8.361932812E0;5.116686344E0;2.830951929E0;-8.307266235E0
8.373845312E0;5.372387886E0;3.110269070E0;-8.042908669E0
8.385756250E0;5.486686707E0;3.384970188E0;-7.804599762E0
8.397668750E0;5.501348495E0;3.391884804E0;-7.685234547E0
8.409579687E0;5.416325569E0;3.338790655E0;-7.367944717E0
8.421492187E0;5.483305931E0;3.064645290E0;-7.528605461E0
8.433403125E0;5.593985558E0;2.841965437E0;-7.867088318E0
8.445326562E0;5.902789593E0;2.818061590E0;-8.068143845E0
8.457226562E0;6.396847248E0;2.870772123E0;-8.018402100E0
8.469137500E0;6.813964844E0;2.692231894E0;-7.758132935E0
8.481048437E0;6.211660862E0;2.723816156E0;-7.209209442E0
8.492960937E0;5.890358925E0;2.454535723E0;-7.318433285E0
8.504875000E0;5.899657726E0;2.847299576E0;-7.127500057E0
8.516782812E0;5.886326790E0;4.336425781E0;-7.781739712E0
8.528695312E0;5.396367550E0;3.406939507E0;-5.643813610E0
8.540606250E0;7.242680073E0;4.621153831E0;-6.556118965E0
8.552518750E0;6.511424541E0;3.312052488E0;-8.363962173E0
8.564429687E0;6.045253754E0;2.674418926E0;-7.883023739E0
8.576342187E0;6.412725449E0;2.910046816E0;-6.993587971E0
8.588253125E0;6.871645927E0;3.125582457E0;-6.914387703E0
8.600165625E0;6.945895195E0;2.898152351E0;-7.113757133E0
8.612076562E0;6.963784695E0;2.907566309E0;-6.855298519E0
8.624006250E0;7.096720219E0;3.305166721E0;-6.632493973E0
8.635900000E0;6.931491852E0;3.383188963E0;-6.776481628E0
8.647810937E0;6.751284599E0;3.479043245E0;-7.077863693E0
8.659721875E0;6.720907211E0;3.702805519E0;-7.303655624E0
8.671634375E0;6.981118679E0;4.187276840E0;-7.414038181E0
8.683545312E0;7.039920330E0;4.244421482E0;-7.376085281E0
8.695457812E0;6.978178501E0;3.705199480E0;-7.060816765E0
8.707368750E0;6.894889355E0;3.604221582E0;-6.775303841E0
8.719281250E0;5.403435707E0;4.136902809E0;-6.447949409E0
8.731192187E0;4.744053364E0;3.991852522E0;-7.479936123E0
8.743112500E0;3.843795061E0;3.323621273E0;-8.478844643E0
8.755015625E0;3.461824179E0;2.464054823E0;-6.860403061E0
8.766928125E0;3.584828615E0;1.873051047E0;-5.943069458E0
8.778839062E0;4.184815407E0;7.171017528E-1;-6.635683060E0
8.790750000E0;5.129797459E0;1.048420906E0;-7.166008472E0
8.802668750E0;5.475797653E0;2.279050350E0;-7.259842396E0
8.814573437E0;5.387748718E0;2.668184519E0;-7.259392262E0
8.826485937E0;5.382539272E0;2.636073589E0;-7.565294266E0
8.838396875E0;5.697041035E0;3.016636610E0;-8.145955086E0
8.850307812E0;5.643133163E0;3.089841843E0;-8.337127686E0
8.862226562E0;6.334550381E0;4.111533642E0;-7.766292572E0
8.874131250E0;7.404375076E0;4.179327965E0;-7.939498425E0
8.886043750E0;7.658735275E0;3.286022663E0;-8.761897087E0
8.897954687E0;7.278459549E0;1.809997320E0;-8.077979088E0
8.909867187E0;6.779938698E0;5.999103189E-1;-6.413980007E0
8.921778125E0;6.043204784E0;-3.723558486E-1;-6.687637329E0
8.933689062E0;6.419754982E0;1.424262673E-1;-6.739936352E0
8.945601562E0;6.501626968E0;1.568805456E0;-6.990790844E0
8.957512500E0;6.241118431E0;2.929554701E0;-6.619421959E0
8.969425000E0;6.215424538E0;3.396538973E0;-6.230670452E0
8.981335937E0;6.692090988E0;3.263766050E0;-6.909914970E0
8.993248437E0;6.872488976E0;3.112912416E0;-7.681987762E0
9.005157812E0;7.066677570E0;1.561325908E0;-7.425913811E0
9.017070312E0;6.783338547E0;-1.034630418E0;-5.688987255E0
9.028981250E0;8.763898849E0;-5.653476715E-1;-6.770649433E0
9.040893750E0;8.550441742E0;-1.575001627E-1;-8.674144745E0
9.052804687E0;7.519670486E0;5.408214331E-1;-9.056757927E0
9.064717187E0;6.852482796E0;1.591129065E0;-8.292862892E0
9.076628125E0;6.613292694E0;2.689780235E0;-6.889410973E0
9.088540625E0;6.681565762E0;3.126865625E0;-6.178620815E0
9.100451562E0;6.384943485E0;2.872926950E0;-6.410896301E0
9.112371875E0;6.065614223E0;1.797384620E0;-6.710449219E0
9.124285937E0;6.174789906E0;1.384767890E0;-6.909398079E0
9.136185937E0;6.419898510E0;1.307866216E0;-6.776194572E0
9.148098437E0;6.601101398E0;9.568474889E-1;-7.140821457E0
9.160009375E0;7.103605747E0;2.339862823E0;-7.244337559E0
9.171920312E0;7.614327431E0;2.941247940E0;-5.928301811E0
9.183832812E0;7.368117332E0;2.920993090E0;-7.239184856E0
9.195743750E0;6.238896847E0;1.846063614E0;-7.880974770E0
9.207656250E0;5.516959190E0;1.371657372E0;-7.108547688E0
9.219568750E0;5.765946388E0;1.498052001E0;-5.857912540E0
9.231481250E0;6.033417225E0;1.159923673E0;-5.487395287E0
9.243390625E0;6.355255604E0;5.913199186E-1;-5.862787247E0
9.255301562E0;7.737782001E0;3.683335483E-1;-6.418720722E0
9.267214062E0;8.523472786E0;5.578585863E-1;-6.533613682E0
9.279129687E0;9.046365738E0;7.087219954E-1;-6.916293621E0
9.291039062E0;9.226669312E0;-2.567541972E-2;-7.001163006E0
9.302948437E0;8.664951324E0;-3.845183849E-1;-5.916407585E0
9.314860937E0;6.365540504E0;1.238396049E0;-6.784056664E0
9.326771875E0;6.122423649E0;1.464121342E0;-5.079174519E0
9.338684375E0;8.010223389E0;6.511175036E-1;-6.546302795E0
9.350595312E0;8.034634590E0;-6.862547994E-1;-5.738633156E0
9.362506250E0;7.068066597E0;6.832093745E-2;-6.374993324E0
9.374418750E0;6.932238579E0;1.862296224E0;-5.087161541E0
9.386329687E0;7.808421135E0;2.391175508E0;-5.249268055E0
9.398240625E0;9.322772026E0;2.267194033E0;-7.115739822E0
9.410154687E0;9.853050232E0;1.960372329E0;-7.932679653E0
9.422064062E0;9.539112091E0;2.028118610E0;-6.409565449E0
9.433976562E0;1.028093147E1;4.062165737E0;-4.062673092E0
9.445887500E0;1.018444538E1;4.749425888E0;-3.651396990E0
9.457798437E0;9.971476555E0;4.381963730E0;-4.265251160E0
9.469710937E0;8.832383156E0;3.119961023E0;-5.611769676E0
9.481621875E0;6.936749458E0;1.522147179E0;-6.912453175E0
9.493534375E0;5.986893177E0;1.739703655E0;-5.672687531E0
9.505445312E0;7.646716118E0;8.755499721E-1;-6.040005684E0
9.517356250E0;7.208970070E0;-4.036624134E-1;-4.749205589E0
9.529273437E0;9.134310722E0;5.937237144E-1;-4.737464428E0
9.541179687E0;8.879969597E0;1.149484992E0;-5.469889164E0
9.553092187E0;8.596447945E0;1.762984753E0;-6.289117813E0
9.565003125E0;7.882296562E0;1.624494672E0;-6.816560745E0
9.576914062E0;7.462468147E0;1.660704494E0;-6.683337212E0
9.588826562E0;7.827373028E0;2.376407862E0;-6.311518192E0
9.600737500E0;8.375530243E0;3.326407909E0;-6.043462753E0
9.612650000E0;8.650882721E0;2.970859528E0;-5.586764336E0
9.624560937E0;8.724499702E0;1.567809463E0;-4.483047009E0
9.636473437E0;8.637782097E0;1.139774084E0;-4.031902790E0
9.648384375E0;8.842342377E0;1.270191073E0;-4.708781719E0
9.660295312E0;8.965193748E0;2.348960876E0;-5.829728127E0
9.672207812E0;9.253608704E0;3.065650940E0;-6.393849373E0
9.684118750E0;8.708189964E0;2.242419004E0;-6.468596458E0
9.696037500E0;8.198877335E0;1.937311411E0;-6.117635250E0
9.707942187E0;7.893491745E0;2.410702705E0;-5.611874580E0
9.719854687E0;7.414861679E0;1.866414309E0;-5.623529911E0
9.731765625E0;7.071341991E0;3.417579234E-1;-5.865276814E0
9.743678125E0;6.703620911E0;-6.202993989E-1;-6.548170567E0
9.755607812E0;6.618540764E0;3.858303726E-1;-6.773723125E0
9.767500000E0;7.116075039E0;1.480919123E0;-6.999372005E0
9.779412500E0;7.585951805E0;1.626754761E0;-7.394635677E0
9.791323437E0;7.731988430E0;1.991793871E0;-7.962310314E0
9.803235937E0;7.219667435E0;2.092848301E0;-8.017032623E0
9.815156250E0;6.477416992E0;2.156754494E0;-7.178180695E0
9.827059375E0;5.908545017E0;1.727071762E0;-5.045214653E0
9.838970312E0;5.423575878E0;1.389336109E0;-3.983578205E0
9.850881250E0;5.542299271E0;1.068924904E0;-5.041317463E0
9.862793750E0;6.273689270E0;7.450947165E-1;-6.991806030E0
9.874704687E0;6.972059250E0;7.759894729E-1;-7.998960972E0
9.886626562E0;6.858583450E0;9.588202834E-1;-7.683156013E0
9.898535937E0;6.495986462E0;1.097731948E0;-6.851668835E0
9.910439062E0;6.350255966E0;4.492767453E-1;-6.433957577E0
9.922351562E0;7.058039665E0;7.721779495E-2;-7.298608780E0
9.934275000E0;7.250428200E0;3.503962159E-1;-8.167838097E0
9.946173437E0;7.259191036E0;1.097808480E0;-7.705814838E0
9.958085937E0;7.261834145E0;7.427292466E-1;-7.731672287E0
9.969996875E0;7.073142052E0;1.291518569E0;-8.146280289E0
9.981909375E0;6.517868996E0;1.763674259E0;-7.905347824E0
9.993826562E0;5.901362419E0;1.060813308E0;-7.181034565E0
1.000573125E1;5.840597630E0;7.440699935E-1;-5.886135101E0
1.001764375E1;6.294959545E0;1.502600964E-2;-6.026205540E0
1.002955469E1;6.636305809E0;-1.301344395E0;-6.682523251E0
1.004146719E1;7.199249744E0;-1.646329761E0;-7.538498402E0
1.005337812E1;7.414334774E0;-1.314244390E0;-8.301568031E0
1.006529063E1;7.323116302E0;-1.365710139E0;-8.370128632E0
1.007720625E1;7.380327702E0;-4.281885922E-1;-7.688221931E0
1.008911562E1;7.066840649E0;-4.392306507E-1;-7.028026104E0
1.010102500E1;6.785234928E0;-7.640472651E-1;-6.574065685E0
1.011294531E1;6.648746014E0;-1.467233896E0;-6.613627911E0
1.012484688E1;6.843959332E0;-1.877666950E0;-6.774939537E0
1.013675938E1;6.143253326E0;-2.826987028E0;-6.277156353E0
1.014867031E1;5.619852066E0;-1.647976875E0;-5.121541977E0
1.016058281E1;6.048538685E0;1.358939290E0;-6.098701954E0
1.017249375E1;6.403177738E0;2.328811169E0;-9.265905380E0
1.018440469E1;6.228496552E0;1.234306812E0;-9.866696358E0
1.019631719E1;6.210789204E0;5.155961514E-1;-8.535530090E0
1.020822812E1;6.261316299E0;-4.575127959E-1;-7.376343727E0
1.022014062E1;5.993185043E0;-1.422040939E0;-6.724661350E0
1.023205156E1;5.896391869E0;-1.256802559E0;-5.197323322E0
1.024396406E1;7.055760384E0;-8.676203489E-1;-4.593544006E0
1.025587500E1;7.882909298E0;-4.772410393E-1;-4.401950836E0
1.026778750E1;7.631709576E0;-6.566241980E-1;-4.907203674E0
1.027969844E1;7.725284576E0;-6.303741336E-1;-6.275595188E0
1.029161406E1;8.344597816E0;2.352063730E-2;-7.401004314E0
1.030352188E1;8.825276375E0;5.661041737E-1;-7.814952374E0
1.031543438E1;9.019896507E0;1.053774357E0;-7.639083385E0
1.032734531E1;8.671233177E0;6.147639751E-1;-7.004926682E0
1.033925625E1;8.248388290E0;4.026664197E-1;-6.385996819E0
1.035116875E1;8.082058907E0;2.286845744E-1;-5.877047062E0
1.036307969E1;7.962971210E0;1.725740544E-2;-5.161372185E0
1.037499062E1;7.955979824E0;-1.198920459E-1;-4.643860817E0
1.038690312E1;7.656657219E0;-3.675865829E-1;-4.485814571E0
1.039881406E1;7.649703979E0;-2.609296739E-1;-4.672677040E0
1.041073281E1;7.320070744E0;-1.860965192E-1;-4.631564140E0
1.042264063E1;7.391216755E0;-2.467176914E-1;-4.823990822E0
1.043455312E1;7.699331284E0;4.755842313E-2;-4.723501682E0
1.044646094E1;8.541898727E0;7.911112905E-1;-4.324339867E0
1.045837188E1;9.221632004E0;1.274768829E0;-3.464754581E0
1.047029219E1;9.810749054E0;1.430899382E0;-3.989908457E0
1.048219844E1;1.108974075E1;1.989993453E0;-5.920142651E0
1.049410625E1;1.148503304E1;2.411564350E0;-6.893394947E0
1.050601875E1;1.184322548E1;2.540564060E0;-6.676815510E0
1.051792969E1;1.115251732E1;2.049159050E0;-5.137899399E0
1.052984375E1;9.777718544E0;9.477590919E-1;-3.855737209E0
1.054175313E1;9.002801895E0;9.164046645E-1;-3.562802076E0
1.055366562E1;8.465255737E0;9.350889921E-1;-3.499432087E0
1.056557656E1;8.643355370E0;1.299333215E0;-3.586715221E0
1.057748750E1;8.884461403E0;1.359427691E0;-3.991469383E0
1.058940156E1;8.936663628E0;9.841892719E-1;-4.382624626E0
1.060131094E1;8.757970810E0;5.541331768E-1;-4.529934883E0
1.061324063E1;8.909083366E0;6.844352484E-1;-4.700794697E0
1.062513438E1;9.021687508E0;9.957580566E-1;-4.614910126E0
1.063704531E1;8.963469505E0;1.209052682E0;-4.311631680E0
1.064896406E1;8.939795494E0;1.243701577E0;-3.965324640E0
1.066087344E1;8.918985367E0;1.142522573E0;-3.966569901E0
1.067278125E1;8.829959869E0;9.459874034E-1;-4.176225185E0
1.068469219E1;8.798154831E0;8.519527316E-1;-4.371908188E0
1.069660313E1;8.828322411E0;8.785762191E-1;-4.385928631E0
1.070851562E1;8.797389030E0;9.448573589E-1;-4.362944126E0
1.072042656E1;8.801123619E0;9.784144759E-1;-4.374416828E0
1.073233906E1;8.903824806E0;1.113294244E0;-4.355407238E0
1.074425000E1;9.092622757E0;1.164453506E0;-4.077737331E0
1.075616250E1;9.279399872E0;1.297647715E0;-3.879784584E0
1.076807344E1;9.381516457E0;1.313775182E0;-3.838824749E0
1.077998438E1;9.363512039E0;1.316877961E0;-3.952453613E0
1.079189688E1;9.308474541E0;1.241546750E0;-4.013160706E0
1.080380781E1;9.161930084E0;1.104320765E0;-3.950787067E0
1.081572031E1;9.084836960E0;9.837487340E-1;-4.175985813E0
1.082763594E1;9.022281647E0;9.890159965E-1;-4.207732677E0
1.083954375E1;8.949746132E0;9.933351278E-1;-4.056964874E0
1.085145469E1;8.998205185E0;1.053429604E0;-4.219081402E0
1.086336875E1;9.128325462E0;1.169289827E0;-4.361450195E0
1.087527813E1;9.269860268E0;1.213774085E0;-4.376006603E0
1.088719688E1;9.244644165E0;1.111388445E0;-4.231646061E0
1.089910469E1;9.204508781E0;1.081757784E0;-4.225277424E0
1.091101250E1;9.144988060E0;1.046017051E0;-4.213680267E0
1.092292500E1;9.014331818E0;1.056005716E0;-4.063094139E0
1.093483594E1;8.868525505E0;1.111005425E0;-3.844829321E0
1.094674844E1;8.890340805E0;1.201908469E0;-3.983721733E0
1.095866094E1;8.982795715E0;1.272546887E0;-4.066359997E0
1.097057031E1;9.060741425E0;1.277392864E0;-4.179012299E0
1.098248281E1;9.094998360E0;1.209943414E0;-4.233925343E0
1.099439375E1;9.047314644E0;1.061426282E0;-4.411316395E0
1.100631094E1;8.975737572E0;1.000766754E0;-4.494070053E0
1.101821719E1;8.936606407E0;1.023176432E0;-4.492987633E0
1.103012813E1;8.882526398E0;1.079746723E0;-4.372023106E0
1.104203906E1;8.834710121E0;1.098670363E0;-4.302562714E0
1.105395156E1;8.771291733E0;1.069384575E0;-4.281637192E0
1.106586562E1;8.780494690E0;1.021663308E0;-4.346615791E0
1.107777500E1;8.813095093E0;1.054827809E0;-4.448925018E0
1.108968594E1;8.821196556E0;9.968211055E-1;-4.423804760E0
1.110159844E1;8.805318832E0;9.575657248E-1;-4.516087055E0
1.111350938E1;8.766178131E0;9.917740822E-1;-4.539779663E0
1.112542969E1;8.800462723E0;1.051360965E0;-4.546464443E0
1.113733594E1;8.806285858E0;1.090012908E0;-4.380709171E0
1.114924375E1;8.845081329E0;1.091200590E0;-4.152465343E0
1.116115625E1;8.873208046E0;1.142244816E0;-4.220546722E0
1.117306719E1;8.952570915E0;1.206830978E0;-4.506481647E0
1.118498438E1;9.040764809E0;1.244764686E0;-4.442977428E0
1.119689219E1;9.068929672E0;1.087264419E0;-4.143750191E0
1.120880156E1;9.066046715E0;1.055009723E0;-4.202149391E0
1.122071406E1;8.990505219E0;1.104521871E0;-4.293521881E0
1.123262500E1;8.930238724E0;1.201362491E0;-4.352840900E0
1.124453750E1;8.896374702E0;1.189324498E0;-4.277959347E0
1.125644844E1;8.997994423E0;1.141181827E0;-4.312407017E0
1.126836094E1;9.190631866E0;1.084324360E0;-4.414956093E0
1.128027188E1;9.396121025E0;1.062862754E0;-4.408012867E0
1.129218281E1;9.501063347E0;1.044657230E0;-4.296835423E0
1.130409531E1;9.370004654E0;1.010544658E0;-4.199315071E0
1.131600625E1;9.086339951E0;9.971275926E-1;-4.229270935E0
1.132791875E1;8.832813263E0;1.086057782E0;-4.235994339E0
1.133982969E1;8.674594879E0;1.105192304E0;-4.348923683E0
1.135174219E1;8.645548820E0;1.080148935E0;-4.418374538E0
1.136365312E1;8.707126617E0;1.033844948E0;-4.449394226E0
1.137556406E1;8.711963654E0;1.044216633E0;-4.512409210E0
1.138747656E1;8.677620888E0;1.030569673E0;-4.533784866E0
1.139938750E1;8.647732735E0;1.082073808E0;-4.502909184E0
1.141130000E1;8.605383873E0;1.100652814E0;-4.478986263E0
1.142321094E1;8.600088120E0;1.096841335E0;-4.540297031E0
1.143512500E1;8.738961220E0;1.057882786E0;-4.603781700E0
1.144703438E1;8.923735619E0;9.624403715E-1;-4.746639252E0
1.145894531E1;9.143475533E0;8.932095766E-1;-4.786277294E0
1.147085781E1;9.171985626E0;8.859503865E-1;-4.692089558E0
1.148277031E1;9.116449356E0;9.709349871E-1;-4.528919697E0
1.149467969E1;8.881703377E0;1.040079474E0;-4.314025879E0
1.150659219E1;8.714865685E0;1.125849366E0;-4.189718723E0
1.151851094E1;8.629698753E0;1.187140942E0;-4.191432953E0
1.153041562E1;8.607002258E0;1.189085126E0;-4.326571465E0
1.154232656E1;8.695797920E0;1.239870906E0;-4.456337452E0
1.155423750E1;8.822805405E0;1.231778383E0;-4.452745914E0
1.156615625E1;8.933006287E0;1.194055438E0;-4.477205276E0
1.157806094E1;8.988944054E0;1.131547570E0;-4.445601463E0
1.158997344E1;9.060540199E0;1.057451963E0;-4.429963112E0
1.160188438E1;9.132232666E0;9.757521152E-1;-4.385679722E0
1.161379531E1;9.221468925E0;9.398773909E-1;-4.359160900E0
1.162570781E1;9.262036324E0;9.170941710E-1;-4.378075600E0
1.163761875E1;9.170424461E0;8.501331210E-1;-4.330584049E0
1.165151562E1;9.160676003E0;9.220358133E-1;-4.330229759E0
1.166343438E1;8.994258881E0;1.013283610E0;-4.304200172E0
1.167732656E1;8.890044212E0;1.054157495E0;-4.284270287E0
1.168923594E1;8.840159416E0;1.059434175E0;-4.280133247E0
1.170114844E1;8.901335716E0;1.067162752E0;-4.386407375E0
1.171504531E1;8.835475922E0;1.054052114E0;-4.351452351E0
1.172894062E1;8.802665710E0;1.092225194E0;-4.305253506E0
1.174085313E1;8.776597977E0;1.107270360E0;-4.265251160E0
1.175276406E1;8.840600014E0;1.168772697E0;-4.301470757E0
1.176467656E1;8.874252319E0;1.135167599E0;-4.256354332E0
1.177658750E1;8.896948814E0;1.187859297E0;-4.276168823E0
1.178850000E1;8.904189110E0;1.171272159E0;-4.293081760E0
1.180041094E1;8.947170258E0;1.127803087E0;-4.303941250E0
1.181232188E1;9.012876511E0;1.053171039E0;-4.344355583E0
1.182423438E1;9.121525764E0;1.039533734E0;-4.403521061E0
1.183614531E1;9.251635551E0;9.709158540E-1;-4.416123867E0
1.184805625E1;9.241991997E0;8.860653043E-1;-4.493858814E0
1.185997500E1;9.139433861E0;8.469823599E-1;-4.583536148E0
1.187187969E1;8.992813110E0;8.343218565E-1;-4.608780861E0
1.188379219E1;8.859408379E0;8.143829107E-1;-4.480958939E0
1.189570312E1;8.744218826E0;8.595088720E-1;-4.489789009E0
1.190761562E1;8.721732140E0;9.586287737E-1;-4.356814861E0
1.191952656E1;8.695271492E0;1.055929184E0;-4.229587078E0
1.193143906E1;8.738635063E0;1.147741914E0;-4.082554340E0
1.194335000E1;8.746861458E0;1.174020767E0;-4.085609436E0
1.195526094E1;8.861830711E0;1.197704196E0;-4.010249615E0
1.196717500E1;8.997696877E0;1.222182512E0;-4.020927906E0
1.197909219E1;9.130154610E0;1.161331415E0;-4.043461800E0
1.199099688E1;9.159956932E0;1.137466073E0;-4.070190907E0
1.200290781E1;9.201271057E0;1.123522162E0;-4.144372463E0
1.201482031E1;9.268327713E0;1.099637747E0;-4.241864681E0
1.202673125E1;9.468905449E0;1.023272276E0;-4.260692596E0
1.203864688E1;9.673858643E0;9.549896121E-1;-4.248462677E0
1.205055625E1;9.596525192E0;8.908441067E-1;-4.191998005E0
1.206246719E1;9.265130043E0;8.804724813E-1;-4.165202141E0
1.207437812E1;8.915155411E0;9.295440316E-1;-4.189412594E0
1.208628906E1;8.700711250E0;9.584946632E-1;-4.304975510E0
1.209820156E1;8.629880905E0;1.024756551E0;-4.401347160E0
1.211011250E1;8.702013969E0;1.044389009E0;-4.398378372E0
1.212202344E1;8.836423874E0;1.090836525E0;-4.356163502E0
1.213393594E1;8.910653114E0;1.083960414E0;-4.297439098E0
1.214584688E1;8.939805984E0;1.117795229E0;-4.233456135E0
1.215775938E1;8.947753906E0;1.097703099E0;-4.180314541E0
1.216967031E1;8.939785957E0;1.109664559E0;-4.252906799E0
1.218158125E1;8.975747108E0;1.047185540E0;-4.282230854E0
1.219349375E1;9.033514977E0;1.034141898E0;-4.291003227E0
1.220540469E1;9.099211693E0;9.851086140E-1;-4.293435574E0
1.221731719E1;9.066190720E0;1.007346034E0;-4.342785358E0
1.222922969E1;8.983609200E0;9.931818843E-1;-4.298501968E0
1.224114844E1;8.898069382E0;1.022764683E0;-4.311076164E0
1.225305156E1;8.867874146E0;1.003419518E0;-4.264637947E0
1.226496250E1;8.923946381E0;1.047444105E0;-4.218085289E0
1.227687656E1;9.017866135E0;1.063379884E0;-4.207378387E0
1.228878594E1;9.099220276E0;1.024287343E0;-4.188531399E0
1.230069844E1;9.121438980E0;1.041295767E0;-4.165556431E0
1.231260938E1;9.149116516E0;1.060027957E0;-4.227643013E0
1.232452031E1;9.095131874E0;1.055526853E0;-4.220881939E0
1.233643281E1;9.068240166E0;1.025168419E0;-4.208700180E0
1.234834375E1;9.003423691E0;1.016242862E0;-4.238148689E0
1.236025469E1;8.960798264E0;1.006350040E0;-4.217252254E0
1.237216719E1;8.907588959E0;1.029889822E0;-4.276982784E0
1.238407812E1;8.903356552E0;1.017286777E0;-4.303299904E0
1.239599063E1;8.933321953E0;1.061100602E0;-4.300962925E0
1.240790156E1;8.956354141E0;1.059874773E0;-4.270451069E0
1.241981406E1;9.015883446E0;1.045011640E0;-4.279817581E0
1.243172500E1;9.041884422E0;1.068168283E0;-4.301164150E0
1.244363594E1;9.049967766E0;9.930287004E-1;-4.272510052E0
1.245554844E1;9.011440277E0;1.033404589E0;-4.241797447E0
1.246746250E1;8.965682030E0;1.049570203E0;-4.214608669E0
1.247937188E1;8.916419029E0;1.076969385E0;-4.236463547E0
1.249129063E1;8.885744095E0;1.099426985E0;-4.244019508E0
1.250319531E1;8.901728630E0;1.093680859E0;-4.260941505E0
1.251511094E1;8.919809341E0;1.051495075E0;-4.317023277E0
1.252701719E1;8.979941368E0;1.054521322E0;-4.274531364E0
1.253892969E1;8.991271019E0;1.005880713E0;-4.248913288E0
1.255084063E1;9.019599915E0;1.023549914E0;-4.261928082E0
1.256275312E1;9.103157043E0;9.894469380E-1;-4.287373543E0
1.257467031E1;9.146501541E0;9.885563254E-1;-4.303683281E0
1.258657656E1;9.186350822E0;1.018809438E0;-4.277107239E0
1.259848750E1;9.131868362E0;1.084697843E0;-4.205673695E0
1.261039844E1;9.013508797E0;1.094054461E0;-4.191145897E0
1.262231094E1;8.954659462E0;1.097932935E0;-4.183264256E0
1.263422188E1;8.918210030E0;1.059482217E0;-4.253012180E0
1.264613594E1;8.936032295E0;1.031230569E0;-4.285793304E0
1.265804531E1;8.953884125E0;1.000900865E0;-4.277298927E0
1.266995625E1;8.937766075E0;9.778686166E-1;-4.271974087E0
1.268186875E1;8.955569267E0;1.008907080E0;-4.243770599E0
1.269377969E1;8.923324585E0;1.015831113E0;-4.226589680E0
1.270569062E1;8.901507378E0;1.057691336E0;-4.256201267E0
1.271760312E1;8.929720879E0;1.062910676E0;-4.281435966E0
1.272951406E1;8.992851257E0;1.090472698E0;-4.293426037E0
1.274142656E1;9.052476883E0;1.060688853E0;-4.351020813E0
1.275333750E1;9.087652206E0;1.041142583E0;-4.283246040E0
1.276525000E1;9.062705040E0;1.027428627E0;-4.279836655E0
1.277716406E1;9.009984016E0;1.056178093E0;-4.241768837E0
1.278907188E1;8.964350700E0;1.098373532E0;-4.217549324E0
1.280098438E1;8.891663551E0;1.091985822E0;-4.237622261E0
1.281289531E1;8.927844048E0;1.070351839E0;-4.276398659E0
1.282480625E1;9.016658783E0;1.014145494E0;-4.283676624E0
1.283671875E1;9.095687866E0;9.729461074E-1;-4.312053204E0
1.284862969E1;9.086138725E0;9.914963841E-1;-4.218104362E0
1.286054219E1;8.963776588E0;1.022678494E0;-4.158000469E0
1.287245938E1;8.890340805E0;1.059826851E0;-4.200809002E0
1.288437188E1;8.896785736E0;1.081815362E0;-4.233302593E0
1.289627656E1;8.946940422E0;1.057403922E0;-4.338752747E0
1.290818906E1;9.032757759E0;1.005717993E0;-4.352945805E0
1.292010000E1;9.077893257E0;1.030263305E0;-4.306355000E0
1.293201094E1;9.093235016E0;9.983629584E-1;-4.259102821E0
1.294392344E1;9.050609589E0;1.045729876E0;-4.197083473E0
1.295583438E1;8.987727165E0;1.075216770E0;-4.174788475E0
1.296774688E1;8.949305534E0;1.068225741E0;-4.199649811E0
1.297965781E1;8.941405296E0;1.084448814E0;-4.293607712E0
1.299157031E1;9.007964134E0;1.041104198E0;-4.298262119E0
1.300348125E1;9.024684906E0;1.038441896E0;-4.243885040E0
1.301539219E1;9.006650925E0;1.019968271E0;-4.190389156E0
1.302730469E1;9.025977135E0;1.033844948E0;-4.226905823E0
1.303921562E1;9.036301613E0;1.028989673E0;-4.242190361E0
1.305112812E1;9.019541740E0;1.003859997E0;-4.237555027E0
1.306303906E1;8.982738495E0;1.051274776E0;-4.254802704E0
1.307495000E1;8.959294319E0;1.054942727E0;-4.264369965E0
1.308686250E1;8.983456612E0;1.059003353E0;-4.254822254E0
1.309877344E1;8.986549377E0;1.043287754E0;-4.266821861E0
1.311068750E1;8.992267609E0;1.036785126E0;-4.271102428E0
1.312259688E1;8.986645699E0;1.034534574E0;-4.271859169E0
1.313450781E1;9.008251190E0;1.026365519E0;-4.261679173E0
1.314642031E1;9.000733376E0;1.043421865E0;-4.249650478E0
1.315833125E1;9.011622429E0;1.041496992E0;-4.283571720E0
1.317024219E1;9.023028374E0;1.061292171E0;-4.269455433E0
1.318215469E1;9.021054268E0;1.022266626E0;-4.235821724E0
1.319406562E1;9.036301613E0;1.033337355E0;-4.224348545E0
1.320597813E1;9.046146393E0;9.968307018E-1;-4.249114037E0
1.321788906E1;9.008432388E0;1.003582358E0;-4.221274376E0
1.322980156E1;8.969991684E0;1.046984434E0;-4.206890106E0
1.324171250E1;8.989500046E0;1.041650176E0;-4.279463291E0
1.325362344E1;8.989652634E0;1.063667178E0;-4.232172966E0
1.326553594E1;9.013345718E0;1.044829607E0;-4.261526108E0
1.327744688E1;8.977892876E0;1.043479204E0;-4.220527172E0
1.328937969E1;8.975852966E0;1.042061925E0;-4.211448669E0
1.330127031E1;8.973640442E0;1.020743966E0;-4.240581512E0
1.331318125E1;8.974051476E0;1.048756123E0;-4.280238628E0
1.332509375E1;8.980037689E0;1.036382914E0;-4.258719921E0
1.333700469E1;9.023756027E0;1.010468006E0;-4.253682613E0
1.334892500E1;9.048444748E0;1.053142309E0;-4.266764164E0
1.336082813E1;9.042919159E0;1.048928499E0;-4.219560146E0
1.337274062E1;9.018958092E0;1.053113580E0;-4.192936420E0
1.338465156E1;8.973458290E0;1.070160270E0;-4.217865467E0
1.339656406E1;8.979903221E0;1.046859860E0;-4.258346081E0
1.340851094E1;9.007484436E0;1.013561368E0;-4.290351868E0
1.342038594E1;9.036636353E0;9.959878922E-1;-4.227757931E0
1.343229844E1;9.023573875E0;9.989184141E-1;-4.214704514E0
1.344420938E1;8.961726189E0;9.946280122E-1;-4.173352242E0
1.345612188E1;8.988695145E0;1.047319531E0;-4.238627434E0
1.346804219E1;8.962952614E0;1.053458333E0;-4.274521351E0
1.347994531E1;8.993578911E0;1.065841198E0;-4.244268417E0
1.349185625E1;9.031206131E0;1.037254453E0;-4.287852764E0
1.350376875E1;9.022098541E0;1.016903639E0;-4.237584114E0
1.351567969E1;9.023028374E0;1.022199631E0;-4.269675732E0
1.352759062E1;9.011335373E0;1.035070777E0;-4.243942738E0
1.353950469E1;9.035200119E0;1.019441485E0;-4.222222805E0
1.355141406E1;9.037585258E0;1.045442462E0;-4.225066662E0
1.356332500E1;8.980775833E0;1.055689692E0;-4.246604919E0
1.357523750E1;8.954601288E0;1.051514268E0;-4.199649811E0
1.358715312E1;8.930727005E0;1.038480282E0;-4.222280502E0
1.359906250E1;8.979012489E0;1.045624495E0;-4.273535252E0
1.361097188E1;9.020873070E0;9.905578494E-1;-4.271955013E0
1.362288281E1;9.075594902E0;9.939480424E-1;-4.265595913E0
1.363479531E1;9.062867165E0;9.840647578E-1;-4.229357243E0
1.364670781E1;9.014820099E0;1.041267037E0;-4.229108334E0
1.365861875E1;8.989231110E0;1.065984726E0;-4.231894970E0
1.367052969E1;8.987536430E0;1.043306828E0;-4.225536346E0
1.368244063E1;9.014840126E0;1.056446314E0;-4.280181408E0
1.369435313E1;9.053434372E0;1.038882494E0;-4.237258434E0
1.370626406E1;8.984605789E0;1.013025045E0;-4.210807323E0
1.371817656E1;8.975469589E0;1.030205846E0;-4.172356129E0
1.373008750E1;8.936414719E0;1.016664267E0;-4.218095303E0
1.374200312E1;8.954792976E0;1.021778226E0;-4.241165638E0
1.375391094E1;9.022405624E0;9.938139915E-1;-4.305962563E0
1.376583125E1;9.047477722E0;1.023856401E0;-4.265787601E0
1.377773438E1;9.066171646E0;1.014950037E0;-4.247486115E0
1.378964531E1;9.041061401E0;1.036267996E0;-4.230238438E0
1.380155625E1;9.041454315E0;1.000699759E0;-4.261162281E0
1.381347188E1;9.065596581E0;1.049809575E0;-4.259457111E0
1.382538438E1;9.072396278E0;9.945609570E-1;-4.201306820E0
1.383729219E1;9.037402153E0;9.947429299E-1;-4.240025997E0
1.384920312E1;8.962158203E0;1.040079474E0;-4.191672325E0
1.386111406E1;8.908124924E0;1.025177956E0;-4.202733994E0
1.387302656E1;8.979462624E0;1.044657230E0;-4.204955578E0
1.388493906E1;8.989528656E0;1.014116764E0;-4.267070770E0
1.389685156E1;9.019082069E0;1.026212335E0;-4.239413261E0
1.390876094E1;9.010885239E0;1.027696609E0;-4.253605843E0
1.392067344E1;9.017723083E0;1.051552534E0;-4.256315708E0
1.393258438E1;9.027452469E0;1.068053365E0;-4.256928921E0
1.394449844E1;9.006220818E0;1.060027957E0;-4.243952274E0
1.395640781E1;9.034883499E0;1.031977534E0;-4.248913288E0
1.396832031E1;8.990600586E0;1.071338296E0;-4.226895809E0
1.398023125E1;8.979980469E0;1.038662076E0;-4.218899250E0
1.399214219E1;9.000800133E0;1.062134862E0;-4.219914436E0
1.400405469E1;8.987220764E0;1.032475591E0;-4.238886356E0
1.401596563E1;9.001058578E0;1.016970754E0;-4.256047726E0
1.402787812E1;9.048214912E0;1.023818135E0;-4.263489246E0
1.403978906E1;9.042554855E0;1.022937059E0;-4.231310844E0
1.405170156E1;9.012235641E0;1.034228206E0;-4.207589149E0
1.406361406E1;9.049162865E0;1.062269092E0;-4.236903667E0
1.407552344E1;9.011995316E0;1.066808343E0;-4.229069710E0
1.408743594E1;9.004650116E0;1.053391218E0;-4.245043755E0
1.409934688E1;8.996931076E0;1.025436640E0;-4.220144749E0
1.411125781E1;8.963288307E0;1.029439688E0;-4.245034695E0
1.412317031E1;8.969694138E0;1.022218823E0;-4.221542358E0
1.413508281E1;8.957216263E0;1.022908330E0;-4.240111828E0
1.414699375E1;9.010012627E0;1.019029737E0;-4.269474506E0
1.415890469E1;9.000714302E0;1.025704741E0;-4.219014168E0
1.417081719E1;9.009074211E0;1.020246029E0;-4.236463547E0
1.418272969E1;9.004774094E0;1.056293130E0;-4.264820099E0
1.419463906E1;9.007025719E0;1.057145357E0;-4.251900673E0
1.420655156E1;9.006469727E0;1.069221854E0;-4.248606682E0
1.421846250E1;8.990055084E0;1.054521322E0;-4.223208904E0
1.423037500E1;9.022759438E0;1.013427258E0;-4.225124359E0
1.424229219E1;8.988886833E0;1.030368686E0;-4.246547699E0
1.425419688E1;8.982575417E0;1.024718404E0;-4.213938713E0
1.426610938E1;9.011373520E0;1.037302256E0;-4.205731392E0
1.427802031E1;9.016219139E0;1.029372692E0;-4.221848965E0
1.428993281E1;9.022166252E0;1.041535139E0;-4.236961365E0
1.430184375E1;9.020088196E0;1.036401987E0;-4.234404087E0
1.431375469E1;9.005531311E0;1.039428353E0;-4.248750687E0
1.432566719E1;9.015174866E0;1.079191208E0;-4.239795685E0
1.433757812E1;9.028305054E0;1.071730852E0;-4.264523506E0
1.434949063E1;9.014255524E0;1.048765779E0;-4.218104362E0
1.436140781E1;8.974425316E0;1.065046310E0;-4.231406689E0
1.437331250E1;8.990494728E0;1.052797437E0;-4.254783630E0
1.438522500E1;8.943539619E0;1.032542586E0;-4.233351231E0
1.439713750E1;8.954257011E0;1.026988029E0;-4.227595329E0
1.440904844E1;9.002668381E0;9.985449314E-1;-4.232038498E0
1.442095938E1;8.998912811E0;9.971562624E-1;-4.223764420E0
1.443287188E1;9.026264191E0;1.034209013E0;-4.252197742E0
1.444478281E1;9.037393570E0;1.006752253E0;-4.238618374E0
1.445669531E1;9.019111633E0;1.052481413E0;-4.219435692E0
1.446860625E1;9.015835762E0;1.031996727E0;-4.213612556E0
1.448051875E1;8.999679565E0;1.059271455E0;-4.238234997E0
1.449243125E1;9.002648354E0;1.038585544E0;-4.285353184E0
1.450434063E1;9.038302422E0;1.065419793E0;-4.294249535E0
1.451625312E1;9.011697769E0;9.921092987E-1;-4.286090374E0
1.452816406E1;9.005837440E0;1.038556814E0;-4.218228817E0
1.454007500E1;8.991424561E0;1.047195077E0;-4.125515938E0
1.455198750E1;8.949162483E0;1.051600456E0;-4.199889660E0
1.456389844E1;8.965002060E0;1.007662058E0;-4.281589508E0
1.457581094E1;9.006680489E0;1.034247160E0;-4.262559891E0
1.458772656E1;9.033572197E0;1.061771035E0;-4.234117031E0
1.459963438E1;9.019972801E0;1.044360399E0;-4.272424221E0
1.461154531E1;9.015480995E0;1.035463452E0;-4.271351337E0
1.462345625E1;8.999277115E0;1.030378222E0;-4.237918854E0
1.463536875E1;8.971313477E0;1.050939560E0;-4.258528233E0
1.464727969E1;8.985553741E0;1.022276282E0;-4.252743721E0
1.465919688E1;8.997295380E0;1.034314275E0;-4.236405849E0
1.467110312E1;9.011335373E0;1.022946596E0;-4.231684685E0
1.468301406E1;9.019627571E0;1.027533889E0;-4.196001530E0
1.469492656E1;8.991903305E0;1.047999501E0;-4.230640411E0
1.470683750E1;9.003395081E0;1.051734447E0;-4.248826981E0
1.471874844E1;9.016228676E0;1.052136660E0;-4.239259720E0
1.473066094E1;9.004391670E0;1.045069098E0;-4.219655991E0
1.474257188E1;9.009687424E0;1.060612202E0;-4.245111465E0
1.475448438E1;8.996461868E0;1.071682930E0;-4.224022865E0
1.476639531E1;8.994795799E0;1.052663445E0;-4.227719784E0
1.477831094E1;9.029472351E0;1.075475454E0;-4.254419804E0
1.479021875E1;9.003146172E0;1.043967605E0;-4.244096279E0
1.480212969E1;9.002629280E0;1.052749634E0;-4.246183395E0
1.481404219E1;8.992554665E0;1.032667160E0;-4.266811848E0
1.482595313E1;9.018085480E0;1.029545069E0;-4.249392033E0
1.483786406E1;9.003079414E0;1.049618006E0;-4.214599609E0
1.484977656E1;9.030181885E0;1.015936375E0;-4.204965115E0
1.486168750E1;9.014064789E0;1.034419656E0;-4.228504658E0
1.487360000E1;9.034376144E0;1.025177956E0;-4.218947411E0
1.488551094E1;9.008222580E0;1.044705033E0;-4.225018978E0
1.489742969E1;9.011239052E0;1.041880012E0;-4.212952137E0
1.490933438E1;8.994814873E0;1.040357351E0;-4.249104500E0
1.492124688E1;9.007781029E0;1.047262073E0;-4.253356934E0
1.493315781E1;9.007331848E0;1.036277533E0;-4.209399223E0
1.494506875E1;8.983331680E0;1.027390242E0;-4.205501556E0
1.495699063E1;8.983236313E0;1.044092178E0;-4.233953953E0
1.496889375E1;9.004832268E0;1.051820636E0;-4.242745399E0
1.498080469E1;9.034855843E0;1.029056668E0;-4.254525185E0
1.499271719E1;9.024895668E0;1.031709313E0;-4.210864067E0
1.500463281E1;9.028936386E0;1.005229592E0;-4.261190414E0
1.501653906E1;9.026552200E0;1.060382366E0;-4.255051613E0
1.502845156E1;9.047228813E0;1.033059716E0;-4.240686417E0
1.504036250E1;8.999468803E0;1.031019926E0;-4.225603104E0
1.505227344E1;9.000226021E0;1.049091339E0;-4.248376846E0
1.506418594E1;8.968287468E0;1.063686371E0;-4.222519398E0
1.507609688E1;8.978533745E0;1.029736519E0;-4.252418518E0
1.508801562E1;9.012291908E0;1.029995084E0;-4.175392151E0
1.509992031E1;9.008097649E0;1.022764683E0;-4.234366417E0
1.511183125E1;8.996882439E0;1.034237623E0;-4.198424339E0
1.512374375E1;8.970594406E0;1.044417858E0;-4.227221489E0
1.513565469E1;9.017348289E0;1.031575322E0;-4.247352123E0
1.514756562E1;9.028726578E0;1.055019259E0;-4.250895500E0
1.515948438E1;9.041291237E0;1.040223122E0;-4.253299236E0
1.517138906E1;9.026370049E0;1.050815225E0;-4.233551979E0
1.518330156E1;9.015615463E0;1.072937489E0;-4.179280281E0
1.519521250E1;9.005962372E0;1.058438182E0;-4.222174644E0
1.520712344E1;8.998769760E0;1.028491616E0;-4.235946178E0
1.521903594E1;9.016956329E0;1.064653516E0;-4.257580280E0
1.523094688E1;8.998779297E0;1.033375740E0;-4.258566380E0
1.524285938E1;9.044221878E0;1.002299070E0;-4.212779999E0
1.525477656E1;9.026274681E0;1.041554332E0;-4.208575726E0
1.526668125E1;8.978955269E0;1.017277122E0;-4.207168102E0
1.527859375E1;8.986731529E0;1.051217437E0;-4.178618908E0
1.529050469E1;8.986482620E0;1.064433336E0;-4.208355427E0
1.530241719E1;9.006699562E0;1.055450320E0;-4.211506367E0
1.531433438E1;9.018641472E0;1.050786376E0;-4.257465363E0
1.532623906E1;9.048846245E0;1.067727804E0;-4.220814705E0
1.533815156E1;8.994277954E0;1.035137892E0;-4.219110489E0
1.535006250E1;8.994374275E0;1.031910539E0;-4.236731529E0
1.536197500E1;8.989040375E0;1.047587752E0;-4.206095219E0
1.537388750E1;8.982805252E0;1.022486925E0;-4.232986927E0
1.538580000E1;9.009284973E0;1.032523394E0;-4.231894970E0
1.539770938E1;9.019647598E0;1.031747699E0;-4.253643990E0
1.540962188E1;9.008135796E0;1.076423407E0;-4.227049351E0
1.542153281E1;9.031991959E0;1.053448677E0;-4.214982510E0
1.543344375E1;9.021687508E0;1.039706111E0;-4.229098797E0
1.544535625E1;9.020605087E0;1.045471311E0;-4.204591751E0
1.545726719E1;9.000100136E0;1.046898246E0;-4.225153446E0
1.546917969E1;8.987153053E0;1.024727941E0;-4.252734184E0
1.548109062E1;8.976312637E0;1.031479478E0;-4.244555473E0
1.549300313E1;9.003337860E0;1.026499629E0;-4.246423244E0
1.550491406E1;9.003548622E0;1.042377949E0;-4.215404034E0
1.551682656E1;9.013978004E0;1.025704741E0;-4.207838535E0
1.552873750E1;9.011717796E0;1.027533889E0;-4.266007900E0
1.554064844E1;9.016160965E0;1.051983476E0;-4.232632637E0
1.555256094E1;9.041616440E0;1.064672709E0;-4.207838535E0
1.556447188E1;9.008222580E0;1.058227539E0;-4.225737095E0
1.557638281E1;9.014916420E0;1.026997566E0;-4.230056763E0
1.558829531E1;9.046989441E0;1.019939542E0;-4.224961281E0
1.560021250E1;9.009199142E0;1.030196309E0;-4.249927998E0
1.561211875E1;8.980430603E0;1.044178367E0;-4.210433483E0
1.562402969E1;9.000024796E0;1.046390653E0;-4.209514141E0
1.563594063E1;8.986454010E0;1.051035404E0;-4.222260952E0
1.564785313E1;8.979329109E0;1.057212353E0;-4.232891083E0
1.565976562E1;8.986099243E0;1.037110686E0;-4.225095749E0
1.567167813E1;9.010281563E0;1.061799645E0;-4.217319489E0
1.568358750E1;9.022740364E0;1.013101697E0;-4.237459660E0
1.569550000E1;9.060914040E0;1.046467304E0;-4.227355957E0
1.570741094E1;9.061038017E0;1.008064270E0;-4.234298706E0
1.571932188E1;9.067943573E0;1.022898793E0;-4.194420815E0
1.573123438E1;9.023919106E0;1.050719380E0;-4.179471493E0
1.574314531E1;8.976810455E0;1.068436384E0;-4.223122597E0
1.575505625E1;8.945187569E0;1.080484152E0;-4.235266209E0
1.576696719E1;9.002505302E0;1.057777524E0;-4.252398968E0
1.577887969E1;9.029521942E0;1.010151982E0;-4.230851173E0
1.579079844E1;9.007867813E0;9.889394045E-1;-4.200071335E0
1.580270781E1;9.012819290E0;9.801861644E-1;-4.162089825E0
1.581461406E1;9.006852150E0;9.925307035E-1;-4.213776112E0
1.582652656E1;8.978984833E0;1.007681251E0;-4.198893547E0
1.583843750E1;9.025891304E0;1.016855717E0;-4.240313053E0
1.585037969E1;9.046481133E0;1.057011366E0;-4.232077122E0
1.586226094E1;9.056527138E0;1.046294928E0;-4.223132133E0
1.587417344E1;9.023554802E0;1.040136933E0;-4.205606937E0
1.588608438E1;9.023008347E0;1.062307239E0;-4.176637173E0
1.589799688E1;9.024703979E0;1.067143559E0;-4.180458069E0
1.590991250E1;8.988378525E0;1.033222556E0;-4.229098797E0
1.592182031E1;8.972979546E0;1.028951287E0;-4.197524071E0
1.593373125E1;8.974675179E0;1.018072009E0;-4.249228954E0
1.594564219E1;9.018679619E0;1.007891893E0;-4.234586239E0
1.595755469E1;8.995063782E0;1.001101971E0;-4.221006393E0
1.596946563E1;8.983168602E0;1.011780143E0;-4.179759026E0
1.598137812E1;9.026130676E0;1.050135136E0;-4.243827820E0
1.599328906E1;9.034405708E0;1.060880423E0;-4.242745399E0
1.600520000E1;9.027739525E0;1.032868147E0;-4.200234413E0
1.601711250E1;9.027338028E0;1.049273372E0;-4.214168549E0
1.602902656E1;9.008605003E0;1.047654748E0;-4.207406998E0
1.604093594E1;9.005339622E0;1.032331944E0;-4.224587917E0
1.605284688E1;9.010549545E0;1.021079183E0;-4.205463409E0
1.606475781E1;9.000494003E0;1.043201566E0;-4.220230579E0
1.607667031E1;9.008509636E0;1.039332509E0;-4.200195789E0
1.608858906E1;9.030134201E0;1.012268543E0;-4.231818199E0
1.610049375E1;9.022578239E0;1.050115943E0;-4.187075615E0
1.611240469E1;9.027471542E0;1.031575322E0;-4.204544067E0
1.612431719E1;9.016832352E0;1.067181826E0;-4.196125984E0
1.613622813E1;9.018085480E0;1.033816338E0;-4.226829052E0
1.614814531E1;9.020998001E0;1.026854038E0;-4.231272697E0
1.616005156E1;9.006632805E0;1.020887613E0;-4.201478958E0
1.617196250E1;9.005540848E0;1.046352267E0;-4.226321220E0
1.618389688E1;8.983743668E0;1.049618006E0;-4.194909573E0
1.619578594E1;8.978457451E0;1.059127808E0;-4.214925289E0
1.620769688E1;8.993071556E0;1.033509851E0;-4.225114822E0
1.621960938E1;9.019139290E0;1.032226562E0;-4.197648525E0
1.623152031E1;9.015453339E0;1.037800312E0;-4.210175037E0
1.624343281E1;9.010128021E0;1.038949490E0;-4.248788357E0
1.625534375E1;9.014638901E0;1.060727119E0;-4.219167709E0
1.626726094E1;9.020653725E0;1.039294243E0;-4.231560230E0
1.627916875E1;9.033840179E0;1.024383187E0;-4.209475994E0
1.629107813E1;9.023507118E0;1.043795347E0;-4.182660580E0
1.630298906E1;9.012972832E0;1.028079867E0;-4.234097481E0
1.631490156E1;9.025278091E0;1.040318966E0;-4.199324131E0
1.632681875E1;9.018795013E0;1.009970069E0;-4.222845078E0
1.633872500E1;9.013728142E0;1.052069664E0;-4.190667152E0
1.635063594E1;9.012550354E0;1.053975463E0;-4.239575863E0
1.636254844E1;9.007810593E0;1.051408887E0;-4.222730160E0
1.637445938E1;9.025374413E0;1.027313590E0;-4.240810871E0
1.638637188E1;9.038896561E0;1.025982380E0;-4.228437901E0
1.639828438E1;8.999957085E0;1.038097143E0;-4.227767467E0
1.641019375E1;8.988723755E0;1.065716624E0;-4.183598995E0
1.642211875E1;8.991376877E0;1.092895627E0;-4.195407867E0
1.643401719E1;9.019082069E0;1.090654612E0;-4.244881153E0
1.644593594E1;9.040103912E0;1.051188588E0;-4.264982700E0
1.645784062E1;9.066162109E0;1.040433884E0;-4.210577011E0
1.646975312E1;9.013298035E0;1.021222830E0;-4.199784279E0
1.648166406E1;8.991251945E0;1.015955567E0;-4.156075478E0
1.649357500E1;8.940945625E0;1.020188451E0;-4.139507771E0
1.650549062E1;8.987440109E0;1.016032219E0;-4.210788250E0
1.651740000E1;9.023333549E0;1.038662076E0;-4.248414993E0
1.652931094E1;9.029836655E0;1.021931410E0;-4.239575863E0
1.654122188E1;9.046835899E0;1.042655587E0;-4.208920479E0
1.655313438E1;9.023697853E0;1.063063860E0;-4.196748257E0
1.656504531E1;9.011075974E0;1.068254471E0;-4.228495598E0
1.657695625E1;9.002676964E0;1.057078362E0;-4.201268673E0
1.658887500E1;8.990983963E0;1.027332783E0;-4.197188854E0
1.660077969E1;9.000052452E0;1.052855015E0;-4.223659039E0
1.661269063E1;8.971475601E0;1.042588592E0;-4.207656384E0
1.662460781E1;8.985544205E0;1.045806408E0;-4.241481304E0
1.663651562E1;9.015539169E0;1.033078909E0;-4.227595329E0
1.664842656E1;9.018804550E0;1.025206804E0;-4.235400200E0
1.666033750E1;9.026284218E0;1.019460678E0;-4.206823349E0
1.667225000E1;9.020490646E0;1.045107245E0;-4.239460945E0
1.668416875E1;9.009103775E0;1.038470626E0;-4.228754044E0
1.669607188E1;8.998750687E0;1.030971885E0;-4.199765205E0
1.670798438E1;9.013805389E0;1.042387605E0;-4.204984188E0
1.671989531E1;9.015864372E0;1.024545908E0;-4.232402802E0
1.673180781E1;9.037623405E0;1.027246594E0;-4.242343426E0
1.674372500E1;9.030143738E0;1.012670755E0;-4.229472160E0
1.675562969E1;9.003951073E0;1.020303369E0;-4.229826450E0
1.676754219E1;8.975718498E0;1.079229474E0;-4.197878361E0
1.677945312E1;9.005023003E0;1.053180575E0;-4.228313446E0
1.679136562E1;8.988455772E0;1.048497558E0;-4.235525131E0
1.680327656E1;9.025891304E0;1.059635401E0;-4.265892506E0
1.681518750E1;9.025393486E0;1.062642455E0;-4.228830338E0
1.682710000E1;9.021343231E0;1.085243821E0;-4.262397289E0
1.683901094E1;9.003156662E0;1.041171312E0;-4.226368904E0
1.685092344E1;9.006977081E0;1.052127242E0;-4.233370304E0
1.686283438E1;9.011152267E0;1.026892185E0;-4.244987011E0
1.687474688E1;9.023784637E0;1.020322561E0;-4.214972973E0
1.688665781E1;9.001269341E0;1.017612338E0;-4.210433483E0
1.689857031E1;9.016295433E0;1.022381544E0;-4.208278656E0
1.691048125E1;9.006852150E0;1.013925314E0;-4.236453533E0
1.692239219E1;9.009926796E0;1.054463863E0;-4.234748840E0
1.693430469E1;9.000014305E0;1.054588437E0;-4.205328941E0
1.694621562E1;9.002591133E0;1.054042459E0;-4.239135265E0
1.695812812E1;8.989709854E0;1.041219115E0;-4.209552288E0
1.697003906E1;9.008375168E0;1.043192029E0;-4.214130402E0
1.698195156E1;8.977892876E0;1.051485419E0;-4.199841976E0
1.699386250E1;8.996796608E0;1.041669369E0;-4.238608360E0
1.700577500E1;9.010568619E0;1.036938310E0;-4.223007679E0
1.701768594E1;8.994843483E0;1.051657796E0;-4.234969139E0
1.702959688E1;9.017607689E0;1.035463452E0;-4.212597847E0
1.704150938E1;9.042919159E0;1.042464137E0;-4.257704735E0
1.705342031E1;8.982087135E0;1.030636787E0;-4.223180294E0
1.706533125E1;8.974300385E0;1.048918962E0;-4.194114685E0
1.707724375E1;8.992583275E0;1.054626703E0;-4.225267887E0
1.708915469E1;9.043244362E0;1.043661237E0;-4.267884731E0
1.710106562E1;9.039021492E0;1.040701985E0;-4.255511761E0
1.711297812E1;9.041454315E0;1.039801717E0;-4.216792583E0
1.712488906E1;9.025547028E0;1.047539949E0;-4.215183735E0
1.713680156E1;9.043436050E0;1.060995221E0;-4.248616219E0
1.714871250E1;9.006258965E0;1.037378907E0;-4.244277954E0
1.716062344E1;8.990006447E0;1.055182099E0;-4.209629059E0
1.717253594E1;8.952264786E0;1.087283611E0;-4.181962013E0
1.718444688E1;8.937544823E0;1.068110824E0;-4.206210136E0
1.719635938E1;8.987966537E0;1.039265513E0;-4.217998981E0
1.720827031E1;9.030679703E0;1.029535413E0;-4.164656162E0
1.722018594E1;8.995293617E0;1.062948942E0;-4.206956863E0
1.723209375E1;9.001173973E0;1.025340796E0;-4.242736340E0
1.724400469E1;9.044183731E0;1.022448659E0;-4.257838726E0
1.725591719E1;9.078812599E0;9.990620613E-1;-4.213584423E0
1.726782812E1;9.022865295E0;1.043766618E0;-4.193291187E0
1.727973906E1;8.999258995E0;1.047855854E0;-4.185639381E0
1.729165156E1;9.004420280E0;1.040462613E0;-4.258738995E0
1.730356250E1;9.035276413E0;1.042962193E0;-4.244143963E0
1.731547500E1;9.056671143E0;1.057767987E0;-4.278074741E0
1.732738594E1;9.026044846E0;1.051839828E0;-4.214867592E0
1.733930469E1;8.993732452E0;1.056283474E0;-4.175392151E0
1.735120938E1;8.983274460E0;1.041880012E0;-4.218487740E0
1.736312188E1;8.978333473E0;1.049847841E0;-4.228074074E0
1.737503281E1;8.960280418E0;1.024478912E0;-4.214560986E0
1.738694531E1;8.988714218E0;1.057940364E0;-4.216304302E0
1.739885625E1;9.009036064E0;1.042368412E0;-4.252983570E0
1.741076719E1;9.025412560E0;1.036449909E0;-4.210394859E0
1.742267969E1;9.053329468E0;1.046247005E0;-4.252772331E0
1.743459063E1;9.036933899E0;1.052826285E0;-4.177096844E0
1.744650312E1;8.984443665E0;1.048296332E0;-4.206248760E0
1.745843594E1;8.971792221E0;1.052184582E0;-4.207694530E0
1.747032500E1;9.001402855E0;1.058591604E0;-4.222557545E0
1.748223750E1;9.037804604E0;1.034199357E0;-4.228514671E0
1.749414844E1;9.036109924E0;1.025609016E0;-4.266649246E0
1.750606094E1;9.001049042E0;1.011100054E0;-4.228093147E0
1.751797188E1;8.997802734E0;1.027083755E0;-4.190293312E0
1.752988438E1;8.987114906E0;1.056848526E0;-4.202666283E0
1.754179375E1;8.962703705E0;1.050680995E0;-4.217701912E0
1.755370625E1;8.993272781E0;1.088835120E0;-4.210816383E0
1.756561875E1;9.010749817E0;1.094380021E0;-4.218564510E0
1.757752969E1;9.033390045E0;1.062632918E0;-4.215710640E0
1.758944219E1;9.036646843E0;1.044542313E0;-4.222758770E0
1.760135313E1;9.041329384E0;1.053113580E0;-4.198835850E0
1.761326406E1;9.025508881E0;1.007882357E0;-4.232182503E0
1.762517656E1;9.004036903E0;1.016903639E0;-4.229213715E0
1.763708750E1;8.995724678E0;1.011052251E0;-4.215672016E0
1.764899844E1;9.006258965E0;9.880582690E-1;-4.209389687E0
1.766091094E1;9.022491455E0;1.050977945E0;-4.207397461E0
1.767282188E1;9.034462929E0;1.069451571E0;-4.210701466E0
1.768473438E1;8.999996185E0;1.064241767E0;-4.190331936E0
1.769664531E1;9.016190529E0;1.038097143E0;-4.238809586E0
1.770855625E1;9.031062126E0;1.031632781E0;-4.262550354E0
1.772046875E1;9.047362328E0;1.015572429E0;-4.217377186E0
1.773237969E1;9.009917259E0;1.021471858E0;-4.183388710E0
1.774429219E1;8.991779327E0;1.030521870E0;-4.219972134E0
1.775620469E1;8.964830399E0;1.061790109E0;-4.190762520E0
1.776811562E1;8.987756729E0;1.048717737E0;-4.209619522E0
1.778002656E1;9.025612831E0;1.079124093E0;-4.261190414E0
1.779193750E1;9.027308464E0;1.057863593E0;-4.243262768E0
1.780385000E1;9.043733597E0;1.042033195E0;-4.225708485E0
1.781576719E1;9.028860092E0;1.037761927E0;-4.202417850E0
1.782767344E1;8.989251137E0;1.023061514E0;-4.149429321E0
1.783958438E1;8.981138229E0;1.032552123E0;-4.173121929E0
1.785149531E1;9.037200928E0;1.020341754E0;-4.224836826E0
1.786340781E1;9.063748360E0;1.044015646E0;-4.305406570E0
1.787531875E1;9.083169937E0;1.032312751E0;-4.270001411E0
1.788723125E1;9.034654617E0;1.023703218E0;-4.181913376E0
1.789914219E1;8.992765427E0;1.050815225E0;-4.181722164E0
1.791105469E1;8.969034195E0;1.067536235E0;-4.186625481E0
1.792296562E1;8.974559784E0;1.038901567E0;-4.224473000E0
1.793488281E1;8.976742744E0;1.033643961E0;-4.177067757E0
1.794678906E1;8.976877213E0;1.069308043E0;-4.233906269E0
1.795870156E1;8.989153862E0;1.041439414E0;-4.237890244E0
1.797061250E1;9.044604301E0;1.043852806E0;-4.300187588E0
1.798253438E1;9.062876701E0;1.046630025E0;-4.246365547E0
1.799443594E1;9.067981720E0;1.018560410E0;-4.195187092E0
1.800634688E1;9.037411690E0;1.068014979E0;-4.192486763E0
1.801825938E1;9.030498505E0;1.048612475E0;-4.189651966E0
1.803017031E1;8.986578941E0;1.078291059E0;-4.207397461E0
1.804208281E1;9.002983093E0;1.065486789E0;-4.219828606E0
1.805399844E1;8.993789673E0;1.071807504E0;-4.198347569E0
1.806590469E1;8.965902328E0;1.058821321E0;-4.214005947E0
1.807781719E1;9.010951042E0;9.887287021E-1;-4.245992184E0
1.808972812E1;9.049019814E0;1.002768278E0;-4.286358356E0
1.810163906E1;9.040113449E0;9.980277419E-1;-4.223592281E0
1.811355156E1;9.027806282E0;1.001743555E0;-4.182296753E0
1.812546250E1;9.022261620E0;1.027878642E0;-4.209743977E0
1.813737500E1;8.988312721E0;1.081001163E0;-4.201345444E0
1.814928594E1;8.965834618E0;1.066281557E0;-4.224492073E0
1.816119688E1;8.982892036E0;1.072085261E0;-4.207876682E0
1.817310938E1;9.037393570E0;1.070323110E0;-4.251125336E0
1.818502031E1;9.051480293E0;1.026729465E0;-4.280535698E0
1.819693281E1;9.029712677E0;1.023933053E0;-4.213890553E0
1.820884375E1;8.983082771E0;1.039715528E0;-4.191432953E0
1.822075469E1;8.982805252E0;1.025666356E0;-4.200828075E0
1.823267344E1;8.987095833E0;1.042377949E0;-4.245178223E0
1.824457812E1;9.021199226E0;1.017976284E0;-4.212913990E0
1.825648906E1;9.059342384E0;1.030464411E0;-4.203155041E0
1.826840156E1;9.037086487E0;1.034563184E0;-4.234509945E0
1.828031406E1;9.048655510E0;1.017334580E0;-4.218822956E0
1.829222500E1;9.017597198E0;1.059319377E0;-4.191442966E0
1.830413594E1;9.010223389E0;1.074661374E0;-4.173179626E0
1.831604844E1;9.014389992E0;1.029018283E0;-4.195053101E0
1.832795938E1;9.078401566E0;9.966774583E-1;-4.256938457E0
1.833987188E1;9.068373680E0;1.002720356E0;-4.225104809E0
1.835178281E1;9.003529549E0;1.026394248E0;-4.198960304E0
1.836369531E1;8.946327209E0;9.985257387E-1;-4.167586803E0
1.837560625E1;8.939566612E0;1.004788995E0;-4.230286121E0
1.838751719E1;8.961467743E0;1.034371734E0;-4.241816998E0
1.839942969E1;8.936846733E0;1.039179325E0;-4.247035980E0
1.841134062E1;8.989029884E0;1.035042167E0;-4.208269119E0
1.842325156E1;9.024311066E0;1.044781685E0;-4.275326252E0
1.843516406E1;9.086867332E0;1.036133885E0;-4.279597282E0
1.844707656E1;9.089002609E0;1.058218002E0;-4.197878361E0
1.845898750E1;9.089051247E0;1.093566060E0;-4.149094105E0
1.847089844E1;9.034501076E0;1.069135547E0;-4.159915924E0
1.848281094E1;9.009428978E0;1.057145357E0;-4.187707901E0
1.849472188E1;9.007666588E0;1.031776547E0;-4.239451408E0
1.850663438E1;9.003213882E0;1.023751140E0;-4.225038052E0
1.851854531E1;9.040898323E0;9.987939000E-1;-4.262177467E0
1.853045625E1;9.059515953E0;1.010123253E0;-4.233370304E0
1.854236875E1;9.031263351E0;1.002557635E0;-4.170996189E0
1.855427969E1;9.039251328E0;9.859897494E-1;-4.177738190E0
1.856619219E1;9.018211365E0;9.793434739E-1;-4.215528488E0
1.857810313E1;9.003941536E0;1.026375175E0;-4.191413879E0
1.859001406E1;8.997946739E0;1.086871862E0;-4.163938046E0
1.860192500E1;8.974597931E0;1.105536938E0;-4.225316048E0
1.861383750E1;9.007379532E0;1.043670774E0;-4.247706413E0
1.862575000E1;9.051299095E0;1.069461226E0;-4.284682751E0
1.863766094E1;9.041424751E0;1.060008883E0;-4.233254910E0
1.864957188E1;8.991797447E0;1.068235397E0;-4.168046474E0
1.866148438E1;8.974262238E0;1.048928499E0;-4.143041611E0
1.867339531E1;8.969723701E0;1.025139689E0;-4.193243027E0
1.868530781E1;9.020777702E0;9.907781482E-1;-4.231110096E0
1.869721875E1;9.054325104E0;1.009883881E0;-4.235543728E0
1.870912969E1;9.064064026E0;1.001647830E0;-4.173639774E0
1.872104375E1;9.095131874E0;9.790944457E-1;-4.182574749E0
1.873295312E1;9.078889847E0;1.022573113E0;-4.186865330E0
1.874487188E1;9.045992851E0;1.035578370E0;-4.194440365E0
1.875677656E1;8.990207672E0;1.048037887E0;-4.155941486E0
1.876868750E1;8.969321251E0;1.075676560E0;-4.171331406E0
1.878060000E1;8.903001785E0;1.032858610E0;-4.178782463E0
1.879251094E1;8.949707985E0;1.037828922E0;-4.226110935E0
1.880442344E1;9.004401207E0;1.013455987E0;-4.228083611E0
1.881633438E1;9.054449081E0;1.007058740E0;-4.233398914E0
1.882825156E1;9.034605980E0;1.045184016E0;-4.201354504E0
1.884015625E1;9.006422043E0;1.041257501E0;-4.212540627E0
1.885206875E1;9.031245232E0;1.062537074E0;-4.224722385E0
1.886398125E1;9.061133385E0;1.030694246E0;-4.229414463E0
1.887589219E1;9.081006050E0;1.033596039E0;-4.165690899E0
1.888780469E1;9.034921646E0;1.053985119E0;-4.171513081E0
1.889971563E1;8.997160912E0;1.036631823E0;-4.162693501E0
1.891162656E1;8.994795799E0;1.053420067E0;-4.188474178E0
1.892353906E1;8.975900650E0;1.068292856E0;-4.188761234E0
1.893545000E1;8.972749710E0;1.059424639E0;-4.197083473E0
1.894736250E1;9.006297112E0;1.058725595E0;-4.190916061E0
1.895927344E1;9.001624107E0;1.024804592E0;-4.206641197E0
1.897118594E1;9.042946815E0;1.005851984E0;-4.177661419E0
1.898309688E1;9.028793335E0;9.809044003E-1;-4.129461288E0
1.899500938E1;9.020050049E0;1.012143970E0;-4.101171970E0
1.900692031E1;9.007953644E0;1.068752408E0;-4.169683933E0
1.901883125E1;8.995848656E0;1.076097846E0;-4.125401020E0
1.903074375E1;8.984959602E0;1.049608350E0;-4.192362309E0
1.904265469E1;9.085851669E0;1.004128218E0;-4.215528488E0
1.905456719E1;9.159746170E0;1.009366751E0;-4.215413570E0
1.906648594E1;9.180442810E0;1.025580168E0;-4.141949654E0
1.907839062E1;9.136531830E0;1.026106954E0;-4.120679855E0
1.909030156E1;9.067799568E0;1.047491908E0;-4.092734814E0
1.910221250E1;8.973171234E0;1.103736520E0;-4.100855350E0
1.911412500E1;9.013326645E0;1.057748795E0;-4.186184883E0
1.912603906E1;9.080929756E0;1.017717600E0;-4.214130402E0
1.913794688E1;9.135794640E0;9.973669648E-1;-4.201603413E0
1.914985938E1;9.106729507E0;9.521644115E-1;-4.152991772E0
1.916179219E1;9.084003448E0;9.860663414E-1;-4.112443924E0
1.917368125E1;9.049680710E0;9.649112225E-1;-4.135859013E0
1.918559844E1;9.064992905E0;1.007757783E0;-4.140695095E0
1.919750625E1;9.041223526E0;1.025484443E0;-4.139192104E0
1.920941719E1;9.009352684E0;1.071577668E0;-4.088329315E0
1.922132812E1;8.980660439E0;1.089467168E0;-4.105012417E0
1.923324062E1;8.978361130E0;1.136872292E0;-4.115345001E0
1.924515156E1;9.028831482E0;1.097473383E0;-4.146690369E0
1.925706406E1;9.100686073E0;1.046017051E0;-4.212023258E0
1.926897500E1;9.144834518E0;1.004185677E0;-4.247630119E0
1.928089531E1;9.148024559E0;9.890543222E-1;-4.155970097E0
1.929279844E1;9.050992012E0;1.038384438E0;-4.056601524E0
1.930470938E1;9.027318001E0;9.962273836E-1;-4.104427814E0
1.931662031E1;9.011689186E0;9.886425138E-1;-4.121312141E0
1.932853281E1;9.052428246E0;1.023703218E0;-4.162769318E0
1.934044375E1;9.049248695E0;1.017200589E0;-4.158642292E0
1.935235625E1;9.053884506E0;9.994642735E-1;-4.176828384E0
1.936426719E1;9.044825554E0;1.031843543E0;-4.159503937E0
1.937617969E1;9.050906181E0;1.063839555E0;-4.147801399E0
1.938809062E1;9.008097649E0;1.016779184E0;-4.176790237E0
1.940000156E1;9.025585175E0;1.036689281E0;-4.166226864E0
1.941191406E1;8.988972664E0;1.079018831E0;-4.154054642E0
1.942382656E1;8.988905907E0;1.070543289E0;-4.124740124E0
1.943573750E1;9.055186272E0;1.092550874E0;-4.202762604E0
1.944764844E1;9.160186768E0;1.032992721E0;-4.207196712E0
1.945956094E1;9.166460037E0;1.053563714E0;-4.157933712E0
1.947147656E1;9.078793526E0;1.067162752E0;-4.080984116E0
1.948338438E1;9.088696480E0;1.120381117E0;-4.190341473E0
1.949529688E1;9.048129082E0;1.124738574E0;-4.071665764E0
1.950720625E1;9.285193443E0;1.129747152E0;-4.389395714E0
1.951911875E1;9.362142563E0;9.919656515E-1;-3.996966600E0
1.953102969E1;8.717546463E0;9.289215207E-1;-3.885923386E0
1.954294219E1;8.578711510E0;1.052031398E0;-4.098499775E0
1.955485312E1;8.762864113E0;1.079286933E0;-4.297563553E0
1.956676406E1;9.107773781E0;1.100327253E0;-4.466201305E0
1.957867656E1;9.410744667E0;1.017401695E0;-4.269177914E0
1.959058750E1;9.412545204E0;8.677735925E-1;-4.042341232E0
1.960249844E1;9.174015999E0;8.126303554E-1;-4.104121685E0
1.961441094E1;9.010472298E0;8.313817978E-1;-4.189862728E0
1.962632188E1;9.063556671E0;8.943971395E-1;-4.344719887E0
1.963823438E1;8.929644585E0;9.062628150E-1;-4.235256672E0
1.965014531E1;8.870354652E0;9.363340139E-1;-4.118400574E0
1.966205781E1;8.811906815E0;1.027026415E0;-4.153107166E0
1.967396875E1;8.899573326E0;1.099072576E0;-4.271399498E0
1.968587969E1;9.031369209E0;1.172986507E0;-4.277940273E0
1.969779219E1;9.192518234E0;1.212251306E0;-4.080179214E0
1.970970312E1;9.214975357E0;1.112939835E0;-3.743918419E0
1.972162188E1;9.346474648E0;1.079325318E0;-3.631984949E0
1.973352656E1;9.065903664E0;9.869378209E-1;-3.710112333E0
1.974543750E1;8.784393311E0;9.622871280E-1;-4.024748802E0
1.975735000E1;8.688471794E0;9.044623375E-1;-4.325393677E0
1.976926094E1;8.863066673E0;9.061287045E-1;-4.564459324E0
1.978117344E1;9.051509857E0;8.614050150E-1;-4.511844158E0
1.979308438E1;9.188649178E0;8.283267021E-1;-4.260204315E0
1.980499531E1;9.120615005E0;7.882286310E-1;-4.085456371E0
1.981690781E1;8.934883118E0;8.226956129E-1;-4.023254871E0
1.982881875E1;8.839565277E0;9.292758703E-1;-3.997119665E0
1.984073125E1;8.881320000E0;1.054904461E0;-4.122384071E0
1.985264375E1;8.878533363E0;1.048210263E0;-4.118352413E0
1.986455469E1;8.956928253E0;1.034821868E0;-4.010191917E0
1.987646562E1;9.013901711E0;9.970414042E-1;-3.966301441E0
1.988837813E1;9.086168289E0;1.012967587E0;-3.911225319E0
1.990028906E1;9.117799759E0;1.039054751E0;-3.937350750E0
1.991220000E1;9.105216026E0;1.028596878E0;-3.990253210E0
1.992411250E1;9.114285469E0;9.836242795E-1;-4.010019779E0
1.993602344E1;9.184607506E0;9.592129588E-1;-4.103508472E0
1.994793594E1;9.313023567E0;9.249279499E-1;-4.180247784E0
1.995985313E1;9.401800156E0;9.061383009E-1;-4.182459354E0
1.997175781E1;9.427503586E0;9.120376110E-1;-4.110404015E0
1.998367031E1;9.422619820E0;9.355391264E-1;-4.072747707E0
1.999558125E1;9.332914352E0;1.007920623E0;-3.863858461E0
2.000749375E1;9.138035774E0;1.073904753E0;-3.777198076E0
2.001940469E1;8.952178955E0;1.131183743E0;-3.771662712E0
2.003131562E1;8.867424011E0;1.136249900E0;-3.904742002E0
2.004322813E1;9.034193993E0;1.155815244E0;-4.038769245E0
2.005513906E1;9.249634743E0;1.105422139E0;-4.017288685E0
2.006705156E1;9.317945480E0;1.063868284E0;-3.908974886E0
2.007896875E1;9.237078667E0;1.062786102E0;-3.787924051E0
2.009087344E1;9.169763565E0;1.039428353E0;-3.849828482E0
2.010278438E1;9.132854462E0;1.020600319E0;-3.963313818E0
2.011469688E1;9.090553284E0;1.039370894E0;-4.014865398E0
2.012660938E1;9.048147202E0;1.017976284E0;-4.001285553E0
2.013852031E1;8.974626541E0;1.022199631E0;-3.964357376E0
2.015043125E1;8.948779106E0;1.000690103E0;-4.015775204E0
2.016234375E1;8.972002983E0;1.000584722E0;-4.096718788E0
2.017425469E1;9.066037178E0;1.011837482E0;-4.104006290E0
2.018616875E1;9.146089554E0;1.024105430E0;-4.051813126E0
2.019807969E1;9.217503548E0;1.010975599E0;-3.961647272E0
2.020998906E1;9.172215462E0;1.038786650E0;-3.940492153E0
2.022190156E1;9.112388611E0;1.080733061E0;-3.925657749E0
2.023381250E1;9.157419205E0;1.053736091E0;-3.912489414E0
2.024572500E1;9.155101776E0;1.035770059E0;-3.949532509E0
2.025763594E1;9.179541588E0;1.020925879E0;-3.945117712E0
2.026954688E1;9.189903259E0;1.050307512E0;-3.992360115E0
2.028145781E1;9.207219124E0;1.052625179E0;-4.005863190E0
2.029337031E1;9.231457710E0;1.036555290E0;-3.983482361E0
2.030528281E1;9.246751785E0;1.031316757E0;-4.001180649E0
2.031720156E1;9.207850456E0;1.033500195E0;-3.921836376E0
2.032910469E1;9.168203354E0;1.038585544E0;-3.924556255E0
2.034101719E1;9.124992371E0;1.035990238E0;-3.960718155E0
2.035292969E1;9.109286308E0;1.027696609E0;-4.009560108E0
2.036484063E1;9.059141159E0;1.008265376E0;-4.025878906E0
2.037675312E1;9.075489044E0;1.003639817E0;-4.065660954E0
2.038866406E1;9.068067551E0;1.020217180E0;-4.005585670E0
2.040057500E1;9.064160347E0;1.041726708E0;-3.995271444E0
2.041248750E1;9.092077255E0;1.039179325E0;-3.977784157E0
2.042439844E1;9.099814415E0;1.008839965E0;-3.991976976E0
2.043631250E1;9.104153633E0;1.059051156E0;-3.962269783E0
2.044822188E1;9.119246483E0;1.021672964E0;-3.958850861E0
2.046013438E1;9.111192703E0;1.034821868E0;-3.981873512E0
2.047204531E1;9.098656654E0;1.023272276E0;-4.000337601E0
2.048395625E1;9.103003502E0;1.042052388E0;-4.019826412E0
2.049587500E1;9.116890907E0;1.030090928E0;-4.037275314E0
2.050780313E1;9.112111092E0;1.039591074E0;-4.004838467E0
2.051969219E1;9.118747711E0;1.016894102E0;-3.982151031E0
2.053160312E1;9.128018379E0;1.037924767E0;-3.980063438E0
2.054351406E1;9.124331474E0;1.014021039E0;-4.010862350E0
2.055542656E1;9.134635925E0;1.020734429E0;-4.018907070E0
2.056733750E1;9.124274254E0;1.036603093E0;-4.011130810E0
2.057925000E1;9.087547302E0;1.038508892E0;-4.009751320E0
2.059116094E1;9.097076416E0;1.038422704E0;-3.984411478E0
2.060307188E1;9.119734764E0;9.964858890E-1;-3.981681824E0
2.061499062E1;9.099029541E0;1.033567309E0;-3.983625889E0
2.062689531E1;9.095763206E0;1.022008061E0;-3.982878923E0
2.063880781E1;9.136637688E0;1.014068961E0;-4.008104324E0
2.065071875E1;9.127491951E0;1.018119931E0;-4.000375748E0
2.066262969E1;9.125518799E0;1.023329735E0;-4.017077923E0
2.067454219E1;9.125910759E0;1.001705289E0;-4.008362770E0
2.068645469E1;9.125356674E0;1.037493825E0;-4.025227547E0
2.069836562E1;9.126466751E0;1.055651426E0;-3.993040085E0
2.071027656E1;9.112169266E0;1.042550325E0;-3.974709988E0
2.072218906E1;9.079195976E0;1.048258185E0;-4.006840229E0
2.073410156E1;9.074666023E0;1.052749634E0;-3.972450018E0
2.074601094E1;9.064687729E0;1.036880851E0;-3.985569954E0
2.075792344E1;9.077519417E0;1.006646872E0;-4.011044502E0
2.076983438E1;9.099690437E0;1.014566898E0;-4.004177570E0
2.078175312E1;9.099708557E0;1.023540378E0;-4.002492428E0
2.079365781E1;9.105599403E0;9.841796756E-1;-4.002683640E0
2.080557344E1;9.112236023E0;9.939576387E-1;-3.995750189E0
2.081747969E1;9.123047829E0;1.046907783E0;-3.965631008E0
2.082939219E1;9.123689651E0;1.031316757E0;-3.986288309E0
2.084130312E1;9.132289886E0;1.013829470E0;-4.008334160E0
2.085321562E1;9.135277748E0;1.009711504E0;-4.041259289E0
2.086512813E1;9.135900497E0;1.034266353E0;-3.993442059E0
2.087703906E1;9.137202263E0;1.004683614E0;-4.000423908E0
2.088895000E1;9.109305382E0;1.002998114E0;-3.998019934E0
2.090086250E1;9.096827507E0;1.025015235E0;-3.999121428E0
2.091277344E1;9.078793526E0;1.001944661E0;-4.006256104E0
2.092468438E1;9.121985435E0;9.960070848E-1;-3.985215902E0
2.093660781E1;9.110157967E0;1.014212608E0;-4.004809856E0
2.094850938E1;9.100341797E0;9.996175170E-1;-4.012001991E0
2.096042031E1;9.094710350E0;1.030272841E0;-4.020860672E0
2.097233125E1;9.106921196E0;1.035291195E0;-3.999121428E0
2.098424375E1;9.104669571E0;1.078836918E0;-3.988845348E0
2.099615469E1;9.116956711E0;1.034467578E0;-4.010795593E0
2.100806719E1;9.121736526E0;1.045212626E0;-3.991967440E0
2.101997812E1;9.081925392E0;1.007997155E0;-3.986508608E0
2.103188906E1;9.082988739E0;1.021126986E0;-3.981835127E0
2.104381250E1;9.102984428E0;1.008313179E0;-3.998326302E0
2.105571250E1;9.112619400E0;1.032351017E0;-3.996430159E0
2.106762500E1;9.148465157E0;1.015505433E0;-4.019587040E0
2.107953594E1;9.148092270E0;1.019144654E0;-4.006802082E0
2.109144844E1;9.150034904E0;1.014634013E0;-3.974030018E0
2.110335938E1;9.124848366E0;1.014231801E0;-4.039880276E0
2.111527031E1;9.105761528E0;1.054348946E0;-3.986269236E0
2.112718281E1;9.097238541E0;1.017775178E0;-3.996344090E0
2.113909375E1;9.096940994E0;1.043728232E0;-4.028186798E0
2.115100469E1;9.091405869E0;1.038461089E0;-4.003861904E0
2.116291719E1;9.092660904E0;1.044092178E0;-4.002990246E0
2.117482812E1;9.120452881E0;1.035214424E0;-4.011801243E0
2.118674063E1;9.121841431E0;1.008801699E0;-4.030236244E0
2.119865156E1;9.131590843E0;1.015160680E0;-3.996037483E0
2.121056719E1;9.102256775E0;1.013360262E0;-3.983424902E0
2.122247500E1;9.122645378E0;1.008102536E0;-3.995414972E0
2.123438594E1;9.133218765E0;1.011349082E0;-4.021004200E0
2.124629844E1;9.103472710E0;1.027591348E0;-4.007452965E0
2.125820938E1;9.119073868E0;9.998569489E-1;-4.002022743E0
2.127012031E1;9.124149323E0;1.034438848E0;-3.993059158E0
2.128203281E1;9.121592522E0;9.914389253E-1;-4.007136822E0
2.129394375E1;9.119772911E0;1.005593419E0;-4.015220165E0
2.130585625E1;9.122569084E0;9.966678619E-1;-4.013285637E0
2.131776719E1;9.096203804E0;1.010630846E0;-4.042619228E0
2.132967969E1;9.071362495E0;9.976351261E-1;-3.986317158E0
2.134159063E1;9.111785889E0;1.004300594E0;-4.014894485E0
2.135350312E1;9.087412834E0;1.009491205E0;-3.966818571E0
2.136541406E1;9.091234207E0;1.024660945E0;-3.974240780E0
2.137732500E1;9.084396362E0;1.021443009E0;-4.000030994E0
2.138927188E1;9.077788353E0;1.014308333E0;-4.044716358E0
2.140114844E1;9.107122421E0;1.013599634E0;-4.007357597E0
2.141306094E1;9.117379189E0;1.028865099E0;-4.026367188E0
2.142497188E1;9.157026291E0;1.025800586E0;-4.017269135E0
2.143688438E1;9.154191017E0;9.734728336E-1;-4.016512871E0
2.144880156E1;9.137739182E0;9.934787750E-1;-4.005384445E0
2.146070625E1;9.114418983E0;1.008418560E0;-3.964750290E0
2.147261875E1;9.117550850E0;1.016405582E0;-3.984832764E0
2.148452969E1;9.120644569E0;1.028041482E0;-4.024701118E0
2.149644219E1;9.107983589E0;1.045404196E0;-4.016378880E0
2.150835938E1;9.116785049E0;1.009807229E0;-4.031289577E0
2.152026562E1;9.095351219E0;9.890543222E-1;-3.945079327E0
2.153217656E1;9.078544617E0;9.990429282E-1;-3.951141596E0
2.154408750E1;9.101386070E0;1.007355571E0;-4.013668537E0
2.155600000E1;9.141033173E0;1.006579876E0;-4.014530182E0
2.156791094E1;9.156671524E0;9.977405071E-1;-4.017968655E0
2.157982188E1;9.137010574E0;1.019642591E0;-4.000030994E0
2.159173438E1;9.115425110E0;1.006991625E0;-3.993193388E0
2.160364531E1;9.112255096E0;1.003007650E0;-4.007156372E0
2.161555781E1;9.135642052E0;1.016099215E0;-3.997215509E0
2.162746875E1;9.131973267E0;9.861908555E-1;-4.007501125E0
2.163937969E1;9.117014885E0;9.984204173E-1;-4.023465633E0
2.165129219E1;9.093273163E0;1.017085671E0;-4.001285553E0
2.166320313E1;9.082164764E0;9.937373400E-1;-4.003679752E0
2.167511562E1;9.079473495E0;9.876943827E-1;-4.006888390E0
2.168702656E1;9.100465775E0;1.022448659E0;-4.025993824E0
2.169893750E1;9.093245506E0;1.036718011E0;-4.027037621E0
2.171085000E1;9.134444237E0;1.065707088E0;-4.004187584E0
2.172276094E1;9.118116379E0;1.074900746E0;-3.997771025E0
2.173467344E1;9.137805939E0;1.068924904E0;-3.990885258E0
2.174658438E1;9.136934280E0;1.041391611E0;-3.995558739E0
2.175850312E1;9.103635788E0;1.031623125E0;-3.999485016E0
2.177040781E1;9.092239380E0;1.009165645E0;-3.995424509E0
2.178231875E1;9.094987869E0;9.962464571E-1;-4.012490273E0
2.179423125E1;9.101011276E0;9.797168970E-1;-4.039698124E0
2.180615156E1;9.089424133E0;9.815077782E-1;-3.982457876E0
2.181805313E1;9.142900467E0;1.004501700E0;-4.031586647E0
2.182996562E1;9.185939789E0;1.013379335E0;-3.991306543E0
2.184187656E1;9.166229248E0;1.025177956E0;-3.951581955E0
2.185379531E1;9.103224754E0;1.022190094E0;-3.979728222E0
2.186570469E1;9.054008484E0;1.042387605E0;-3.987351418E0
2.187761250E1;9.021841049E0;1.051217437E0;-4.045348644E0
2.188952344E1;9.108606339E0;1.031067729E0;-3.999494791E0
2.190143594E1;9.118959427E0;1.041305304E0;-3.999533176E0
2.191334688E1;9.144356728E0;9.838061929E-1;-3.980724335E0
2.192526875E1;9.142681122E0;1.028108478E0;-4.011101723E0
2.193717031E1;9.122636795E0;1.020140648E0;-4.033099651E0
2.194908281E1;9.116162300E0;1.007077813E0;-4.019529343E0
2.196099375E1;9.116785049E0;1.001034856E0;-4.004905701E0
2.197290469E1;9.091262817E0;9.953079820E-1;-3.992015362E0
2.198481719E1;9.096203804E0;1.028022289E0;-3.997780561E0
2.199672812E1;9.117953300E0;9.993206263E-1;-3.974671602E0
2.200864062E1;9.123871803E0;9.756276011E-1;-4.012040138E0
2.202055156E1;9.101836205E0;9.597972035E-1;-4.041383743E0
2.203246250E1;9.090439796E0;9.989471436E-1;-4.080217838E0
2.204437812E1;9.127855301E0;1.023396730E0;-4.039066315E0
2.205628594E1;9.167666435E0;1.039236784E0;-3.979929447E0
2.206819688E1;9.185527802E0;1.061905026E0;-3.921587467E0
2.208010938E1;9.175452232E0;1.040443540E0;-3.935157776E0
2.209202031E1;9.097056389E0;1.052060008E0;-3.974173784E0
2.210394219E1;9.020442009E0;1.085617185E0;-4.006016731E0
2.211584375E1;9.004812241E0;1.084477663E0;-4.008631229E0
2.212775469E1;9.111843109E0;1.005421042E0;-4.048662186E0
2.213966719E1;9.148397446E0;9.813737273E-1;-4.046507359E0
2.215157812E1;9.192115784E0;9.951451421E-1;-4.019222736E0
2.216349062E1;9.154871941E0;1.004626155E0;-3.969787598E0
2.217540156E1;9.117646217E0;1.033720613E0;-4.009809017E0
2.218731250E1;9.111220360E0;1.050240517E0;-4.008592606E0
2.219922500E1;9.097842216E0;1.041669369E0;-4.038060665E0
2.221113594E1;9.088361740E0;1.034295201E0;-4.014281273E0
2.222304844E1;9.059439659E0;1.030866623E0;-4.028052807E0
2.223495938E1;9.045782089E0;1.045480847E0;-4.015727520E0
2.224687188E1;9.110904694E0;1.007930160E0;-4.011504173E0
2.225878281E1;9.118403435E0;1.006771326E0;-3.981107473E0
2.227069375E1;9.156576157E0;1.012076974E0;-3.949073076E0
2.228261094E1;9.157237053E0;1.003170490E0;-4.008219242E0
2.229451719E1;9.131437302E0;9.921284914E-1;-4.000260830E0
2.230643438E1;9.114974976E0;9.969551563E-1;-4.016771317E0
2.231834062E1;9.082968712E0;1.005593419E0;-3.994792461E0
2.233025156E1;9.098790169E0;1.011320353E0;-4.043643951E0
2.234216406E1;9.101634979E0;1.047108889E0;-4.020994663E0
2.235407500E1;9.138849258E0;1.020791769E0;-3.976922274E0
2.236598750E1;9.165262222E0;1.023051977E0;-3.986690760E0
2.237789844E1;9.152985573E0;1.021615386E0;-3.975265265E0
2.238981094E1;9.114189148E0;1.017219663E0;-3.992896557E0
2.240172969E1;9.082136154E0;1.013484716E0;-3.975188971E0
2.241363281E1;9.069849014E0;1.016214132E0;-4.046708584E0
2.242554531E1;9.106211662E0;1.029794097E0;-4.024844646E0
2.243747344E1;9.128937721E0;1.036478639E0;-3.989975452E0
2.244936875E1;9.141838074E0;1.039150596E0;-4.019433498E0
2.246127969E1;9.116947174E0;1.067871451E0;-3.976012468E0
2.247319375E1;9.101490974E0;1.072257519E0;-4.011389256E0
2.248510313E1;9.137948990E0;1.048851967E0;-3.973493576E0
2.249701406E1;9.126850128E0;1.025915384E0;-3.996564150E0
2.250892656E1;9.101874352E0;1.010295630E0;-4.001707077E0
2.252083750E1;9.093867302E0;1.034237623E0;-4.015286922E0
2.253275000E1;9.090946198E0;9.825612307E-1;-3.998872280E0
2.254466094E1;9.124743462E0;1.026241064E0;-4.000548363E0
2.255657344E1;9.137346268E0;1.042531133E0;-4.006466866E0
2.256848438E1;9.136388779E0;1.032188177E0;-4.007893562E0
2.258040000E1;9.104181290E0;1.039820910E0;-3.972057104E0
2.259230781E1;9.097574234E0;1.072267175E0;-4.029479504E0
2.260422031E1;9.090525627E0;1.045749068E0;-4.007251740E0
2.261613125E1;9.122838020E0;1.050633192E0;-4.009809017E0
2.262804219E1;9.099517822E0;1.064940929E0;-3.973397970E0
2.263995312E1;9.098875999E0;1.060640812E0;-4.020649910E0
2.265186563E1;9.143369675E0;1.070485830E0;-4.011302948E0
2.266377656E1;9.144031525E0;1.044034839E0;-3.971310377E0
2.267568750E1;9.136675835E0;1.032743692E0;-4.000337601E0
2.268760000E1;9.120500565E0;1.021548390E0;-4.004532337E0
2.269951094E1;9.114649773E0;1.010506392E0;-4.018466473E0
2.271142188E1;9.117014885E0;1.006666064E0;-4.022479057E0
2.272333438E1;9.146089554E0;1.018723249E0;-3.996726990E0
2.273524531E1;9.174744606E0;1.013666630E0;-3.995242596E0
2.274715781E1;9.138084412E0;1.016137481E0;-3.988931656E0
2.275906875E1;9.113087654E0;1.021222830E0;-4.012174606E0
2.277098125E1;9.098483086E0;1.050431967E0;-3.974260092E0
2.278289219E1;9.129186630E0;1.031393290E0;-3.982754707E0
2.279480469E1;9.117196083E0;1.050738573E0;-3.996449471E0
2.280671563E1;9.109391212E0;1.043115377E0;-4.011638165E0
2.281862656E1;9.146453857E0;1.028482080E0;-4.010603905E0
2.283053750E1;9.105666161E0;9.918507338E-1;-3.991670609E0
2.284245000E1;9.108874321E0;9.799946547E-1;-4.021425724E0
2.285436250E1;9.105302811E0;1.016348243E0;-4.014194965E0
2.286627344E1;9.112647057E0;1.018531680E0;-4.015047550E0
2.287818594E1;9.121898651E0;1.034620762E0;-4.021617413E0
2.289009531E1;9.096989632E0;1.046208739E0;-4.008870125E0
2.290200938E1;9.113998413E0;1.042406797E0;-3.999236345E0
2.291392031E1;9.132146835E0;1.060392022E0;-4.022996426E0
2.292583125E1;9.089117050E0;1.057758331E0;-3.990751266E0
2.293774375E1;9.111948013E0;1.055641890E0;-3.983597279E0
2.294965469E1;9.142374039E0;1.011550188E0;-3.988491058E0
2.296156719E1;9.136628151E0;1.051619649E0;-4.007165909E0
2.297347812E1;9.113806725E0;1.055076838E0;-4.036930561E0
2.298539062E1;9.097823143E0;1.043335676E0;-4.011532784E0
2.299730781E1;9.106786728E0;1.053908467E0;-4.029805183E0
2.300921250E1;9.103914261E0;1.013570905E0;-4.005518436E0
2.302112500E1;9.095476151E0;1.007604599E0;-3.995079756E0
2.303303594E1;9.101212502E0;9.973860979E-1;-3.982563019E0
2.304494844E1;9.113691330E0;9.987077117E-1;-3.972957611E0
2.305685938E1;9.117733002E0;1.015582085E0;-4.001802921E0
2.306877031E1;9.117187500E0;1.012699485E0;-4.004474640E0
2.308068281E1;9.107036591E0;9.958346486E-1;-4.024202824E0
2.309259375E1;9.110722542E0;9.921092987E-1;-4.044352531E0
2.310450625E1;9.168422699E0;9.866026640E-1;-4.026760101E0
2.311642344E1;9.149202347E0;1.010707498E0;-4.010939121E0
2.312832813E1;9.149757385E0;1.030349493E0;-4.007970333E0
2.314024062E1;9.135019302E0;1.055287480E0;-3.980877399E0
2.315215156E1;9.126697540E0;1.022984982E0;-3.988864422E0
2.316406250E1;9.060406685E0;1.050077796E0;-3.970975161E0
2.317597500E1;9.052285194E0;1.042588592E0;-3.977420092E0
2.318788594E1;9.079195976E0;1.022621036E0;-4.005489826E0
2.319979844E1;9.151663780E0;9.862004519E-1;-4.032735825E0
2.321170938E1;9.168211937E0;9.621147513E-1;-4.004838467E0
2.322362188E1;9.109928131E0;9.913910627E-1;-4.005288601E0
2.323553281E1;9.084702492E0;9.943215251E-1;-3.967163563E0
2.324744375E1;9.097056389E0;1.044168830E0;-4.032142162E0
2.325935625E1;9.130642891E0;1.055804729E0;-4.026626110E0
2.327126719E1;9.162648201E0;1.051523805E0;-4.013907909E0
2.328317813E1;9.140200615E0;1.056791067E0;-3.983166218E0
2.329509531E1;9.102668762E0;1.070552945E0;-3.991258860E0
2.330700156E1;9.075087547E0;1.080646873E0;-4.025093555E0
2.331891406E1;9.087211609E0;1.076174617E0;-4.074759007E0
2.333082500E1;9.126227379E0;1.082064152E0;-4.009732246E0
2.334273750E1;9.112504005E0;1.057087898E0;-3.974604845E0
2.335465000E1;9.125347137E0;1.056465507E0;-3.969682217E0
2.336656094E1;9.106048584E0;1.042320609E0;-3.973742723E0
2.337847188E1;9.110405922E0;9.918698668E-1;-4.016407490E0
2.339038281E1;9.120576859E0;9.989088178E-1;-4.041297436E0
2.340229531E1;9.115070343E0;9.864302278E-1;-4.009770870E0
2.341420625E1;9.107092857E0;1.016242862E0;-4.006188869E0
2.342611719E1;9.096797943E0;1.033002377E0;-4.010259151E0
2.343802969E1;9.135900497E0;1.047377110E0;-3.980293274E0
2.344994219E1;9.128334999E0;1.088241339E0;-3.935952663E0
2.346185312E1;9.117254257E0;1.061340094E0;-3.930330992E0
2.347377188E1;9.094786644E0;1.031862617E0;-3.989917994E0
2.348568438E1;9.098780632E0;1.043421865E0;-4.041336060E0
2.349758906E1;9.094691277E0;1.000153780E0;-4.015555382E0
2.350950000E1;9.097755432E0;9.924061894E-1;-4.042035103E0
2.352141094E1;9.078668594E0;1.016329050E0;-4.019711494E0
2.353332656E1;9.097124100E0;1.013312340E0;-3.996142864E0
2.354523438E1;9.110636711E0;1.006886244E0;-3.985129595E0
2.355714531E1;9.156767845E0;1.012067437E0;-4.010412216E0
2.356905781E1;9.126514435E0;9.986694455E-1;-3.997205734E0
2.358096875E1;9.111785889E0;9.738176465E-1;-4.016752243E0
2.359288750E1;9.111814499E0;9.919464588E-1;-4.005470753E0
2.360479219E1;9.109765053E0;1.000814676E0;-3.984985828E0
2.361670312E1;9.107111931E0;1.011511922E0;-3.984439850E0
2.362861563E1;9.115195274E0;1.039571881E0;-4.021052361E0
2.364052656E1;9.118796349E0;1.051725030E0;-3.994687319E0
2.365244531E1;9.142479897E0;1.034687757E0;-4.017844200E0
2.366435000E1;9.150801659E0;9.965433478E-1;-4.010354996E0
2.367626094E1;9.114199638E0;9.848117828E-1;-4.030810833E0
2.368817344E1;9.130766869E0;9.638577104E-1;-4.032103539E0
2.370008438E1;9.090898514E0;9.930765629E-1;-3.997771025E0
2.371199688E1;9.076964378E0;1.034620762E0;-4.024021149E0
2.372390938E1;9.097793579E0;1.031996727E0;-4.004992008E0
2.373581875E1;9.132318497E0;1.009510398E0;-3.969165087E0
2.374773125E1;9.154095650E0;1.038010955E0;-3.981126547E0
2.375964219E1;9.129100800E0;1.041602254E0;-3.992819786E0
2.377155312E1;9.107696533E0;1.035875320E0;-4.019577503E0
2.378346562E1;9.114247322E0;1.069355845E0;-4.001688004E0
2.379537656E1;9.095821381E0;1.083175182E0;-3.998383760E0
2.380728906E1;9.106193542E0;1.043661237E0;-4.006687164E0
2.381920000E1;9.092900276E0;1.022822142E0;-3.992714405E0
2.383111719E1;9.129847527E0;1.038413167E0;-4.022852421E0
2.384302344E1;9.151251793E0;1.017669797E0;-3.995874643E0
2.385493594E1;9.141253471E0;9.805021882E-1;-3.972641468E0
2.386684688E1;9.097506523E0;1.011224627E0;-3.947780132E0
2.387875938E1;9.091281891E0;1.037848115E0;-3.974192858E0
2.389067188E1;9.080555916E0;1.054291487E0;-3.988241911E0
2.390258438E1;9.100915909E0;1.017267585E0;-4.005642891E0
2.391449375E1;9.117972374E0;1.040108323E0;-3.978320599E0
2.392640469E1;9.100389481E0;1.070619941E0;-3.964252234E0
2.393832500E1;9.117005348E0;1.030311108E0;-4.002894402E0
2.395023438E1;9.111230850E0;1.009347558E0;-3.988261223E0
2.396214062E1;9.152611732E0;1.015840650E0;-4.001735687E0
2.397405156E1;9.173125267E0;1.017325044E0;-4.042293549E0
2.398596250E1;9.150227547E0;9.806267023E-1;-4.038616180E0
2.399787500E1;9.097574234E0;9.852043986E-1;-4.063429356E0
2.400978594E1;9.127099037E0;9.739516377E-1;-4.031452656E0
2.402169844E1;9.102573395E0;9.872346520E-1;-4.001295090E0
2.403360938E1;9.101836205E0;1.015850186E0;-4.002884865E0
2.404552031E1;9.111077309E0;1.010688305E0;-4.017748356E0
2.405743281E1;9.110243797E0;1.005162477E0;-3.960191727E0
2.406934688E1;9.110320091E0;1.036066890E0;-3.965286493E0
2.408125469E1;9.125404358E0;1.032686234E0;-3.945529461E0
2.409316719E1;9.138629913E0;1.008830428E0;-3.990674496E0
2.410507813E1;9.125365257E0;9.533328414E-1;-4.038846016E0
2.411699063E1;9.093733788E0;9.591171741E-1;-4.049533844E0
2.412890156E1;9.077452660E0;9.837487340E-1;-4.040320873E0
2.414081250E1;9.098444939E0;1.002059579E0;-4.025055408E0
2.415272500E1;9.119734764E0;9.914101958E-1;-4.010652065E0
2.416463594E1;9.157898903E0;1.056474924E0;-3.987293959E0
2.417654844E1;9.089806557E0;1.065314412E0;-3.976759434E0
2.418846250E1;9.077596664E0;1.088902116E0;-3.906647682E0
2.420037188E1;9.105398178E0;1.066865802E0;-3.970419645E0
2.421228281E1;9.127290726E0;1.033461928E0;-3.937657118E0
2.422419375E1;9.117837906E0;1.049732924E0;-3.962221861E0
2.423610625E1;9.085372925E0;1.031699777E0;-3.971731663E0
2.424801719E1;9.112542152E0;9.918794632E-1;-4.021205425E0
2.425992813E1;9.147880554E0;9.689813256E-1;-4.050107956E0
2.427184063E1;9.162993431E0;9.961124063E-1;-4.040310860E0
2.428375156E1;9.144433975E0;1.053611517E0;-4.012825489E0
2.429566406E1;9.141608238E0;1.058715940E0;-4.000672817E0
2.430757500E1;9.086580276E0;1.072631121E0;-3.995970488E0
2.431948594E1;9.034290314E0;1.089505315E0;-3.993739128E0
2.433139844E1;9.059679031E0;1.079641342E0;-3.983693123E0
2.434331094E1;9.074934959E0;1.073349357E0;-3.983443975E0
2.435522188E1;9.090161324E0;1.014528632E0;-3.981260538E0
2.436714531E1;9.116325378E0;9.904525280E-1;-3.980915785E0
2.437904531E1;9.193218231E0;9.801383018E-1;-3.992120504E0
2.439095625E1;9.208511353E0;9.687993526E-1;-4.006217957E0
2.440286875E1;9.215617180E0;9.823984504E-1;-4.034871578E0
2.441477969E1;9.192624092E0;9.898970127E-1;-4.038328648E0
2.442669219E1;9.116249084E0;1.033873796E0;-4.012940884E0
2.443860469E1;9.055215836E0;1.054569244E0;-4.034344673E0
2.445051562E1;9.051624298E0;1.029746056E0;-4.001371861E0
2.446242656E1;9.043044090E0;1.024727941E0;-4.009684563E0
2.447433750E1;9.079330444E0;1.071788311E0;-4.017125607E0
2.448625625E1;9.107437134E0;1.043776155E0;-4.023350716E0
2.449816094E1;9.155667305E0;1.017248392E0;-4.024576187E0
2.451007344E1;9.142451286E0;1.007010818E0;-3.992676020E0
2.452198438E1;9.131495476E0;9.943215251E-1;-3.988098383E0
2.453389531E1;9.160042763E0;9.818621278E-1;-3.986518383E0
2.454580781E1;9.170491219E0;9.586191773E-1;-3.994419098E0
2.455771875E1;9.158731461E0;9.802532196E-1;-3.982917309E0
2.456962969E1;9.133908272E0;1.000287890E0;-4.007750034E0
2.458154219E1;9.113797188E0;1.017363310E0;-4.007711887E0
2.459345312E1;9.167091370E0;1.021069527E0;-4.034545898E0
2.460536562E1;9.186428070E0;1.031086922E0;-3.972775459E0
2.461727656E1;9.139337540E0;1.044647694E0;-3.937647820E0
2.462918906E1;9.101375580E0;1.044858456E0;-3.955728769E0
2.464110000E1;9.053003311E0;1.013379335E0;-3.952539682E0
2.465301094E1;9.016937256E0;1.054559708E0;-3.967900991E0
2.466492344E1;9.055369377E0;1.034448385E0;-4.026491642E0
2.467683438E1;9.100696564E0;1.007480145E0;-4.064540386E0
2.468875156E1;9.124675751E0;1.004750729E0;-4.070028305E0
2.470065781E1;9.146980286E0;1.022036791E0;-4.000586510E0
2.471256875E1;9.115952492E0;1.028596878E0;-3.996717453E0
2.472448125E1;9.105733871E0;1.043651700E0;-4.002348423E0
2.473639219E1;9.117455482E0;1.059903622E0;-3.958783627E0
2.474830313E1;9.108941078E0;1.058706403E0;-3.957816362E0
2.476022656E1;9.118086815E0;1.049809575E0;-3.953037500E0
2.477212656E1;9.117522240E0;1.046869516E0;-3.996535540E0
2.478403906E1;9.144596100E0;1.053611517E0;-3.987926006E0
2.479595000E1;9.123354912E0;1.053467870E0;-3.988931656E0
2.480786250E1;9.106385231E0;1.086709023E0;-3.971942425E0
2.481977344E1;9.114840508E0;1.077381253E0;-3.975686789E0
2.483168438E1;9.137528419E0;1.041889548E0;-4.018217564E0
2.484359688E1;9.146472931E0;1.029908895E0;-4.010057926E0
2.485551094E1;9.146932602E0;1.012728095E0;-4.037035942E0
2.486742031E1;9.131925583E0;1.022362471E0;-4.030466080E0
2.487933125E1;9.111977577E0;9.849458337E-1;-4.032803059E0
2.489124375E1;9.128104210E0;9.926456213E-1;-4.054427147E0
2.490315938E1;9.129329681E0;9.601610899E-1;-4.032170773E0
2.491506719E1;9.154948235E0;9.892075062E-1;-4.014262199E0
2.492697812E1;9.147276878E0;9.838636518E-1;-3.971386909E0
2.493888906E1;9.114601135E0;1.022764683E0;-3.964874506E0
2.495080156E1;9.069475174E0;1.057739139E0;-3.945845366E0
2.496271406E1;9.095591545E0;1.052682638E0;-3.989017725E0
2.497462500E1;9.168422699E0;1.034390926E0;-4.014482498E0
2.498653594E1;9.188533783E0;1.018493414E0;-3.982677937E0
2.499844844E1;9.153675079E0;9.830400348E-1;-3.984784842E0
2.501035938E1;9.102304459E0;9.850032926E-1;-4.017968655E0
2.502227188E1;9.087652206E0;9.699581265E-1;-4.057491779E0
