"Time (s)";"Linear Acceleration x (m/s^2)";"Linear Acceleration y (m/s^2)";"Linear Acceleration z (m/s^2)"
2.779375000E-2;-8.567999601E-1;-3.691999912E-1;-4.921999872E-1
4.764687500E-2;-9.068999887E-1;-6.577000022E-1;-6.136999726E-1
6.750000000E-2;-1.322999954E0;-1.128600001E0;-1.286499977E0
8.735312500E-2;-5.449000001E-1;-5.963999629E-1;-2.026599884E0
1.072046880E-1;1.316999942E-1;-1.630999893E-1;-1.038599968E0
1.270578130E-1;6.927999854E-1;3.533000052E-1;1.203099966E0
1.469109380E-1;4.623000026E-1;-6.480000019E-1;1.346400023E0
1.667625000E-1;-3.568999767E-1;-1.344599962E0;6.574999690E-1
1.866156250E-1;-1.014999971E-1;-8.904999495E-1;-5.040999651E-1
2.064687500E-1;1.970000006E-2;-1.220999956E-1;-1.758599997E0
2.263203130E-1;-3.626999855E-1;-1.076999977E-1;-1.728899956E0
2.461734380E-1;-2.743999958E-1;-1.432799935E0;1.692099929E0
2.660250000E-1;-3.041999936E-1;-5.996999741E-1;2.199800014E0
2.858781250E-1;7.105000019E-1;-4.136999846E-1;2.828199863E0
3.057312500E-1;1.350099921E0;3.660999835E-1;3.072999954E0
3.255828130E-1;1.589999907E-2;1.929899931E0;1.563699961E0
3.454375000E-1;3.130000085E-2;1.382499933E0;-1.319000006E0
3.652890630E-1;-3.107999861E-1;7.996999621E-1;-3.247900009E0
3.851421880E-1;-1.696499944E0;4.386000037E-1;-2.793299913E0
4.049937500E-1;5.054000020E-1;6.424999833E-1;-1.909399986E0
4.248468750E-1;6.466999650E-1;4.678999782E-1;-1.849699974E0
4.446984380E-1;4.578000009E-1;-4.883999825E-1;-2.361700058E0
4.645515630E-1;-2.345999926E-1;-2.139899969E0;-2.818999887E-1
4.844046880E-1;-1.162899971E0;-2.741999865E0;1.551800013E0
5.042578130E-1;-2.586999834E-1;-1.567199945E0;1.372799993E0
5.241093750E-1;-1.585000008E-1;-1.234499931E0;2.599999867E-2
5.439640630E-1;-1.508199930E0;-1.570099950E0;-9.588999748E-1
5.638156250E-1;-1.010599971E0;-9.282999635E-1;-2.584800005E0
5.836671880E-1;4.699999988E-1;1.117100000E0;-5.974999666E-1
6.035203130E-1;-7.306999564E-1;-1.103999987E-1;5.144499779E0
6.233734380E-1;-1.269599915E0;-1.746699929E0;1.109899998E0
6.432265630E-1;-2.435600042E0;-2.884799957E0;-1.525999904E-1
6.630796880E-1;-1.016299963E0;-2.085199833E0;6.751999855E-1
6.829312500E-1;1.274899960E0;-2.122999877E-1;1.720799923E0
7.027843750E-1;2.540099859E0;1.454100013E0;4.286499977E0
7.226359380E-1;2.040999889E0;1.240399957E0;2.847199917E0
7.424890630E-1;1.565199971E0;6.966999769E-1;1.136299968E0
7.623421880E-1;2.158999920E0;1.325399995E0;9.976999760E-1
7.821937500E-1;2.003200054E0;7.140000165E-2;1.241899967E0
8.020468750E-1;1.142099977E0;-6.288999915E-1;-5.834000111E-1
8.219000000E-1;1.989999890E0;5.810000002E-2;-3.157899857E0
8.417515630E-1;3.947999775E-1;-6.994999647E-1;1.042999998E-1
8.616046880E-1;-2.063999921E-1;-9.215999842E-1;3.877999783E-1
8.814578130E-1;2.074999958E-1;-8.549000025E-1;-3.993999958E-1
9.013109380E-1;-2.139999904E-2;3.781999946E-1;1.337799907E0
9.211625000E-1;7.888999581E-1;7.064999938E-1;-1.339000016E-1
9.410156250E-1;2.205999941E-1;-5.579999834E-2;-1.707999945E0
9.608687500E-1;5.058999658E-1;-9.809999913E-2;-1.211399913E0
9.807203130E-1;-7.479999959E-2;-9.957999587E-1;7.635999918E-1
1.000573438E0;8.555999994E-1;-3.885000050E-1;4.906999767E-1
1.020426563E0;1.017699957E0;-2.933999896E-1;1.354999989E-1
1.040278125E0;1.447699904E0;2.671000063E-1;-8.086000085E-1
1.060131250E0;2.850000001E-2;-4.923999906E-1;-1.571999907E0
1.079984375E0;9.679999948E-2;-3.464999795E-1;-1.816100001E0
1.099837500E0;1.287999988E0;7.077999711E-1;-1.199199915E0
1.119689063E0;2.069700003E0;7.595999837E-1;-3.928999901E-1
1.139542188E0;7.267999649E-1;-3.905999959E-1;9.075999856E-1
1.159395313E0;1.588999927E-1;-1.074000001E-1;-4.725999832E-1
1.179246875E0;4.169999957E-1;7.829999924E-2;-1.380899906E0
1.199100000E0;1.163100004E0;1.224399924E0;-2.028699875E0
1.218953125E0;6.563000083E-1;8.303999901E-1;-1.221199989E0
1.238806250E0;4.399999976E-2;6.523999572E-1;-7.050999999E-1
1.258657813E0;-2.052999884E-1;4.679999948E-1;-2.084999979E-1
1.278510938E0;5.213999748E-1;2.208899975E0;3.003000021E-1
1.298364063E0;-6.477000117E-1;1.281799912E0;-1.441999912E0
1.318215625E0;-1.460600019E0;6.660000086E-1;-1.231400013E0
1.338068750E0;-2.025799990E0;-7.329999655E-2;1.092000008E-1
1.357921875E0;-1.454999894E-1;7.303000093E-1;1.618499994E0
1.377773438E0;6.071999669E-1;1.489899993E0;5.690000057E-1
1.397626563E0;-1.463000029E-1;8.671000004E-1;9.929999709E-2
1.417479688E0;-7.770000100E-1;3.641999960E-1;1.994999945E-1
1.437332813E0;-1.212000012E0;-2.452999949E-1;1.796000004E-1
1.457184375E0;4.402000010E-1;7.052999735E-1;6.571999788E-1
1.477035938E0;9.996999502E-1;2.101999968E-1;1.545099974E0
1.496889063E0;1.500199914E0;2.599000037E-1;1.924999952E0
1.516742188E0;8.856999874E-1;-4.138999879E-1;1.976499915E0
1.536593750E0;2.239999920E-1;-7.299999595E-1;7.324999571E-1
1.556446875E0;4.849999845E-1;-5.842999816E-1;-2.775000036E-1
1.576300000E0;1.447799921E0;7.310000062E-2;6.676999927E-1
1.596153125E0;1.011600018E0;-7.199999876E-3;9.958999753E-1
1.616006250E0;-2.162999958E-1;-4.276999831E-1;9.179999679E-2
1.635857813E0;-3.359999955E-1;-8.421999812E-1;7.842999697E-1
1.655710938E0;1.749999970E-1;-7.378999591E-1;1.299000025E0
1.675564063E0;-2.491999865E-1;-1.362200022E0;1.744699955E0
1.695417188E0;-1.067299962E0;-2.487999916E0;1.569700003E0
1.715268750E0;-1.065500021E0;-2.378700018E0;1.105499983E0
1.735120313E0;-1.982999891E-1;-1.331599951E0;-1.336300015E0
1.754973438E0;-5.313999653E-1;-1.105099916E0;-2.569799900E0
1.774828125E0;-1.493899941E0;-1.483799934E0;-1.848799944E0
1.794679688E0;-1.865799904E0;-1.463400006E0;-1.327799916E0
1.814532813E0;-1.730299950E0;-1.750599980E0;-7.720999718E-1
1.834385938E0;-5.309999585E-1;-6.082999706E-1;-4.550999999E-1
1.854237500E0;7.951999903E-1;6.162999868E-1;-3.060999811E-1
1.874089063E0;1.479799986E0;1.293799996E0;-2.836999893E-1
1.893942188E0;1.623999923E-1;3.631999791E-1;-9.846999645E-1
1.913795313E0;-5.945999622E-1;4.439999759E-1;-1.656399965E0
1.933648438E0;-1.353699923E0;2.621999979E-1;-1.014099956E0
1.953501563E0;-8.499999642E-1;1.948999912E-1;8.353999853E-1
1.973353125E0;5.460999608E-1;5.239999890E-1;2.355900049E0
1.993206250E0;1.617200017E0;1.603500009E0;1.159999967E0
2.013057813E0;1.599499941E0;2.071300030E0;5.900000036E-2
2.032912500E0;1.362900019E0;1.658100009E0;1.623099923E0
2.052764063E0;1.151099920E0;1.016700029E0;1.968199968E0
2.072617188E0;7.623999715E-1;5.389999971E-2;2.212300062E0
2.092470313E0;8.454999924E-1;-7.595999837E-1;9.192999601E-1
2.112321875E0;1.624499917E0;-3.674999774E-1;-2.018999904E-1
2.132175000E0;2.047100067E0;-2.681999803E-1;-2.220999897E-1
2.152026563E0;1.706599951E0;-3.789999783E-1;4.510999918E-1
2.171879688E0;1.113600016E0;-5.540999770E-1;1.895699978E0
2.191732813E0;1.008000001E-1;-3.091999888E-1;1.202899933E0
2.211585938E0;-4.405999780E-1;4.720999897E-1;-8.725000024E-1
2.231437500E0;-7.470999956E-1;8.977999687E-1;-1.903599977E0
2.251290625E0;-3.823999763E-1;8.448999524E-1;-5.318999887E-1
2.271143750E0;-9.149999917E-2;6.129999757E-1;1.152400017E0
2.290995313E0;-1.314000010E0;-3.132999837E-1;1.743999958E0
2.310848438E0;-1.927799940E0;-5.184999704E-1;5.044000149E-1
2.330701563E0;-2.487599850E0;-7.303000093E-1;-1.170099974E0
2.350553125E0;-2.417500019E0;-6.430999637E-1;-2.037299871E0
2.370406250E0;-2.483099937E0;-9.968999624E-1;-1.919299960E0
2.390259375E0;-3.157199860E0;-1.297799945E0;-1.901799917E0
2.410110938E0;-2.172999859E0;-7.878999710E-1;-1.310199976E0
2.429964063E0;-7.479999661E-1;-3.109000027E-1;-4.657000005E-1
2.449817188E0;-3.458999991E-1;-3.297999799E-1;-6.189999729E-2
2.469670313E0;9.169999957E-1;5.735999942E-1;-6.909999996E-2
2.489521875E0;1.616499901E0;1.011999965E0;3.474999964E-1
2.509375000E0;6.265999675E-1;3.337999880E-1;5.060999990E-1
2.529228125E0;-1.507499933E0;-5.483999848E-1;-6.229999661E-2
2.549079688E0;-1.795699954E0;-5.776000023E-1;-7.880000025E-2
2.568932813E0;1.850000024E-2;6.707999706E-1;-1.644999981E-1
2.588785938E0;1.590399981E0;1.177699924E0;4.565999806E-1
2.608637500E0;3.316099882E0;1.582700014E0;1.681800008E0
2.628490625E0;5.789099693E0;2.308300018E0;2.396899939E0
2.648343750E0;6.736700058E0;2.692600012E0;2.116999865E0
2.668196875E0;5.503099918E0;2.067899942E0;1.323499918E0
2.688048438E0;1.724699974E0;3.480999768E-1;1.127999946E-1
2.707901563E0;-2.984299898E0;-1.045499921E0;-1.799600005E0
2.727754688E0;-2.142600060E0;-6.775999665E-1;-1.252200007E0
2.747606250E0;2.263799906E0;1.663499951E0;7.429999709E-1
2.767459375E0;3.699899912E0;2.573999882E0;2.366799831E0
2.787312500E0;1.993699908E0;2.184599876E0;1.769799948E0
2.807165625E0;-1.528399944E0;1.260100007E0;-2.490999997E-1
2.827017188E0;-3.859200001E0;-5.449000001E-1;1.456900001E0
2.846870313E0;-1.958999991E0;-3.972999752E-1;3.479499817E0
2.866721875E0;-1.527899981E0;-4.679999948E-1;1.863099933E0
2.886575000E0;-1.467700005E0;-9.031999707E-1;-5.519999862E-1
2.906428125E0;-1.308699965E0;-1.305400014E0;-5.669000149E-1
2.926281250E0;-5.807999969E-1;-1.559999943E0;-9.629999995E-1
2.946132813E0;-7.064999938E-1;-2.197099924E0;1.179999951E-2
2.965985938E0;1.310299993E0;-3.509999812E-1;-4.878000021E-1
2.985839063E0;-3.624999821E-1;-1.069700003E0;-2.267199993E0
3.005690625E0;2.154999971E-1;5.407999754E-1;-3.999699831E0
3.025543750E0;6.098799706E0;5.627699852E0;-4.009999752E0
3.045400000E0;1.638499975E0;1.794199944E0;3.592700005E0
3.065250000E0;2.168999910E-1;1.744899988E0;5.977299690E0
3.085101563E0;-1.234099984E0;2.982100010E0;4.618899822E0
3.104954688E0;-1.499799967E0;4.093699932E0;-1.489000022E-1
3.124806250E0;-2.833600044E0;2.824399948E0;-3.137300014E0
3.144659375E0;-3.744999886E0;-6.897999644E-1;-3.909600019E0
3.164510938E0;-1.649399996E0;8.489999920E-2;-6.548999548E-1
3.184364063E0;2.837800026E0;2.176199913E0;-1.379799962E0
3.204217188E0;2.695400000E0;5.992999673E-1;-2.115900040E0
3.224068750E0;3.908099890E0;-5.124999881E-1;-7.731999755E-1
3.243921875E0;1.278199911E0;4.307999909E-1;-1.345499992E0
3.263775000E0;4.138999879E-1;8.190000057E-2;-1.989899993E0
3.283626563E0;-4.395999908E-1;-2.120199919E0;-2.151200056E0
3.303479688E0;-1.481299996E0;4.229999781E-1;2.153399944E0
3.323334375E0;1.599999890E-2;-1.042899966E0;6.250599861E0
3.343185938E0;-3.368099928E0;-6.289999962E0;4.681099892E0
3.363039063E0;1.455500007E0;-2.115700006E0;8.108999729E-1
3.382892188E0;-6.340000033E-2;-2.263799906E0;-1.958399892E0
3.402743750E0;-2.673199892E0;-5.286799908E0;-3.282299995E0
3.422595313E0;-6.213999987E-1;-3.609999895E0;-3.696899891E0
3.442448438E0;1.060699940E0;-2.205399990E0;-5.417799950E0
3.462301563E0;-1.199000001E0;-1.224099994E0;-7.203999758E-1
3.482154688E0;-3.295300007E0;-1.458699942E0;5.169000030E-1
3.502006250E0;1.287459946E1;1.161579990E1;-1.673499942E0
3.521859375E0;-3.968999982E-1;-2.325999886E-1;4.447799683E0
3.541712500E0;4.381000042E0;1.357100010E0;3.813799858E0
3.561564063E0;3.400099993E0;1.056200027E0;-4.327999949E-1
3.581417188E0;-1.505199909E0;2.360999882E-1;-3.349999905E0
3.601270313E0;-1.989199996E0;1.020699978E0;-2.951999903E0
3.621123438E0;1.341499925E0;2.798399925E0;2.522699833E0
3.640975000E0;-4.113000035E-1;-1.335999966E-1;7.056999803E-1
3.660828125E0;-2.346199989E0;-1.391399980E0;-2.468299866E0
3.680681250E0;-2.970599890E0;-1.980499983E0;-3.124300003E0
3.700532813E0;-1.349799991E0;-3.812599897E0;-1.318499923E0
3.720385938E0;1.230999947E0;-3.305799961E0;5.636999607E-1
3.740239063E0;1.198599935E0;-8.506999612E-1;2.190899849E0
3.760090625E0;2.522000074E-1;-3.589099884E0;2.729199886E0
3.779943750E0;3.012799978E0;-7.556999922E-1;-6.490699768E0
3.799796875E0;5.965799809E0;-5.108999610E-1;-5.266599655E0
3.819650000E0;6.711499691E0;1.471000016E-1;-2.307000011E-1
3.839501563E0;4.338900089E0;7.206000090E-1;2.848799944E0
3.859354688E0;2.796999812E-1;3.741999865E-1;4.453299999E0
3.879207813E0;-3.816499949E0;-2.744400024E0;2.507099867E0
3.899059375E0;3.992999792E-1;-2.566400051E0;3.467899799E0
3.918912500E0;2.102699995E0;-7.833999991E-1;3.326900005E0
3.938771875E0;9.136999846E-1;1.579699993E0;2.705999851E0
3.958618750E0;8.459999561E-1;3.874000013E-1;1.610099912E0
3.978470313E0;-3.016999960E0;-1.653599977E0;4.017099857E0
3.998323438E0;-7.461099625E0;-3.139799833E0;2.074199915E0
4.018175000E0;-5.321799755E0;-1.222999930E0;-6.187999845E-1
4.038028125E0;-4.364200115E0;3.447999954E-1;-3.140899897E0
4.057881250E0;-7.062299728E0;1.185400009E0;-4.225299835E0
4.077734375E0;-8.121699333E0;8.303999901E-1;-3.998999834E0
4.097585938E0;-3.593400002E0;1.622999907E0;5.476999879E-1
4.117439063E0;8.540999889E-1;1.827799916E0;2.919699907E0
4.137292188E0;4.446099758E0;3.140300035E0;-3.758899927E0
4.157145313E0;6.130899906E0;3.276700020E0;-2.055700064E0
4.176996875E0;6.288799763E0;2.972699881E0;-1.431699991E0
4.196850000E0;4.258899689E0;1.593400002E0;-1.564499974E0
4.216703125E0;3.012899876E0;1.493600011E0;-2.010599852E0
4.236554688E0;2.030400038E0;1.411799908E0;-2.649799824E0
4.256407813E0;1.318400025E0;7.584999800E-1;-3.311899900E0
4.276259375E0;-3.580499887E0;1.371199965E0;4.600000009E-2
4.296112500E0;-6.116999984E-1;-4.216300011E0;-1.836799979E0
4.315965625E0;3.985799789E0;-4.610799789E0;9.195999503E-1
4.335818750E0;3.582700014E0;-3.734999895E0;2.766999900E-1
4.355670313E0;3.096199989E0;-3.468400002E0;-1.791799903E0
4.375523438E0;2.013299942E0;-1.681499958E0;-6.065999866E-1
4.395376563E0;1.105199933E0;-2.018300056E0;1.140900016E0
4.415229688E0;1.483199954E0;-1.933599949E0;1.643099904E0
4.435081250E0;3.484099865E0;-1.112200022E0;2.377799988E0
4.454934375E0;3.926899910E0;7.928000093E-1;2.202299833E0
4.474785938E0;2.881000042E-1;-1.314000040E-1;3.981699944E0
4.494639063E0;-3.352699995E0;1.634299994E0;2.527400017E0
4.514492188E0;-5.297999859E0;1.144500017E0;6.431999803E-1
4.534345313E0;-3.895900011E0;1.407799959E0;9.869999439E-2
4.554198438E0;-3.289399862E0;1.863399982E0;1.138999939E0
4.574050000E0;4.010000080E-2;2.236700058E0;1.686999917E0
4.593903125E0;2.846099854E0;-8.320000023E-2;7.299000025E-1
4.613754688E0;3.211599827E0;2.004999965E-1;-1.758199930E0
4.633607813E0;6.879999489E-2;2.307399988E0;-2.542500019E0
4.653460938E0;-8.131999969E-1;2.706799984E0;-3.048699856E0
4.673314063E0;-8.348000050E-1;2.801399946E0;-2.272099972E0
4.693165625E0;-1.273999929E0;1.487999916E0;1.491999924E-1
4.713017188E0;-1.530699968E0;5.877000093E-1;2.951799870E0
4.732870313E0;-1.036100030E0;2.031299829E0;1.681699991E0
4.752723438E0;-2.035099983E0;2.504799843E0;-4.722999930E-1
4.772576563E0;-1.065099955E0;1.439599991E0;-2.366499901E0
4.792428125E0;-1.243999958E0;6.518999934E-1;2.926000059E-1
4.812281250E0;-5.799999833E-1;-1.414799929E0;1.236500025E0
4.832134375E0;3.380999863E-1;-3.735399961E0;-1.669999957E0
4.851985938E0;8.075000048E-1;-5.657199860E0;-5.775499821E0
4.871839063E0;1.676499963E0;-3.971799850E0;-6.462699890E0
4.891692188E0;7.145999670E-1;-1.725600004E0;-1.610000014E0
4.911543750E0;-1.246399999E0;-8.750999570E-1;1.584299922E0
4.931396875E0;-6.175999641E-1;-1.567699909E0;2.778499842E0
4.951250000E0;-7.692999840E-1;7.383999825E-1;6.320199966E0
4.971101563E0;6.030000001E-2;-8.460000157E-2;4.804800034E0
4.990954688E0;5.979999900E-2;-1.269400001E0;3.233700037E0
5.010807813E0;2.212899923E0;-4.870999753E-1;1.587599993E0
5.030660938E0;1.962799907E0;1.649999991E-2;5.496999621E-1
5.050512500E0;7.991999984E-1;-9.959999472E-2;8.379999548E-2
5.070365625E0;6.313999891E-1;3.168999851E-1;3.030999899E-1
5.090218750E0;-1.374000013E-1;1.699999928E0;9.420999885E-1
5.110070313E0;-3.357999921E-1;2.097199917E0;1.240599990E0
5.129923438E0;3.832999766E-1;2.035399914E0;8.603999615E-1
5.149776563E0;3.039000034E-1;2.113800049E0;3.989999741E-2
5.169629688E0;-2.123100042E0;1.602399945E0;-4.503999949E-1
5.189481250E0;-4.019999802E-1;7.622999549E-1;-7.290999889E-1
5.209334375E0;9.300999641E-1;5.119000077E-1;-8.019999862E-1
5.229187500E0;3.906099796E0;-1.810199976E0;-5.187999606E-1
5.249039063E0;4.381999969E0;-2.822499990E0;5.302999616E-1
5.268892188E0;4.247900009E0;-1.144500017E0;-1.398199916E0
5.288745313E0;1.775499940E0;-6.814000010E-1;-1.289499998E0
5.308596875E0;2.516499996E0;1.634400010E0;7.610999942E-1
5.328450000E0;-1.304399967E0;2.688400030E0;-1.337399960E0
5.348303125E0;-3.749499798E0;2.845000029E0;-1.936399937E0
5.368168750E0;-3.927299976E0;2.534099817E0;1.116799951E0
5.388007813E0;7.524999976E-1;2.856799841E0;9.117999673E-1
5.407860938E0;4.039000034E0;2.798899889E0;-3.462800026E0
5.427714063E0;-1.304000020E-1;-9.510999918E-1;1.207700014E0
5.447565625E0;-1.027300000E0;-2.044100046E0;3.061899900E0
5.467418750E0;-5.180999637E-1;-3.110499859E0;1.342800021E0
5.487271875E0;-3.197999895E-1;-4.332099915E0;-1.094999984E-1
5.507123438E0;2.745800018E0;-6.227499962E0;8.262999654E-1
5.526981250E0;1.366899967E0;-1.078859997E1;1.063199997E0
5.546829688E0;6.006499767E0;-4.909199715E0;-1.051599979E0
5.566682813E0;9.705399513E0;-3.954799891E0;6.469999552E-1
5.586534375E0;7.313099861E0;-2.832000017E0;8.570999503E-1
5.606387500E0;-4.121799946E0;-8.248999715E-1;3.288399935E0
5.626240625E0;-1.968999863E1;2.926499844E0;1.215600014E0
5.646092188E0;-1.312599945E1;3.721099854E0;-1.135699987E0
5.665945313E0;-5.488999844E0;4.265399933E0;1.065799952E0
5.685798438E0;6.672999859E-1;3.482800007E0;2.092000008E0
5.705651563E0;1.391899943E0;1.534699917E0;-3.784699917E0
5.725503125E0;1.736299992E0;1.450699925E0;-4.249099731E0
5.745356250E0;9.886999726E-1;5.320999622E-1;-2.261100054E0
5.765209375E0;-7.308999896E-1;1.713199973E0;-2.683799982E0
5.785060938E0;1.530099988E0;-9.758999944E-1;-8.283999562E-1
5.804914063E0;-1.231699944E0;-3.455699921E0;1.004899979E0
5.824767188E0;-1.073699951E0;-9.083999991E-1;-6.929999590E-2
5.844618750E0;3.122599840E0;1.025099993E0;-1.422899961E0
5.864471875E0;4.665999889E0;1.735399961E0;-5.727999806E-1
5.884325000E0;5.783299923E0;1.313699961E0;-5.791999698E-1
5.904178125E0;2.371599913E0;-5.232999921E-1;-1.623099923E0
5.924029688E0;-1.542699933E0;1.468999982E0;-2.923399925E0
5.943882813E0;6.036999822E-1;1.180299997E0;-3.756500006E0
5.963735938E0;2.492999882E-1;9.789999574E-2;-2.215100050E0
5.983615625E0;-2.349999994E-1;4.418999851E-1;-1.643899918E0
6.003440625E0;-9.690999985E-1;-2.011800051E0;1.815799952E0
6.023292188E0;3.611500025E0;-4.494599819E0;8.154899597E0
6.043145313E0;-5.697000027E-1;-5.215699673E0;3.494499922E0
6.062998438E0;-2.345099926E0;-4.105199814E0;2.253999949E0
6.082851563E0;-4.397200108E0;-5.134399891E0;-1.067999974E-1
6.102703125E0;-3.475399971E0;-6.203000069E0;-7.909999788E-2
6.122556250E0;-4.748099804E0;-4.777400017E0;2.012300014E0
6.142409375E0;-4.617099762E0;-2.969199896E0;3.732899904E0
6.162260938E0;-3.130399942E0;-4.618899822E0;-2.305899858E0
6.182114063E0;-5.789399624E0;-3.394699812E0;-8.731800079E0
6.201965625E0;-3.404599905E0;-2.218799829E0;2.298999876E-1
6.221818750E0;1.839410019E1;7.215199947E0;1.958699942E0
6.241671875E0;1.912979889E1;9.309199333E0;2.913300037E0
6.261523438E0;4.896699905E0;4.283899784E0;-6.926999688E-1
6.281376563E0;-4.255399704E0;2.388999909E-1;-2.705699921E0
6.301229688E0;4.658899784E0;5.681999922E-1;4.233999848E-1
6.321082813E0;-1.882900000E0;-3.703899860E0;4.739999771E-1
6.340934375E0;4.852699757E0;-2.646499872E0;-1.620499969E0
6.360787500E0;9.626599312E0;-1.621500015E0;-2.475999892E-1
6.380640625E0;-6.353699684E0;-4.873899937E0;-2.245800018E0
6.400492188E0;-8.333099365E0;-3.888000011E0;-3.484599829E0
6.420345313E0;8.750000000E-1;-1.459499955E0;2.493299961E0
6.440198438E0;7.972199917E0;4.531799793E0;-1.316399932E0
6.460051563E0;2.453199863E0;2.525099993E0;-5.392099857E0
6.479903125E0;4.217899799E0;3.080099821E0;1.966999918E-1
6.499756250E0;3.180199862E0;2.998699903E0;6.922999620E-1
6.519609375E0;4.829999804E-2;2.949599981E0;5.263700008E0
6.539460938E0;-2.862200022E0;2.866600037E0;4.657199860E0
6.559314063E0;-3.198099852E0;2.394700050E0;3.777899981E0
6.579167188E0;-2.708600044E0;-2.716999948E-1;1.105599999E0
6.599018750E0;1.700999975E0;-8.701999784E-1;6.882999539E-1
6.618870313E0;4.622299671E0;-1.573799968E0;-4.423999786E-1
6.638725000E0;1.561599970E0;-2.978600025E0;-1.048900008E0
6.658578125E0;-2.358899832E0;-4.912699699E0;-1.629799962E0
6.678429688E0;-3.966899872E0;-5.322499752E0;4.126999974E-1
6.698282813E0;-5.519999981E0;-5.229700089E0;2.824299812E0
6.718137500E0;-4.424799919E0;-4.379499912E0;2.673099995E0
6.737987500E0;-4.192100048E0;-4.565899849E0;8.922999501E-1
6.757840625E0;-5.264699936E0;-6.096299648E0;-8.379999548E-2
6.777693750E0;-2.862999916E0;-6.718099594E0;-4.122200012E0
6.797545313E0;-1.138499975E0;-7.662399769E0;-4.954099655E0
6.817398438E0;6.852900028E0;-6.841699600E0;-2.191699982E0
6.837251563E0;3.142199993E0;-7.038099766E0;-4.638000011E0
6.857103125E0;-4.215699673E0;-5.801199913E0;7.085999846E-1
6.876954688E0;2.532500029E0;-8.639299393E0;3.922799826E0
6.896807813E0;1.815469933E1;2.503799915E0;8.722399712E0
6.916660938E0;2.053439903E1;1.035779953E1;-1.413200021E0
6.936512500E0;1.090509987E1;8.028599739E0;-2.007110023E1
6.956365625E0;7.850699902E0;-1.968400002E0;-2.889199972E0
6.976218750E0;8.744099617E0;-3.308799982E0;1.777799964E0
6.996071875E0;1.079900026E0;-4.645999908E0;2.634500027E0
7.015923438E0;-1.684599996E0;-3.629799843E0;3.788499832E0
7.035776563E0;-8.325699806E0;-5.226900101E0;8.424200058E0
7.055629688E0;-1.942199945E0;-1.623399973E0;2.326299906E0
7.075481250E0;7.669000030E-1;3.135699987E0;-3.180599928E0
7.095334375E0;2.658999860E-1;1.648000002E0;-6.696999669E-1
7.115189063E0;1.627099991E0;4.957699776E0;1.365599990E0
7.135040625E0;3.788599968E0;6.178999901E0;4.049399853E0
7.154892188E0;-4.156199932E0;5.591499805E0;2.243599892E0
7.174745313E0;-3.399899960E0;1.752999902E0;-2.177199841E0
7.194598438E0;-6.266900063E0;-4.905999899E-1;-9.549999833E-1
7.214451563E0;-3.737699986E0;-3.005999923E-1;1.100299954E0
7.234303125E0;-3.171499968E0;6.948999763E-1;1.458999962E-1
7.254156250E0;-3.268299818E0;1.475600004E0;-3.481999934E-1
7.274009375E0;-3.127300024E0;1.416899920E0;-3.250000000E0
7.293860938E0;-4.232899666E0;-2.102099895E0;-1.695599914E0
7.313714063E0;-3.163699865E0;-5.787299633E0;1.529999916E-2
7.333567188E0;-2.726399899E0;-6.134599686E0;1.860199928E0
7.353420313E0;-1.618299961E0;-3.944299936E0;-1.134400010E0
7.373271875E0;9.442999959E-1;-6.793999672E-1;-7.075999975E-1
7.393125000E0;1.093599916E0;-2.046900034E0;-2.053299904E0
7.412976563E0;-3.722999990E-1;-3.143499851E0;-5.075599670E0
7.432829688E0;3.578299999E0;-5.069999769E-2;-9.659999609E-1
7.452682813E0;4.328199863E0;1.109099984E0;2.168699980E0
7.472535938E0;5.144499779E0;3.353299856E0;-1.369999945E-1
7.492387500E0;1.362900019E0;5.812000036E-1;8.445000052E-1
7.512246875E0;3.900599957E0;1.307199955E0;5.393699646E0
7.532093750E0;3.059999831E-2;-4.010499954E0;1.059049988E1
7.551945313E0;4.520599842E0;-1.206799984E0;3.385799885E0
7.571798438E0;4.220799923E0;1.326399922E0;-2.709699869E0
7.591651563E0;1.721799970E0;2.030299902E0;-6.155900002E0
7.611504688E0;-6.324999928E-1;-1.455699921E0;-1.868999958E0
7.631356250E0;1.605499983E0;-1.440500021E0;2.427899837E0
7.651209375E0;-5.728999972E-1;-2.979499817E0;2.821399927E0
7.671062500E0;-1.154099941E0;-2.302399874E0;-3.601999879E-1
7.690914063E0;-1.761299968E0;-2.925199986E0;-1.437600017E0
7.710767188E0;-1.003000021E0;-2.691200018E0;-9.893999696E-1
7.730620313E0;-8.394999504E-1;-2.595799923E0;-3.455999792E-1
7.750471875E0;-1.478699923E0;-2.524499893E0;-1.300499916E0
7.770325000E0;-1.464800000E0;-2.712599993E0;-1.852800012E0
7.790178125E0;-1.179399967E0;-3.215299845E0;-2.528300047E0
7.810031250E0;-1.031999961E-1;-2.514400005E0;-1.052199960E0
7.829882813E0;1.317600012E0;-1.386999965E0;-1.558599949E0
7.849735938E0;7.317000031E-1;-1.403599977E0;-3.804499865E0
7.869589063E0;5.152999759E-1;-2.343699932E0;-3.893800020E0
7.889440625E0;1.090799928E0;-9.846999645E-1;-1.551499963E0
7.909300000E0;2.543400049E0;1.849999905E0;-5.615999699E-1
7.929146875E0;2.727499962E0;1.331200004E0;-8.341000080E-1
7.949000000E0;1.879399896E0;6.003999710E-1;-6.254000068E-1
7.968851563E0;8.256999850E-1;1.400499940E0;-9.208999872E-1
7.988704688E0;1.458299994E0;2.026399851E0;2.563199997E0
8.008559375E0;1.927999973E0;2.273499966E0;4.479700089E0
8.028409375E0;1.928299904E0;1.479699969E0;4.866399765E0
8.048262500E0;2.952499866E0;1.374400020E0;3.200599909E0
8.068115625E0;3.271499872E0;1.620499969E0;-1.357100010E0
8.087967188E0;2.509099960E0;1.085699916E0;-8.294999599E-1
8.107820313E0;1.653899908E0;2.440999895E-1;3.420999944E-1
8.127673438E0;-5.328999758E-1;-1.463199973E0;-1.021999940E-1
8.147525000E0;-3.429999948E-2;-4.212999940E-1;2.716000080E-1
8.167376563E0;-1.172399998E0;-4.386999905E-1;1.304899931E0
8.187231250E0;-2.049099922E0;-1.141899943E0;9.829999506E-2
8.207082813E0;-4.184099674E0;-2.065099955E0;-9.039999545E-2
8.226935938E0;-4.272200108E0;-1.934399962E0;1.207799911E0
8.246789063E0;-2.548699856E0;-9.486999512E-1;1.683299899E0
8.266642188E0;-2.063899994E0;-1.899999939E-2;-2.779999971E-1
8.286493750E0;-2.466199875E0;6.452999711E-1;-2.611099958E0
8.306346875E0;-4.032199860E0;-5.256999731E-1;-2.265599966E0
8.326200000E0;-2.636399984E0;6.413999796E-1;-9.250999689E-1
8.346051563E0;-8.101999760E-1;9.129999876E-1;1.258299947E0
8.365904688E0;-8.449999988E-2;4.408999979E-1;4.574999809E-1
8.385759375E0;8.143000007E-1;8.622999787E-1;-1.383199930E0
8.405609375E0;-2.224999964E-1;5.779999867E-2;-1.110000014E0
8.425462500E0;2.223500013E0;1.671000004E0;-1.281099916E0
8.445315625E0;5.791000128E-1;9.989999533E-1;-1.782799959E0
8.465168750E0;2.852499962E0;2.427799940E0;-1.875000000E0
8.485020313E0;6.326799870E0;4.848399639E0;3.445799828E0
8.504873438E0;5.339900017E0;3.258699894E0;3.423399925E0
8.524726563E0;3.988399982E0;8.624999523E-1;2.680599928E0
8.544578125E0;3.617399931E0;1.115999937E0;1.893499970E0
8.564431250E0;3.061999977E-1;-1.436200023E0;2.699999837E-3
8.584284375E0;-9.149999619E-1;-9.256999493E-1;-1.987999976E-1
8.604135938E0;-5.325999856E-1;-1.519299984E0;-2.478399992E0
8.623989063E0;-5.433999896E-1;-1.775499940E0;-2.243499994E0
8.643842188E0;2.284999937E-1;-1.533299923E0;-1.446499944E0
8.663693750E0;-1.781899929E0;-3.932299852E0;9.470000118E-2
8.683546875E0;-1.244499922E0;-4.825099945E0;2.835099936E0
8.703398438E0;-2.358999968E0;-4.022500038E0;-1.548200011E0
8.723251563E0;-2.604499817E0;-4.406199932E0;-2.908200026E0
8.743104688E0;-4.480899811E0;-4.579999924E0;-4.693999887E-1
8.762956250E0;-3.836799860E0;-5.538499832E0;2.832799911E0
8.782809375E0;-1.001600027E0;-1.434399962E0;1.686899900E0
8.802662500E0;1.580999970E0;2.896899939E0;-1.161700010E0
8.822515625E0;1.925399899E0;5.109999657E0;-4.589999914E-1
8.842367188E0;-2.938999832E-1;3.647199869E0;-7.325999737E-1
8.862220313E0;-2.604899883E0;3.244499922E0;-5.148999691E-1
8.882073438E0;-6.604999900E-1;3.823499918E0;-1.385699987E0
8.901926563E0;4.813999832E-1;4.636300087E0;-1.916299939E0
8.921778125E0;3.374199867E0;3.397099972E0;-1.167299986E0
8.941631250E0;3.323400021E0;1.888599992E0;-3.781699896E0
8.961484375E0;1.676199913E0;-3.319999874E-1;-3.248499870E0
8.981335938E0;3.892499924E0;-1.656000018E-1;8.452000022E-1
9.001189063E0;3.096899986E0;-1.502299905E0;4.565899849E0
9.021042188E0;3.549599886E0;-1.728599906E0;3.214699984E0
9.040893750E0;1.629899979E0;-1.998199940E0;4.359899998E0
9.060746875E0;5.105999708E-1;-2.187399864E0;3.138499975E0
9.080600000E0;3.880999804E0;6.807999611E-1;-2.607199907E0
9.100451563E0;1.722599983E0;2.756500006E0;2.400099993E0
9.120304688E0;-6.386799812E0;-3.766899824E0;-3.226300001E0
9.140157813E0;6.240999699E-1;-3.313400030E0;6.909999996E-2
9.160009375E0;1.098829937E1;8.876999617E-1;3.408599854E0
9.179862500E0;1.477899909E0;3.837199926E0;2.742100000E0
9.199715625E0;-1.228699923E0;-1.657899976E0;1.699599981E0
9.219568750E0;-3.996999979E0;-1.810799956E0;1.349900007E0
9.239420313E0;-3.900299788E0;-2.210999876E-1;5.609999895E-1
9.259273438E0;-5.264199734E0;2.899000049E-1;2.422499895E0
9.279126563E0;-3.532199860E0;2.381299973E0;-4.521999836E0
9.298979688E0;-1.631099939E0;4.936599731E0;-4.296799660E0
9.318831250E0;9.849999845E-2;5.882599831E0;-5.104499817E0
9.338684375E0;2.434999943E-1;7.519999743E-1;-5.338900089E0
9.358537500E0;2.824899912E0;-4.267999828E-1;-2.405200005E0
9.378389063E0;1.008000016E0;6.387999654E-1;-3.385999799E-1
9.398242188E0;1.923999906E0;2.871500015E0;1.515499949E0
9.418095313E0;5.386199951E0;6.224699974E0;-5.109999701E-2
9.437946875E0;4.036699772E0;8.466999531E-1;-3.774199963E0
9.457800000E0;-1.555999964E-1;-4.125999808E-1;1.903999925E0
9.477651563E0;-2.765699863E0;-9.885899544E0;-3.134000003E-1
9.497507813E0;-8.156899452E0;-1.209210014E1;1.016119957E1
9.517357813E0;2.913999856E-1;-6.040699959E0;7.286399841E0
9.537210938E0;5.025799751E0;1.961399913E0;-4.635299683E0
9.557062500E0;4.768899918E0;2.852999926E0;-2.737999916E0
9.576915625E0;2.780799866E0;3.152299881E0;3.248299837E0
9.596767188E0;4.069200039E0;3.775999844E-1;1.944299936E0
9.616621875E0;4.101799965E0;7.863499641E0;3.188999891E-1
9.636473438E0;1.663299918E0;4.561100006E0;-2.890199900E0
9.656326563E0;-2.088799953E0;-1.173099995E0;2.412999868E-1
9.676179688E0;-4.040199757E0;-3.460899830E0;1.041199923E0
9.696031250E0;-3.627199888E0;-1.549600005E0;1.386399984E0
9.715884375E0;-2.255300045E0;-5.216999650E-1;4.217999876E-1
9.735737500E0;-1.465999961E0;-3.731400013E0;5.758000016E-1
9.755590625E0;-4.904999733E-1;-3.194000006E0;-1.331999898E-1
9.775442188E0;-1.037199974E0;-2.627300024E0;-8.720000088E-2
9.795293750E0;2.285099983E0;-1.362699986E0;-6.527999640E-1
9.815146875E0;-1.057699919E0;-1.880800009E0;-2.018399954E0
9.835000000E0;7.333999872E-1;2.238999903E-1;-3.541199923E0
9.854851563E0;2.764899969E0;1.243199944E0;-2.230700016E0
9.874704688E0;3.209199905E0;-4.235999882E-1;4.648000002E-1
9.894559375E0;2.378399849E0;-9.809999913E-2;1.573399901E0
9.914409375E0;4.465099812E0;2.384199858E0;-1.406299949E0
9.934264063E0;2.725800037E0;2.447900057E0;-1.235700011E0
9.954115625E0;-4.929999828E0;-2.251999855E0;1.946199894E0
9.973968750E0;2.032199860E0;3.856599808E0;-7.714499950E0
9.993820313E0;1.967799902E0;1.858099937E0;9.388999939E-1
1.001367344E1;3.416699886E0;2.295699835E0;6.059199810E0
1.003352656E1;2.797099829E0;3.673299789E0;4.387799740E0
1.005337812E1;3.509999812E-2;2.481199980E0;3.283999920E0
1.007323125E1;2.081999928E-1;9.086999893E-1;2.162099838E0
1.009308594E1;7.788999677E-1;1.026700020E0;2.482399940E0
1.011293750E1;7.956999540E-1;7.716999650E-1;2.324800014E0
1.013278906E1;-5.733000040E-1;-9.309999645E-2;3.290999830E-1
1.015264219E1;-1.096300006E0;-1.523699999E0;9.502999783E-1
1.017249531E1;-9.850999713E-1;-3.436699867E0;8.473999500E-1
1.019234688E1;-1.070299983E0;-4.042299747E0;-2.290999889E-1
1.021220000E1;-2.123399973E0;-4.118799686E0;-6.208999753E-1
1.023205312E1;-2.360899925E0;-4.341099739E0;-6.492999792E-1
1.025190469E1;-2.160300016E0;-3.668599844E0;8.727999926E-1
1.027175781E1;-1.868399978E0;-2.710199833E0;7.501999736E-1
1.029161094E1;-1.179099917E0;-1.482499957E0;7.766999602E-1
1.031146406E1;9.030000120E-2;9.618999958E-1;-1.004099965E0
1.033131562E1;-3.633999825E-1;1.825599909E0;-6.948999763E-1
1.035116875E1;-1.358000040E-1;1.459399939E0;-1.334599972E0
1.037102188E1;7.423999906E-1;2.334300041E0;-3.706399918E0
1.039087344E1;-2.057999969E-1;4.351900101E0;-2.928299904E0
1.041072656E1;-1.208099961E0;4.537799835E0;-1.571299911E0
1.043057969E1;6.064999700E-1;3.210999966E0;-2.685899973E0
1.045043281E1;3.744899988E0;3.135299921E0;-1.308499932E0
1.047028438E1;2.406999826E0;-7.530000061E-2;-1.216400027E0
1.049013750E1;1.049899936E0;-2.309999987E-2;1.068999958E1
1.050998906E1;3.573899984E0;1.967799902E0;1.910399914E0
1.052984844E1;2.568300009E0;1.023599982E0;-7.268999815E-1
1.054969531E1;2.884899855E0;4.193999767E-1;4.500999749E-1
1.056954844E1;2.602699995E0;1.063899994E0;2.416999936E-1
1.058940000E1;7.425000072E-1;7.469999790E-1;2.261999995E-1
1.060925312E1;-2.707000077E-1;-5.004000068E-1;6.619999558E-2
1.062910625E1;-1.495899916E0;-2.205999851E0;1.357900023E0
1.064895781E1;-1.282999992E0;-3.438400030E0;1.693499923E0
1.066881094E1;-1.055799961E0;-4.279599667E0;1.169600010E0
1.068866406E1;-1.894199967E0;-3.267400026E0;2.834999859E-1
1.070851719E1;-1.809799910E0;-3.322099924E0;2.345999926E-1
1.072836875E1;-9.624999762E-1;-3.137699842E0;-6.204000115E-1
1.074822188E1;-8.273999691E-1;-3.244099855E0;-8.245999813E-1
1.076807500E1;-6.672999859E-1;-2.505499840E0;-1.300499916E0
1.078792656E1;-1.019500017E0;-1.855499983E0;-1.584699988E0
1.080777969E1;-7.971999645E-1;-8.217999935E-1;-9.862999916E-1
1.082763281E1;-1.204599977E0;4.660999775E-1;-2.660999894E-1
1.084748438E1;-5.455999970E-1;8.132999539E-1;-1.318499923E0
1.086733750E1;1.641600013E0;1.806299925E0;2.150999904E-1
1.088719062E1;3.279199839E0;3.388399839E0;-7.524999976E-1
1.090704375E1;1.508999944E0;2.497299910E0;-4.319099903E0
1.092689531E1;-8.919999599E-1;3.709499836E0;-6.076499939E0
1.094674844E1;6.247999668E-1;3.471400023E0;-1.189199924E0
1.096660156E1;2.782299995E0;8.474999666E-1;2.456300020E0
1.098645312E1;3.463399887E0;1.572999954E-1;4.657499790E0
1.100630938E1;3.757099867E0;1.643199921E0;5.172599792E0
1.102615938E1;3.272399902E0;1.768599987E0;3.345799923E0
1.104601250E1;1.516999960E0;5.874999762E-1;1.910699964E0
1.106586406E1;-1.228600025E0;3.285000026E-1;7.542999983E-1
1.108571562E1;-2.201099873E0;1.251199961E0;5.389999747E-1
1.110557031E1;-8.082999587E-1;1.973399997E0;-2.529999986E-2
1.112542188E1;-2.897000015E-1;9.479999542E-2;1.416999936E0
1.114527500E1;-7.453999519E-1;-2.189899921E0;1.078199983E0
1.116512656E1;-1.783299923E0;-1.415399909E0;3.317999840E-1
1.118497969E1;-1.614399910E0;-1.215099931E0;-3.189999983E-2
1.120483281E1;-3.807999790E-1;-4.489399910E0;-8.894000053E-1
1.122468594E1;-9.687999487E-1;-5.237199783E0;-2.046999931E0
1.124453750E1;-1.963899970E0;-4.048099995E0;-1.821999907E0
1.126439062E1;-1.553799987E0;-3.009599924E0;-8.804000020E-1
1.128424375E1;-3.583999872E-1;-1.399099946E0;-8.699999750E-2
1.130409531E1;-7.756999731E-1;9.219999611E-2;7.179999948E-1
1.132394844E1;-1.382599950E0;1.413800001E0;1.504999995E-1
1.134380000E1;-1.049299955E0;8.233999610E-1;-1.555400014E0
1.136365312E1;8.346999884E-1;1.621299982E0;-1.766799927E0
1.138350625E1;1.610000014E0;3.608299971E0;-1.410499930E0
1.140335781E1;9.299999475E-2;5.791500092E0;-8.698999882E-1
1.142321094E1;-9.617999792E-1;7.512399673E0;-6.171000004E-1
1.144306406E1;-1.040499926E0;6.277699947E0;-2.274199963E0
1.146291719E1;-2.258999944E-1;2.140899897E0;-1.739799976E0
1.148276875E1;3.502199888E0;-2.145999968E-1;1.592000008E0
1.150262188E1;4.343499660E0;-1.088299990E0;6.980299950E0
1.152247500E1;5.013499737E0;-1.044899940E0;4.854700089E0
1.154232656E1;5.660099983E0;4.834999740E-1;2.962999821E0
1.156217969E1;3.282899857E0;1.860999912E-1;1.755299926E0
1.158203281E1;1.074399948E0;-3.500000015E-2;7.903999686E-1
1.160188594E1;-7.617999911E-1;-1.128399968E0;-5.175999999E-1
1.162173750E1;-1.799600005E0;-2.226300001E0;-2.071799994E0
1.164159063E1;-2.106699944E0;-2.685799837E0;-1.147400022E0
1.166144375E1;-2.284699917E0;-3.213299990E0;4.487999976E-1
1.168129531E1;-2.221499920E0;-3.791599989E0;7.368999720E-1
1.170114844E1;-1.648999929E0;-3.906999826E0;2.811999917E-1
1.172100156E1;-1.424399972E0;-3.888299942E0;-1.397999972E-1
1.174085313E1;-1.128000021E0;-3.451499939E0;-8.434999585E-1
1.176070625E1;-8.526999950E-1;-2.769299984E0;-1.481099963E0
1.178055938E1;-9.372999668E-1;-1.891899943E0;-2.081399918E0
1.180041250E1;-8.993999958E-1;-6.766999960E-1;-2.056499958E0
1.182026406E1;-2.635999918E-1;-1.815999895E-1;-2.974999905E0
1.184011719E1;9.684999585E-1;1.369999945E-1;-1.642799973E0
1.185997031E1;2.886699915E0;1.301800013E0;1.485499978E0
1.187982188E1;3.946199894E0;3.161899805E0;-1.545899987E0
1.189967500E1;1.644400001E0;2.665599823E0;-7.278399944E0
1.191952813E1;1.952199936E0;4.436899662E0;-3.525099993E0
1.193937969E1;3.650599957E0;1.342399955E0;2.653599977E0
1.195923281E1;3.881699800E0;4.136999846E-1;3.548599958E0
1.197908594E1;3.662400007E0;2.190500021E0;5.184899807E0
1.199893750E1;1.817399979E0;2.882499933E0;3.703699827E0
1.201879063E1;2.601000071E-1;3.164299965E0;3.344300032E0
1.203864844E1;1.350899935E0;1.387099981E0;2.851500034E0
1.205849688E1;2.128099918E0;2.431999892E-1;1.739899993E0
1.207834844E1;1.137199998E0;-8.008999825E-1;1.059000015E0
1.209820156E1;-7.356999516E-1;-2.130300045E0;2.640999854E-1
1.211805469E1;-1.350199938E0;-3.484399796E0;1.621999890E-1
1.213790781E1;-9.417999983E-1;-3.710899830E0;2.766999900E-1
1.215775781E1;-5.011999607E-1;-2.834399939E0;6.173999906E-1
1.217761250E1;-8.254999518E-1;-2.089499950E0;6.451999545E-1
1.219746563E1;-1.699800014E0;-1.815099955E0;1.433999985E-1
1.221731719E1;-2.416199923E0;-1.464200020E0;-7.292999625E-1
1.223717031E1;-3.035399914E0;-9.921999574E-1;-1.205799937E0
1.225702344E1;-3.839900017E0;-5.895000100E-1;-1.674299955E0
1.227687500E1;-4.269000053E0;-7.353999615E-1;-2.630899906E0
1.229672813E1;-2.661900043E0;-7.684999704E-1;-2.614699841E0
1.231657969E1;-1.187099934E0;-6.635999680E-1;-1.854799986E0
1.233643281E1;1.450199962E0;5.072999597E-1;-1.540099978E0
1.235628594E1;6.473599911E0;1.932599902E0;-7.329999804E-1
1.237614063E1;4.226299763E0;4.224800110E0;6.915999651E-1
1.239599063E1;-1.553999931E-1;4.336599827E0;-8.601999879E-1
1.241584375E1;-9.591999650E-1;4.400799751E0;-1.781699896E0
1.243569531E1;-7.554999590E-1;2.138999939E0;3.806999922E-1
1.245554844E1;6.676999927E-1;1.269199967E0;2.690799952E0
1.247540156E1;4.990699768E0;1.237900019E0;3.596099854E0
1.249525313E1;4.567299843E0;5.496000051E-1;4.348700047E0
1.251510781E1;2.766499996E0;9.521999955E-1;4.765100002E0
1.253496563E1;5.147399902E0;2.317199945E0;2.777999878E0
1.255481094E1;3.192199945E0;1.439999938E0;5.999999642E-1
1.257466406E1;8.759999871E-1;2.357999980E-1;-2.099999925E-3
1.259451719E1;-1.011999965E0;-1.419999957E0;-1.503999978E-1
1.261437031E1;-2.427399874E0;-2.642699957E0;-8.159999549E-2
1.263422188E1;-3.179800034E0;-3.613299847E0;2.391999960E-1
1.265407500E1;-3.181299925E0;-4.284299850E0;3.407000005E-1
1.267393594E1;-1.907299995E0;-4.061999798E0;-2.465000004E-1
1.269377969E1;-1.144799948E0;-3.822699785E0;-3.696999848E-1
1.271363281E1;-6.334999800E-1;-3.444999933E0;-6.169999763E-2
1.273348594E1;-3.136000037E-1;-3.124199867E0;-2.851999998E-1
1.275333750E1;-2.267999947E-1;-2.357300043E0;-1.422699928E0
1.277319063E1;5.609999970E-2;-1.467299938E0;-2.005699873E0
1.279304375E1;1.541000009E-1;-6.541000009E-1;-2.585599899E0
1.281289688E1;-1.516000032E-1;-1.427000016E-1;-3.195299864E0
1.283274844E1;8.169999719E-2;4.388999939E-1;-2.706099987E0
1.285260156E1;2.618999958E0;9.998999834E-1;4.620999992E-1
1.287245781E1;6.444499969E0;2.586199999E0;2.554999888E-1
1.289230625E1;1.427799940E0;2.335399866E0;-4.227299690E0
1.291215938E1;-9.625999928E-1;3.745599985E0;-6.181599617E0
1.293201250E1;4.730999768E-1;1.002900004E0;5.512999892E-1
1.295186562E1;2.754899979E0;-8.709999919E-1;3.407999992E0
1.297171719E1;5.133699894E0;1.485599995E0;5.874199867E0
1.299157031E1;6.092599869E0;4.565700054E0;3.849399805E0
1.301142812E1;2.143399954E0;3.393100023E0;2.844499826E0
1.303127500E1;1.804999948E0;2.575999975E0;1.819499969E0
1.305112812E1;9.993999600E-1;1.837899923E0;2.124399900E0
1.307098125E1;2.775999904E-1;1.143299937E0;1.859099984E0
1.309083281E1;-7.362999916E-1;-3.152999878E-1;1.212399960E0
1.311068594E1;-1.142699957E0;-2.240099907E0;9.093999863E-1
1.313053750E1;-9.412999749E-1;-3.594299793E0;7.410999537E-1
1.315039062E1;-1.052600026E0;-4.131499767E0;7.955999970E-1
1.317024375E1;-1.019600034E0;-4.145499706E0;5.152999759E-1
1.319009688E1;-1.274299979E0;-3.482599974E0;3.246999979E-1
1.320995000E1;-1.782400012E0;-2.587499857E0;4.535999894E-1
1.322980156E1;-2.114199877E0;-1.500100017E0;6.369999796E-2
1.324965469E1;-2.569399834E0;-9.888999462E-1;-1.044600010E0
1.326950625E1;-3.241099834E0;-1.105499983E0;-1.498499990E0
1.328935938E1;-2.503299952E0;-3.224000037E-1;-1.974699974E0
1.330921406E1;-1.079699993E0;2.322999984E-1;-2.452399969E0
1.332906562E1;-6.934999824E-1;5.710999966E-1;-2.575299978E0
1.334891875E1;4.314000010E-1;1.164600015E0;-1.143800020E0
1.336877500E1;3.528899908E0;3.216199875E0;7.348999977E-1
1.338862344E1;8.848999739E-1;3.862699986E0;-4.869000018E-1
1.340847656E1;-1.278999925E0;3.783399820E0;-3.737099886E0
1.342832812E1;1.868899941E0;4.774099827E0;-5.077499866E0
1.344818125E1;3.140699863E0;2.321399927E0;1.394400001E0
1.346803438E1;3.454499960E0;-6.289999932E-2;7.781199932E0
1.348788594E1;2.092000008E0;-5.699999928E-1;1.912899971E0
1.350773906E1;5.557999611E-1;5.699999928E-1;4.273499966E0
1.352759219E1;1.988899946E0;8.736999631E-1;3.810599804E0
1.354744531E1;3.082099915E0;8.350999951E-1;2.093199968E0
1.356729688E1;3.535599947E0;-8.859999478E-2;3.332999945E-1
1.358715000E1;2.149399996E0;-1.066499949E0;8.469999582E-2
1.360700156E1;8.001999855E-1;-1.275699973E0;1.399999950E-3
1.362685469E1;-9.725999832E-1;-2.079900026E0;3.009999916E-2
1.364670781E1;-2.372499943E0;-2.906100035E0;3.962999880E-1
1.366655938E1;-3.427099943E0;-3.448499918E0;2.937999964E-1
1.368641250E1;-3.804799795E0;-3.805299997E0;2.472999990E-1
1.370626562E1;-2.790400028E0;-3.061699867E0;7.199999876E-3
1.372611719E1;-1.364199996E0;-2.160399914E0;-8.470000029E-1
1.374597188E1;-3.344999850E-1;-2.160599947E0;-7.766000032E-1
1.376582344E1;1.068099976E0;-2.151999950E0;-1.065400004E0
1.378567656E1;1.520900011E0;-1.630499959E0;-1.592199922E0
1.380552812E1;1.939999871E-2;-1.308599949E0;-2.197700024E0
1.382538125E1;-9.639999866E-1;-5.575000048E-1;-2.289499998E0
1.384523438E1;-8.938999772E-1;2.356999964E-1;-1.345499992E0
1.386508906E1;1.453400016E0;1.554399967E0;1.952999979E-1
1.388493906E1;6.422499657E0;2.940099955E0;-4.474999905E-1
1.390479062E1;3.680999994E0;1.908699989E0;-3.776999950E0
1.392464375E1;5.990999937E-1;3.631699800E0;-6.802399635E0
1.394449688E1;1.229300022E0;3.410499811E0;3.998000026E-1
1.396435000E1;4.050099850E0;6.408999562E-1;2.131199837E0
1.398420312E1;4.532000065E0;2.096000016E-1;4.441800117E0
1.400405469E1;2.899699926E0;1.354399920E0;3.869699955E0
1.402390781E1;4.897999763E-1;2.497999907E0;3.413999796E0
1.404375938E1;-1.416800022E0;3.130699873E0;1.933799982E0
1.406361406E1;-3.048300028E0;2.316200018E0;2.085299969E0
1.408346562E1;-2.618700027E0;9.027999640E-1;1.663299918E0
1.410331875E1;-1.137899995E0;-6.743999720E-1;1.752900004E0
1.412317031E1;1.113600016E0;-1.926099896E0;5.392000079E-1
1.414302344E1;5.040000081E-1;-4.083699703E0;-2.335999906E-1
1.416287656E1;-8.224999905E-1;-4.552599907E0;1.586000025E-1
1.418272812E1;-1.445400000E0;-3.878799915E0;1.084999964E-1
1.420258125E1;-1.815499902E0;-2.863499880E0;-8.489999920E-2
1.422243438E1;-1.930899978E0;-1.783299923E0;-4.961999953E-1
1.424228594E1;-1.908899903E0;-9.405999780E-1;-6.115999818E-1
1.426213906E1;-1.933799982E0;-6.979999691E-2;-7.250999808E-1
1.428199219E1;-1.383399963E0;5.777999759E-1;-1.236599922E0
1.430184531E1;-2.791999876E-1;1.172199965E0;-1.794199944E0
1.432169688E1;5.884000063E-1;6.915000081E-1;-1.956299901E0
1.434155000E1;2.062099934E0;7.286999822E-1;-2.006299973E0
1.436140781E1;2.402899981E0;2.165400028E0;-1.881999969E-1
1.438125469E1;8.432999849E-1;4.564599991E0;-1.167699933E0
1.440110781E1;-2.292599916E0;5.986399651E0;-1.157599926E0
1.442096094E1;-3.373099804E0;4.712599754E0;-3.481499910E0
1.444081250E1;1.350099921E0;3.228299856E0;-3.065699816E0
1.446066562E1;2.074300051E0;-2.499999944E-3;1.949399948E0
1.448051875E1;1.037299991E0;-1.437699914E0;3.309899807E0
1.450037188E1;9.914000034E-1;-5.163999796E-1;4.085899830E0
1.452022344E1;1.969099998E0;8.546999693E-1;4.216399670E0
1.454007500E1;3.560799837E0;1.928699970E0;4.539499760E0
1.455992969E1;4.358299732E0;1.141600013E0;3.494799852E0
1.457978125E1;2.872699976E0;-5.722999573E-1;1.281299949E0
1.459963438E1;1.515299916E0;-1.821999907E0;3.129999936E-1
1.461948750E1;-1.049999967E-1;-2.607300043E0;2.368000001E-1
1.463933906E1;-1.715299964E0;-3.422499895E0;-1.003799915E0
1.465919219E1;-2.774499893E0;-3.790099859E0;-1.614499927E0
1.467904531E1;-3.240099907E0;-3.726699829E0;-1.536000013E0
1.469889844E1;-2.897799969E0;-3.334599972E0;-9.887999892E-1
1.471875000E1;-1.146799922E0;-2.905200005E0;-1.182399988E0
1.473860313E1;6.333999634E-1;-2.583299875E0;-1.270399928E0
1.475845469E1;1.353999972E0;-2.609400034E0;-1.196299911E0
1.477830781E1;9.553999901E-1;-2.331899881E0;-1.141499996E0
1.479816094E1;4.434999824E-1;-1.395900011E0;-1.616699934E0
1.481801250E1;-1.169999987E-1;-6.665999889E-1;-1.551199913E0
1.483786563E1;-4.860999882E-1;4.044999778E-1;-1.011699915E0
1.485771875E1;1.991999894E-1;7.337999940E-1;-1.585500002E0
1.487757031E1;3.280200005E0;2.596099854E0;-9.713999629E-1
1.489742500E1;5.734200001E0;3.855599880E0;-1.688599944E0
1.491727656E1;2.208899975E0;3.916799784E0;-4.219999790E0
1.493712969E1;-1.440299988E0;3.201699972E0;-4.182600021E0
1.495698125E1;1.116599917E0;1.114599943E0;-8.335999846E-1
1.497683594E1;4.632599831E0;-4.336999953E-1;5.164700031E0
1.499668750E1;5.804199696E0;-2.796999812E-1;7.518999577E0
1.501653906E1;2.727999926E0;7.698000073E-1;4.346600056E0
1.503639219E1;3.504999876E-1;2.049499989E0;2.379600048E0
1.505624531E1;-7.269999981E-1;2.524499893E0;1.507099986E0
1.507609688E1;-1.072499990E0;2.375799894E0;1.273999929E0
1.509595000E1;-1.767199993E0;1.014500022E0;4.560999870E-1
1.511582969E1;-2.273000002E0;-6.791999936E-1;-1.046999991E-1
1.513565625E1;-2.158900023E0;-2.385699987E0;-4.833000004E-1
1.515550781E1;-1.745000005E0;-3.816299915E0;2.057999969E-1
1.517536094E1;-1.908299923E0;-4.214499950E0;6.822999716E-1
1.519521406E1;-2.159699917E0;-3.449899912E0;6.211999655E-1
1.521506563E1;-1.997199893E0;-1.689999938E0;5.805999637E-1
1.523491875E1;-1.796599984E0;-8.705999851E-1;-3.172000051E-1
1.525477188E1;-1.623999953E0;-6.574000120E-1;-1.471899986E0
1.527462344E1;-1.158100009E0;-5.126000047E-1;-2.133599997E0
1.529447656E1;-1.562999934E-1;3.604999781E-1;-2.137300014E0
1.531432969E1;5.734999776E-1;6.657999754E-1;-2.426499844E0
1.533418125E1;1.015699983E0;1.568000019E-1;-2.313400030E0
1.535404063E1;2.210299969E0;7.548999786E-1;-8.782999516E-1
1.537388750E1;2.952299833E0;2.415899992E0;1.406399965E0
1.539373906E1;-2.080000006E-2;4.337100029E0;-1.031700015E0
1.541359688E1;-1.321200013E0;4.756199837E0;-3.122999907E0
1.543344531E1;1.949999928E-1;5.115499973E0;-3.871500015E0
1.545329844E1;1.737499952E0;2.672799826E0;2.316000015E-1
1.547315000E1;1.364199996E0;-2.999999851E-4;2.491499901E0
1.549300313E1;1.284500003E0;-4.914999902E-1;4.069099903E0
1.551285625E1;8.528999686E-1;-3.109999895E-1;5.076299667E0
1.553270781E1;1.583099961E0;8.284999728E-1;4.291999817E0
1.555256094E1;3.073099852E0;1.790799975E0;2.881799936E0
1.557241406E1;3.804499865E0;1.167899966E0;1.224200010E0
1.559226719E1;1.821900010E0;-1.455999911E-1;6.000000052E-3
1.561211875E1;1.396999955E-1;-1.379199982E0;1.875000000E-1
1.563197188E1;-1.529099941E0;-2.472899914E0;4.229999781E-1
1.565182344E1;-2.788100004E0;-3.211299896E0;6.268000007E-1
1.567167656E1;-3.582700014E0;-3.550899982E0;2.901999950E-1
1.569152969E1;-3.746500015E0;-3.674000025E0;-2.041999996E-1
1.571138281E1;-2.920199871E0;-3.112200022E0;-3.396999836E-1
1.573123438E1;-1.681199908E0;-2.963999987E0;-8.479999751E-2
1.575108750E1;3.780999780E-1;-3.104499817E0;-3.188000023E-1
1.577093906E1;2.295399904E0;-2.670699835E0;-9.932000041E-1
1.579079375E1;1.395299911E0;-2.462100029E0;-1.396199942E0
1.581064531E1;5.370000005E-1;-1.064399958E0;-2.104300022E0
1.583050000E1;4.245999753E-1;-1.075999960E-1;-2.351899862E0
1.585035156E1;1.254999936E-1;4.037999809E-1;-1.916499972E0
1.587020313E1;7.518000007E-1;1.791199923E0;-8.472999930E-1
1.589005625E1;4.296199799E0;3.704799891E0;-6.722999811E-1
1.590990938E1;4.100399971E0;2.846499920E0;-3.738999844E0
1.592976094E1;1.472599983E0;4.380000114E0;-6.814699650E0
1.594961406E1;1.682399988E0;4.801899910E0;-1.731799960E0
1.596946719E1;2.447399855E0;1.047600031E0;1.281000018E0
1.598931875E1;2.388599873E0;-6.498000026E-1;4.296799660E0
1.600917344E1;1.430400014E0;-1.582399964E0;5.473199844E0
1.602902500E1;8.133999705E-1;1.100299954E0;5.250099659E0
1.604887812E1;-1.136000007E-1;3.316599846E0;4.253299713E0
1.606872969E1;7.393999696E-1;2.631899834E0;2.348500013E0
1.608858281E1;1.029899955E0;1.074999928E0;1.126899958E0
1.610843594E1;5.367000103E-1;-5.943999887E-1;3.238999844E-1
1.612828750E1;-5.853999853E-1;-2.309299946E0;3.474999964E-1
1.614814062E1;-1.028399944E0;-3.735299826E0;9.420999885E-1
1.616799375E1;-1.198699951E0;-3.978599787E0;9.580000043E-1
1.618784531E1;-1.156599998E0;-3.580899954E0;6.602999568E-1
1.620769844E1;-1.212299943E0;-2.467000008E0;2.663999796E-1
1.622755156E1;-1.425300002E0;-1.322600007E0;-1.635999978E-1
1.624740312E1;-1.837399960E0;-8.617999554E-1;-6.460999846E-1
1.626725625E1;-1.862699986E0;-7.700999975E-1;-1.120299935E0
1.628710938E1;-1.246799946E0;2.139999904E-2;-9.962999821E-1
1.630696094E1;-7.148000002E-1;5.792999864E-1;-1.393700004E0
1.632681406E1;-6.603999734E-1;6.654999852E-1;-2.386600018E0
1.634666719E1;2.726999819E-1;6.463999748E-1;-2.433199883E0
1.636651875E1;1.559899926E0;1.138299942E0;-9.552999735E-1
1.638637188E1;1.141299963E0;2.731199980E0;-1.449999958E-1
1.640622500E1;-4.457999766E-1;4.615399837E0;-1.146299958E0
1.642607656E1;-8.593999743E-1;5.630499840E0;-2.845999956E0
1.644592969E1;-5.975999832E-1;5.543399811E0;-4.159599781E0
1.646578594E1;1.033499956E0;3.416399956E0;-3.885999918E-1
1.648563438E1;8.799999952E-1;2.322999984E-1;3.070899963E0
1.650548750E1;4.630700111E0;-1.869599938E0;5.332900047E0
1.652534063E1;5.131999850E-1;-2.463599920E0;4.834700108E0
1.654519219E1;1.171199918E0;-3.499999875E-3;4.258399963E0
1.656504531E1;2.868899822E0;1.273100019E0;2.828999996E0
1.658489844E1;3.099099874E0;8.714999557E-1;1.291199923E0
1.660475156E1;1.335999966E0;-5.374999642E-1;1.337000012E0
1.662460312E1;-1.010999978E-1;-1.546399951E0;2.827999890E-1
1.664445625E1;-1.628899932E0;-2.166599989E0;4.459999874E-2
1.666430938E1;-2.706899881E0;-2.421299934E0;2.045999914E-1
1.668416094E1;-3.560499907E0;-2.586400032E0;2.048999965E-1
1.670401406E1;-3.903800011E0;-3.047199965E0;-1.855999976E-1
1.672386719E1;-2.674499989E0;-2.764199972E0;-1.162899971E0
1.674371875E1;-1.495000005E0;-2.867399931E0;-1.614599943E0
1.676357188E1;5.288999677E-1;-3.123800039E0;-6.582999825E-1
1.678342500E1;2.855799913E0;-2.915799856E0;4.158999920E-1
1.680327813E1;1.497999907E0;-2.206899881E0;-8.008999825E-1
1.682312969E1;2.072999924E-1;-2.939999998E-1;-1.593699932E0
1.684298281E1;-7.779999822E-2;7.436000109E-1;-2.128799915E0
1.686283594E1;-1.773999929E-1;6.448000073E-1;-2.721899986E0
1.688268750E1;7.477999926E-1;2.039599895E0;-1.844900012E0
1.690254062E1;3.244899988E0;3.428399801E0;-1.097599983E0
1.692239375E1;3.818300009E0;3.275799990E0;-1.964199901E0
1.694224688E1;1.257900000E0;3.798099995E0;-4.396199703E0
1.696209844E1;-6.750000119E-1;5.073100090E0;-4.501100063E0
1.698195156E1;4.829999804E-1;3.002399921E0;-6.992999911E-1
1.700180469E1;2.458799839E0;-2.036999911E-1;2.085899830E0
1.702165938E1;3.813499928E0;-1.164199948E0;5.717000008E0
1.704150938E1;2.598599911E0;-6.554999948E-1;5.696199894E0
1.706136250E1;-2.590999901E-1;3.298999965E-1;3.665599823E0
1.708121406E1;-1.275099993E0;1.441100001E0;3.427799940E0
1.710106719E1;-1.173200011E0;8.728999496E-1;2.931599855E0
1.712092031E1;-6.358000040E-1;-4.802999794E-1;1.273000002E0
1.714077344E1;-5.654000044E-1;-1.145299911E0;7.419999689E-2
1.716062500E1;-6.042999625E-1;-2.297799826E0;-9.312999845E-1
1.718047812E1;-8.536999822E-1;-3.291800022E0;-3.242000043E-1
1.720033125E1;-8.925999999E-1;-3.704899788E0;-4.366999865E-1
1.722018281E1;-5.661999583E-1;-3.516599894E0;-7.583000064E-1
1.724003594E1;-8.102999926E-1;-2.363600016E0;-2.322999984E-1
1.725988906E1;-9.167000055E-1;-8.515999913E-1;-2.759000063E-1
1.727974063E1;-1.483299971E0;5.788999796E-1;5.409999937E-2
1.729959375E1;-1.890299916E0;1.332599998E0;-7.088999748E-1
1.731944688E1;-1.686699986E0;2.015499830E0;-1.020799994E0
1.733929844E1;-1.519899964E0;1.779599905E0;-2.094300032E0
1.735915000E1;-4.838999808E-1;9.652999640E-1;-3.203199863E0
1.737900312E1;5.831999779E-1;8.289999962E-1;-2.724699974E0
1.739885781E1;1.955899954E0;2.180399895E0;-4.148999751E-1
1.741870938E1;-8.029999584E-2;4.065000057E0;-4.994999766E-1
1.743856719E1;-1.139999986E0;4.949699879E0;-1.331499934E0
1.745841406E1;-2.052700043E0;4.404599667E0;-2.791599989E0
1.747826719E1;-1.171399951E0;2.721799850E0;-1.159999967E0
1.749811875E1;-5.449999571E-1;9.486999512E-1;9.738999605E-1
1.751797188E1;5.461299896E0;1.182999969E0;3.582299948E0
1.753782500E1;4.560400009E0;-5.214999914E-1;5.018799782E0
1.755767813E1;2.966799974E0;-6.304999590E-1;5.620100021E0
1.757752969E1;4.628600121E0;-3.569999933E-1;6.286299706E0
1.759738281E1;3.872299910E0;-9.498999715E-1;3.073699951E0
1.761723594E1;1.896999955E0;-1.147400022E0;3.113999963E-1
1.763708750E1;6.920000166E-2;-2.045799971E0;-1.241999939E-1
1.765694062E1;-1.629699945E0;-2.686100006E0;-2.863000035E-1
1.767679375E1;-3.199599981E0;-2.971499920E0;-8.709999919E-2
1.769664688E1;-4.540400028E0;-3.202999830E0;-1.416099906E0
1.771649844E1;-4.807499886E0;-3.118499994E0;-2.049099922E0
1.773635156E1;-3.415899992E0;-2.540999889E0;-1.600699902E0
1.775620469E1;-1.501099944E0;-2.698499918E0;-1.115700006E0
1.777605625E1;1.384899974E0;-2.745800018E0;4.950999916E-1
1.779590938E1;2.333600044E0;-3.134899855E0;-5.904999971E-1
1.781576250E1;8.879999518E-1;-2.267099857E0;-1.628600001E0
1.783562031E1;2.829999924E-1;-6.635999680E-1;-2.384099960E0
1.785546719E1;2.245000005E-1;5.396000147E-1;-2.649099827E0
1.787532031E1;4.481999874E-1;1.818499923E0;-1.716599941E0
1.789517188E1;1.430799961E0;2.673699856E0;-5.639999732E-2
1.791502500E1;3.922199965E0;3.178099871E0;-6.969999671E-1
1.793487812E1;2.854799986E0;2.770799875E0;-3.452499866E0
1.795473125E1;8.003000021E-1;4.092099667E0;-6.949999809E0
1.797458281E1;9.699999690E-1;4.764999866E0;-3.321699858E0
1.799443594E1;2.891999960E0;5.927000046E-1;3.048999906E-1
1.801428906E1;4.326900005E0;-1.132200003E0;4.295300007E0
1.803414063E1;3.875999928E0;-1.831099987E0;5.323299885E0
1.805399375E1;2.790400028E0;-9.663999677E-1;4.586800098E0
1.807384688E1;1.112399936E0;4.872999787E-1;3.452299833E0
1.809370000E1;5.830000043E-1;1.437600017E0;3.136999846E0
1.811355156E1;1.740999967E-1;8.452000022E-1;3.158399820E0
1.813340469E1;-3.858999908E-1;-3.680000082E-2;1.812899947E0
1.815325781E1;-1.555299997E0;-8.150999546E-1;5.830999613E-1
1.817310938E1;-1.957899928E0;-2.110100031E0;-6.541999578E-1
1.819296250E1;-5.148000121E-1;-3.044899940E0;-1.004599929E0
1.821281562E1;6.388999820E-1;-3.606599808E0;-8.379999548E-2
1.823266719E1;1.092999950E-1;-3.539899826E0;-1.218999997E-1
1.825252031E1;-6.617999673E-1;-3.033599854E0;-2.090999931E-1
1.827237344E1;-1.466899991E0;-1.906999946E0;-3.384999931E-1
1.829222500E1;-2.034299850E0;-7.138999701E-1;-5.909999609E-1
1.831207813E1;-2.027199984E0;1.902999878E-1;-1.028999925E0
1.833192969E1;-2.271600008E0;5.959999561E-1;-1.557299972E0
1.835178281E1;-2.313699961E0;7.476999760E-1;-2.326900005E0
1.837163438E1;-1.439399958E0;6.093999743E-1;-3.201999903E0
1.839148906E1;2.080000006E-2;7.030000091E-1;-3.284600019E0
1.841134219E1;1.275399923E0;1.727199912E0;-1.889999986E0
1.843119531E1;3.150799990E0;3.586199999E0;-1.000999957E-1
1.845104688E1;2.574000061E-1;4.978600025E0;-7.698000073E-1
1.847090000E1;-4.849999771E-2;5.363100052E0;-3.380299807E0
1.849075469E1;1.636699915E0;3.662599802E0;-1.944499969E0
1.851061094E1;2.856600046E0;3.676999807E-1;8.711999655E-1
1.853045781E1;2.601500034E0;-1.419299960E0;3.105199814E0
1.855031094E1;1.944000006E0;-1.423799992E0;3.430599928E0
1.857016562E1;1.903899908E0;-8.276999593E-1;5.409699917E0
1.859001562E1;3.587899923E0;-2.229999900E-1;6.845799923E0
1.860986875E1;3.498899937E0;3.289999962E-1;2.519099951E0
1.862972031E1;2.191299915E0;5.363999605E-1;-5.472999811E-1
1.864957344E1;4.618999958E-1;-2.193999887E-1;-6.398000121E-1
1.866942656E1;-1.373099923E0;-1.054700017E0;-1.002499938E0
1.868927969E1;-3.388899803E0;-2.459899902E0;-1.157999992E0
1.870913125E1;-3.853699923E0;-3.347699881E0;-1.666700006E0
1.872898438E1;-2.660699844E0;-3.497099876E0;-1.342100024E0
1.874883594E1;-1.392899990E0;-3.497499943E0;-2.331999987E-1
1.876868906E1;-2.280000001E-1;-3.621699810E0;7.439999580E-1
1.878854062E1;-5.539999902E-2;-3.721499920E0;-5.846999884E-1
1.880839531E1;4.919999838E-2;-3.459999800E0;-1.230099916E0
1.882824688E1;5.317000151E-1;-2.279399872E0;-1.744899988E0
1.884809844E1;8.872999549E-1;-3.635999858E-1;-2.524899960E0
1.886795312E1;2.648999989E-1;3.238999844E-1;-3.457099915E0
1.888780469E1;2.163999975E-1;1.365399957E0;-2.587699890E0
1.890765625E1;1.818699956E0;2.357300043E0;-6.929999590E-2
1.892750938E1;6.182899952E0;3.438199997E0;-8.713999987E-1
1.894736250E1;3.652799845E0;3.058099985E0;-3.570400000E0
1.896721562E1;4.429999888E-1;4.053400040E0;-7.240699768E0
1.898706875E1;1.232100010E0;3.376399994E0;-1.862499952E0
1.900692031E1;2.792999983E0;-1.062299967E0;1.718499899E0
1.902677344E1;3.852399826E0;-1.996799946E0;5.248399734E0
1.904662500E1;3.470299959E0;-1.692000031E-1;5.857500076E0
1.906647812E1;5.482999682E-1;1.163699985E0;3.733199835E0
1.908633125E1;-2.797999978E-1;2.339200020E0;1.896600008E0
1.910618438E1;2.603999972E-1;2.878199816E0;2.853699923E0
1.912603594E1;5.710999966E-1;1.589399934E0;2.856299877E0
1.914588906E1;-5.638999939E-1;-3.948999941E-1;9.366999865E-1
1.916574219E1;-9.738999605E-1;-1.995299935E0;1.855999976E-1
1.918559375E1;-6.962999701E-1;-3.082599878E0;-2.022999972E-1
1.920544688E1;-2.906999886E-1;-3.744199991E0;-5.692999959E-1
1.922530000E1;1.492999941E-1;-4.042799950E0;-6.521999836E-1
1.924515312E1;-3.283999860E-1;-4.007299900E0;-6.478999853E-1
1.926500469E1;-1.655399919E0;-3.140300035E0;-1.547999978E-1
1.928485781E1;-2.492799997E0;-1.587899923E0;-1.798999906E-1
1.930471094E1;-2.816599846E0;-5.088999867E-1;-5.953999758E-1
1.932456875E1;-3.114300013E0;6.739999652E-1;-7.699999809E-1
1.934441562E1;-3.462999821E0;1.373399973E0;-1.204100013E0
1.936426875E1;-2.847599983E0;1.325699925E0;-2.664700031E0
1.938412031E1;-1.265900016E0;8.731999993E-1;-3.576399803E0
1.940397344E1;2.226999998E-1;1.303799987E0;-1.249300003E0
1.942382656E1;5.928799629E0;3.221199989E0;1.746500015E0
1.944367969E1;1.796000004E0;4.463799953E0;-4.255999923E-1
1.946353125E1;-1.029299974E0;4.895999908E0;-3.159299850E0
1.948338438E1;-1.441100001E0;4.779500008E0;-3.774399996E0
1.950323750E1;-5.999999866E-2;1.834199905E0;-1.763199925E0
1.952308906E1;4.137899876E0;-2.735999823E-1;2.422499895E0
1.954294844E1;2.362900019E0;-1.347499967E0;4.691899776E0
1.956279531E1;5.374000072E-1;-4.524999857E-1;5.321499825E0
1.958265000E1;1.680400014E0;4.496999979E-1;6.030200005E0
1.960250000E1;3.841799974E0;1.136299968E0;4.391099930E0
1.962235312E1;3.829899788E0;1.365399957E0;4.831999838E-1
1.964220469E1;2.007200003E0;1.212000012E0;-1.112699986E0
1.966205781E1;-2.838999927E-1;-1.049399972E0;-1.871699929E0
1.968191094E1;-2.004099846E0;-2.252599955E0;-1.499199986E0
1.970176250E1;-2.566999912E0;-2.748899937E0;-4.183000028E-1
1.972161563E1;-2.337899923E0;-2.919699907E0;7.152000070E-1
1.974146875E1;-2.279599905E0;-3.244400024E0;1.207099915E0
1.976132188E1;-1.863099933E0;-3.288100004E0;1.076099992E0
1.978117344E1;-1.390599966E0;-3.215099812E0;2.120999992E-1
1.980102500E1;-7.078999877E-1;-3.210099936E0;-8.569999933E-1
1.982087969E1;1.599999890E-2;-3.019899845E0;-1.835199952E0
1.984073281E1;-1.315999925E-1;-2.104799986E0;-2.433699846E0
1.986058438E1;-5.735999942E-1;-6.306999922E-1;-3.303399801E0
1.988043750E1;-3.912999928E-1;2.513999939E-1;-2.628199816E0
1.990029062E1;7.234999537E-1;1.009599924E0;-1.865599990E0
1.992014219E1;2.414199829E0;1.783299923E0;-8.955000043E-1
1.993999531E1;4.495899677E0;3.213099957E0;-7.770000100E-1
1.995984688E1;2.629899979E0;3.177899837E0;-4.178699970E0
1.997970000E1;2.119999938E-2;4.339499950E0;-6.999599934E0
1.999955313E1;-3.254999816E-1;5.398200035E0;-2.514299870E0
2.001940625E1;2.355799913E0;6.200000048E-1;1.013100028E0
2.003925938E1;4.045499802E0;-2.067999840E0;5.180999756E0
2.005911562E1;2.793099880E0;-1.717199922E0;4.941899776E0
2.007896406E1;1.066699982E0;-1.614999920E-1;3.351599932E0
2.009881562E1;1.092000008E0;1.848199964E0;2.125900030E0
2.011866875E1;1.421199918E0;1.772399902E0;1.974099994E0
2.013852188E1;1.100999951E0;8.995999694E-1;2.303699970E0
2.015837344E1;1.169999968E-2;2.164999992E-1;2.282199860E0
2.017822656E1;-1.504199982E0;-8.666999936E-1;7.329999804E-1
2.019807969E1;-1.697999954E0;-2.223399878E0;6.584999561E-1
2.021793281E1;-1.724699974E0;-2.895699978E0;1.863999963E-1
2.023778438E1;-1.643700004E0;-3.193899870E0;4.240999818E-1
2.025763750E1;-1.301499963E0;-2.919299841E0;6.617999673E-1
2.027748906E1;-1.431599975E0;-2.182100058E0;5.701000094E-1
2.029734219E1;-2.033400059E0;-1.421100020E0;-4.818999767E-1
2.031719844E1;-2.685099840E0;-7.936999798E-1;-1.441200018E0
2.033704688E1;-2.738999844E0;-2.445999980E-1;-2.452600002E0
2.035690000E1;-2.360899925E0;6.894999743E-1;-2.126999855E0
2.037675312E1;-1.009599924E0;1.073099971E0;-2.517400026E0
2.039660469E1;8.669999987E-2;1.086300015E0;-2.636999846E0
2.041645781E1;2.869299889E0;1.272300005E0;-1.656199932E0
2.043631094E1;4.718100071E0;2.605399847E0;3.190999925E-1
2.045616406E1;6.823999882E-1;4.942100048E0;-1.213400006E0
2.047601563E1;-1.127599955E0;5.936899662E0;-2.105399847E0
2.049587188E1;-3.485699892E0;4.412600040E0;-2.599599838E0
2.051572188E1;-2.169800043E0;1.453999996E0;-1.572199941E0
2.053557344E1;-1.208599925E0;1.625999957E-1;7.409999967E-1
2.055543281E1;6.044499874E0;1.787499905E0;4.437900066E0
2.057527969E1;6.979899883E0;5.467999578E-1;7.031899929E0
2.059513281E1;4.595599651E0;7.493999600E-1;5.847499847E0
2.061498438E1;3.435699940E0;2.992999852E-1;4.190700054E0
2.063483750E1;2.492799997E0;-6.550999880E-1;1.271700025E0
2.065469062E1;9.679999948E-1;-1.502099991E0;-1.006799936E0
2.067454219E1;-7.602999806E-1;-1.780599952E0;-1.373999953E0
2.069439531E1;-2.520200014E0;-2.161999941E0;-4.052000046E-1
2.071424844E1;-4.473199844E0;-2.972399950E0;8.089999855E-2
2.073410000E1;-5.403399944E0;-3.843299866E0;-1.171100020E0
2.075395313E1;-3.800299883E0;-3.885900021E0;-1.567099929E0
2.077380625E1;-2.372200012E0;-4.004600048E0;-1.008499980E0
2.079365938E1;2.149999887E-1;-3.767799854E0;4.652999938E-1
2.081351094E1;3.113099813E0;-2.900300026E0;4.948000014E-1
2.083336406E1;4.658999741E-1;-2.677000046E0;-1.147699952E0
2.085321562E1;1.279999968E-2;-9.628999829E-1;-1.736299992E0
2.087306875E1;1.542999893E-1;1.061999947E-1;-1.893799901E0
2.089292031E1;1.253600001E0;1.187199950E0;-2.357499838E0
2.091277500E1;2.670199871E0;1.771799922E0;-1.974699974E0
2.093262656E1;4.747600079E0;3.135799885E0;-1.406199932E0
2.095247969E1;2.954799891E0;2.670899868E0;-2.675499916E0
2.097233281E1;6.250000000E-2;3.931799889E0;-5.532700062E0
2.099218594E1;-1.100999936E-1;4.183099747E0;-3.782699823E0
2.101203750E1;2.716199875E0;2.752999961E-1;8.105999827E-1
2.103189063E1;5.304399967E0;-2.098299980E0;4.348599911E0
2.105174375E1;4.631199837E0;-1.072099924E0;5.474999905E0
2.107159531E1;2.009000063E0;9.889999628E-1;4.447599888E0
2.109144688E1;1.087399960E0;2.553499937E0;2.871099949E0
2.111130156E1;8.756999969E-1;1.577700019E0;2.654899836E0
2.113115312E1;1.174399972E0;7.684999704E-1;2.135200024E0
2.115100625E1;-1.296000034E-1;-6.541999578E-1;1.035899997E0
2.117086094E1;-7.870999575E-1;-1.911199927E0;3.161000013E-1
2.119071250E1;-6.387000084E-1;-3.073899984E0;8.027999997E-1
2.121056406E1;-1.329999976E-2;-3.188400030E0;8.876000047E-1
2.123041719E1;1.167999953E-1;-2.548599958E0;3.164999783E-1
2.125027031E1;-1.065699935E0;-1.623299956E0;6.872999668E-1
2.127012188E1;-2.175799847E0;-6.746000051E-1;3.018999994E-1
2.128997500E1;-2.920899868E0;-8.848999739E-1;-1.134099960E0
2.130982813E1;-4.424900055E0;-1.563799977E0;-1.610299945E0
2.132967969E1;-4.733900070E0;-1.840799928E0;-1.925999999E0
2.134953281E1;-2.396999836E0;-1.139999986E0;-2.023699999E0
2.136938594E1;-1.418000013E-1;1.458999962E-1;-3.044799805E0
2.138923906E1;1.352899909E0;2.210999876E-1;-2.457200050E0
2.140909531E1;2.700299978E0;4.834999740E-1;-8.766999841E-1
2.142894375E1;3.092499971E0;2.056599855E0;1.232699990E0
2.144879688E1;1.049799919E0;4.087699890E0;-6.956999898E-1
2.146864844E1;-1.609999873E-2;5.310499668E0;-2.797199965E0
2.148850000E1;-8.978999853E-1;4.177899837E0;-4.766699791E0
2.150835313E1;2.604999840E-1;3.617399931E0;-2.272199869E0
2.152820625E1;1.391899943E0;8.183000088E-1;8.398999572E-1
2.154805938E1;4.858099937E0;-7.696999907E-1;5.470499992E0
2.156791250E1;3.564399958E0;-1.615399957E0;4.110799789E0
2.158776406E1;3.646199942E0;-6.671999693E-1;5.847699642E0
2.160761719E1;4.035299778E0;2.514999807E-1;3.092599869E0
2.162746875E1;2.356099844E0;1.579699993E0;4.400999844E-1
2.164732188E1;2.223999947E-1;1.954299927E0;-6.049999595E-1
2.166717500E1;-1.416499972E0;1.026999950E-1;-9.734999537E-1
2.168702656E1;-2.493299961E0;-2.184000015E0;-1.117499948E0
2.170687969E1;-2.585399866E0;-3.704399824E0;-9.863999486E-1
2.172673281E1;-2.441900015E0;-4.846099854E0;-8.497999907E-1
2.174658594E1;-1.911799908E0;-4.925399780E0;-3.889999986E-1
2.176643750E1;-1.124099970E0;-4.180699825E0;-2.845000029E-1
2.178629063E1;-7.142999768E-1;-3.678099871E0;-2.027999908E-1
2.180614531E1;-7.455999851E-1;-3.249399900E0;3.299999982E-3
2.182599531E1;-1.230099916E0;-2.348399878E0;-4.319999814E-1
2.184584844E1;-7.698999643E-1;-7.725999951E-1;-9.294999838E-1
2.186570156E1;-7.499999832E-3;1.116899967E0;-1.123700023E0
2.188555312E1;-5.089999735E-2;1.636399984E0;-2.031800032E0
2.190540625E1;-7.329999655E-2;1.991199970E0;-4.010099888E0
2.192525938E1;9.330999851E-1;2.122799873E0;-1.606499910E0
2.194511250E1;4.562699795E0;4.110399723E0;1.169499993E0
2.196496406E1;2.183899879E0;3.736199856E0;-2.333400011E0
2.198481719E1;-4.973999858E-1;4.229000092E0;-6.449499607E0
2.200467031E1;-3.567999899E-1;4.211999893E0;-3.390599966E0
2.202452188E1;2.967599869E0;-1.149000004E-1;7.434999943E-1
2.204437500E1;3.343400002E0;-1.463199973E0;4.483200073E0
2.206422812E1;2.192100048E0;-8.654999733E-1;5.739099979E0
2.208407969E1;6.750000119E-1;5.749999881E-1;4.134399891E0
2.210393281E1;3.297999799E-1;1.219099998E0;3.706300020E0
2.212378594E1;1.397499919E0;1.147300005E0;2.200399876E0
2.214363906E1;1.266999960E0;4.113999903E-1;6.740999818E-1
2.216349062E1;3.312999904E-1;-2.198999971E-1;-3.050000072E-1
2.218334375E1;-6.130999923E-1;-1.710399985E0;-6.685999632E-1
2.220319688E1;-1.020799994E0;-2.898900032E0;-3.680999875E-1
2.222304844E1;-1.427099943E0;-3.306699991E0;4.749999940E-2
2.224290156E1;-1.401700020E0;-3.143800020E0;3.278000057E-1
2.226275469E1;-1.244099975E0;-2.470499992E0;1.429999918E-1
2.228260625E1;-1.638899922E0;-1.762799978E0;-2.203999907E-1
2.230245781E1;-2.447700024E0;-8.922999501E-1;-4.289000034E-1
2.232231250E1;-2.522699833E0;-2.917999923E-1;-1.288699985E0
2.234216562E1;-1.967299938E0;1.915999949E-1;-1.796399951E0
2.236201719E1;-7.077999711E-1;6.215999722E-1;-1.429399967E0
2.238187031E1;-2.309999987E-2;5.482000113E-1;-1.381999969E0
2.240172344E1;5.079999939E-2;2.000999898E-1;-1.209399939E0
2.242157500E1;1.285499930E0;1.486999989E0;-7.440999746E-1
2.244142812E1;1.077799916E0;3.340899944E0;-1.898000002E0
2.246128125E1;-1.352399945E0;6.095299721E0;-1.924699903E0
2.248113281E1;-2.187199831E0;7.438299656E0;-3.057600021E0
2.250098594E1;6.189999580E-1;6.044499874E0;-4.578199863E0
2.252083906E1;1.669799924E0;2.156299829E0;-5.110999942E-1
2.254069062E1;2.597199917E0;5.500999689E-1;2.419100046E0
2.256054375E1;3.465299845E0;-8.337000012E-1;4.441499710E0
2.258039688E1;4.657299995E0;-1.951099992E0;6.676399708E0
2.260024844E1;5.246599674E0;-1.818099976E0;5.878999710E0
2.262010156E1;1.422599912E0;-1.127900004E0;1.957599998E0
2.263995469E1;-7.037999630E-1;-2.016000003E-1;-7.501999736E-1
2.265980625E1;-2.207200050E0;-4.600999951E-1;-1.286599994E0
2.267965938E1;-2.997299910E0;-1.875999928E0;-1.720199943E0
2.269951094E1;-3.731799841E0;-2.839799881E0;-3.360999823E-1
2.271937188E1;-3.522399902E0;-3.134500027E0;1.340000033E-1
2.273921719E1;-2.748999834E0;-3.083199978E0;4.789999872E-2
2.275907031E1;-1.733699918E0;-2.846799850E0;-2.597000003E-1
2.277892188E1;-4.997999966E-1;-2.552999973E0;-3.044999838E-1
2.279877656E1;2.026999891E-1;-2.298399925E0;-4.979999959E-1
2.281862812E1;-2.201999873E-1;-1.576299906E0;-1.303399920E0
2.283847969E1;-9.139999747E-1;-2.789999843E-1;-2.038599968E0
2.285833281E1;-1.158599973E0;1.051999927E0;-2.108999968E0
2.287818594E1;-1.347000003E0;1.173300028E0;-2.558699846E0
2.289803906E1;-4.606999755E-1;1.242599964E0;-3.876099825E0
2.291789844E1;1.890899897E0;1.487699986E0;4.659999907E-1
2.293774375E1;3.942799807E0;3.079299927E0;6.798999906E-1
2.295759688E1;2.077199936E0;2.662899971E0;-2.832199812E0
2.297744844E1;-2.599000037E-1;3.646399975E0;-5.076699734E0
2.299730156E1;-8.020000160E-2;2.993399858E0;-1.499300003E0
2.301715469E1;2.435799837E0;-1.285099983E0;1.195400000E0
2.303700625E1;3.616400003E0;-4.553999901E-1;3.009699821E0
2.305685938E1;4.594799995E0;1.477599978E0;3.927599907E0
2.307671250E1;2.970099926E0;1.685999990E0;2.601300001E0
2.309656562E1;2.171999931E0;1.439599991E0;1.599499941E0
2.311641719E1;2.140199900E0;1.376199961E0;1.519299984E0
2.313627031E1;1.119599938E0;4.466999769E-1;1.001699924E0
2.315612344E1;2.280999869E-1;6.997999549E-1;1.030499935E0
2.317597500E1;-1.513599992E0;-6.301000118E-1;4.975999892E-1
2.319582813E1;-1.433699965E0;-2.714599848E0;1.098999977E-1
2.321568125E1;-8.528999686E-1;-4.092000008E0;1.744999886E-1
2.323553438E1;-2.639999986E-1;-3.960899830E0;4.546999931E-1
2.325538594E1;-1.153999925E0;-2.669199944E0;1.680299997E0
2.327523906E1;-2.107499838E0;-1.693699956E0;2.064800024E0
2.329509062E1;-3.292299986E0;-2.042099953E0;1.205500007E0
2.331494375E1;-3.423599958E0;-2.081199884E0;-8.007000089E-1
2.333482344E1;-3.255499840E0;-1.448799968E0;-2.798399925E0
2.335465000E1;-3.198299885E0;-8.967999816E-1;-2.050099850E0
2.337450156E1;-2.024499893E0;-1.616999954E-1;-1.373199940E0
2.339436250E1;-5.169000030E-1;7.516999841E-1;-1.407400012E0
2.341420781E1;1.956099987E0;2.417099953E0;-1.782799959E0
2.343406094E1;1.862599969E0;3.863299847E0;-1.486699939E0
2.345391250E1;-2.733999789E-1;4.889100075E0;-8.452000022E-1
2.347376563E1;-1.441900015E0;3.575299978E0;-2.161799908E0
2.349361875E1;6.306999922E-1;3.661899805E0;-2.569299936E0
2.351347031E1;4.135999978E-1;9.473999739E-1;-2.933000028E-1
2.353332500E1;1.900099993E0;2.566999793E-1;1.050499916E0
2.355317500E1;3.414999962E0;1.372599959E0;2.748600006E0
2.357302812E1;4.313999653E0;2.597599983E0;4.986899853E0
2.359288125E1;5.664299965E0;2.540999889E0;5.120500088E0
2.361273438E1;4.702099800E0;1.511199951E0;2.641599894E0
2.363258594E1;2.627499819E0;1.254899979E0;2.590000033E-1
2.365243906E1;-2.069000006E-1;-3.861999810E-1;2.592999935E-1
2.367229219E1;-2.281699896E0;-2.142400026E0;-4.633999765E-1
2.369214531E1;-3.529299974E0;-3.851999998E0;-9.465999603E-1
2.371199688E1;-2.950299978E0;-4.720399857E0;6.390000135E-2
2.373185000E1;-2.319200039E0;-4.800099850E0;7.299999595E-1
2.375170313E1;-1.757099986E0;-4.770299911E0;9.465999603E-1
2.377155469E1;-1.542699933E0;-3.910300016E0;8.348999619E-1
2.379142500E1;-9.781999588E-1;-3.366699934E0;-1.823999882E-1
2.381126094E1;-4.467999935E-1;-3.076200008E0;-1.173799992E0
2.383111406E1;-1.295000017E-1;-1.993499994E0;-1.446900010E0
2.385096562E1;-5.299000144E-1;-3.859999776E-1;-2.099499941E0
2.387081719E1;-5.134999752E-1;8.378999829E-1;-2.713899851E0
2.389067188E1;2.874999940E-1;1.258899927E0;-3.370699883E0
2.391052344E1;9.706999660E-1;1.831299901E0;-2.510399818E0
2.393037500E1;2.872699976E0;2.244899988E0;-2.114999890E-1
2.395022969E1;3.680699825E0;2.873800039E0;-9.334999919E-1
2.397008125E1;1.854599953E0;3.369199991E0;-3.668900013E0
2.398993281E1;-1.156999990E-1;2.902899981E0;-6.391200066E0
2.400978750E1;1.044999957E-1;2.233999968E0;-4.351299763E0
2.402963906E1;2.015599966E0;1.928000003E-1;1.679399967E0
2.404949062E1;3.526999950E0;-2.179600000E0;3.225899935E0
2.406934375E1;4.047500134E0;-7.264999747E-1;4.877599716E0
2.408919688E1;5.639299870E0;2.830600023E0;5.481400013E0
2.410905000E1;3.626199961E0;1.937599897E0;3.731400013E0
2.412890312E1;1.831200004E0;1.504699945E0;7.354999781E-1
2.414875469E1;1.481299996E0;1.918499947E0;2.777000070E-1
2.416860781E1;4.500999749E-1;1.030799985E0;9.932000041E-1
2.418845938E1;-1.634899974E0;-3.175999820E-1;1.395399928E0
2.420831250E1;-2.808599949E0;-1.983999968E0;7.135999799E-1
2.422816563E1;-3.050299883E0;-3.280799866E0;4.072999954E-1
2.424801875E1;-2.899199963E0;-4.349800110E0;6.509999931E-2
2.426787031E1;-1.569499969E0;-4.132199764E0;-1.447999924E-1
2.428772969E1;4.463999867E-1;-2.896899939E0;-1.811999977E-1
2.430757656E1;1.239999980E-1;-2.552299976E0;-1.502999961E-1
2.432742812E1;-7.515999675E-1;-1.922299981E0;4.326999784E-1
2.434728125E1;-1.465399981E0;-6.229999661E-1;6.396999955E-1
2.436713438E1;-1.970099926E0;5.460999608E-1;6.629999727E-2
2.438698594E1;-2.082999945E0;7.245000005E-1;-5.643999577E-1
2.440683906E1;-1.799699903E0;9.217999578E-1;-1.422199965E0
2.442669219E1;-1.263299942E0;1.459999919E0;-2.471699953E0
2.444654531E1;-3.900000080E-2;3.203999996E0;-2.338099957E0
2.446639688E1;4.351999760E-1;4.806399822E0;-2.946099997E0
2.448625000E1;6.466999650E-1;4.042500019E0;-3.203199863E0
2.450610313E1;9.257999659E-1;2.998600006E0;-4.231400013E0
2.452595469E1;1.616599917E0;3.390799999E0;-1.687600017E0
2.454580781E1;8.885999918E-1;1.300599933E0;7.738999724E-1
2.456568750E1;1.455500007E0;4.557999969E-1;1.863599896E0
2.458551250E1;2.197700024E0;2.101999968E-1;2.388599873E0
2.460536562E1;2.045599937E0;-3.281999826E-1;3.105899811E0
2.462521875E1;2.785499811E0;2.872000039E-1;4.283299923E0
2.464507031E1;3.003399849E0;5.166000128E-1;3.448899984E0
2.466492344E1;1.735099912E0;2.358999997E-1;1.936499953E0
2.468477500E1;6.803999543E-1;-8.175999522E-1;5.408999920E-1
2.470462969E1;-3.960999846E-1;-1.967899919E0;-3.842999935E-1
2.472448125E1;-1.614099979E0;-3.022799969E0;-9.375000000E-1
2.474433438E1;-2.575999975E0;-3.671999931E0;-9.528999925E-1
2.476418750E1;-3.052199841E0;-3.785099983E0;-6.680999994E-1
2.478403906E1;-3.238199949E0;-3.369999886E0;-3.818999827E-1
2.480389219E1;-2.628000021E0;-2.799099922E0;-4.731999934E-1
2.482374531E1;-1.406199932E0;-2.636299849E0;-6.317999959E-1
2.484359844E1;3.099999856E-3;-3.143499851E0;-2.540000081E-1
2.486345000E1;1.104699969E0;-2.848700047E0;-3.240999877E-1
2.488330312E1;1.350600004E0;-1.942099929E0;-4.633999765E-1
2.490315625E1;1.411599994E0;-3.874000013E-1;-1.278800011E0
2.492300781E1;9.836999774E-1;1.108299971E0;-2.429999828E0
2.494286094E1;6.904000044E-1;3.603299856E0;-2.129600048E0
2.496271406E1;2.157299995E0;4.970399857E0;-1.174299955E0
2.498256563E1;2.898499966E0;3.959199905E0;-1.540499926E0
2.500241875E1;1.151799917E0;3.700899839E0;-4.789099693E0
2.502227031E1;5.809000134E-1;4.016499996E0;-5.398699760E0
2.504212500E1;1.437899947E0;2.282599926E0;-8.733999729E-1
2.506197969E1;3.002599955E0;-1.431999952E-1;2.060299873E0
2.508182812E1;4.109200001E0;-1.419299960E0;5.098399639E0
2.510168281E1;3.675499916E0;-1.384999990E0;4.653399944E0
2.512153438E1;1.659799933E0;-9.889999777E-2;4.336899757E0
2.514138594E1;1.146899939E0;1.115199924E0;2.960399866E0
2.516124062E1;1.141999960E0;1.400200009E0;1.292599916E0
2.518109375E1;5.159000158E-1;4.805999994E-1;4.169999957E-1
2.520094531E1;-1.606999934E-1;-4.685999751E-1;3.146999776E-1
2.522079844E1;-5.209000111E-1;-1.590399981E0;9.730000049E-2
2.524065000E1;-8.133999705E-1;-2.711799860E0;4.259999990E-1
2.526050313E1;-1.484399915E0;-3.421700001E0;-4.131999910E-1
2.528035938E1;-2.278599977E0;-3.339200020E0;-3.883000016E-1
2.530020781E1;-2.506099939E0;-2.569999933E0;2.510000020E-2
2.532006094E1;-2.614500046E0;-1.872999907E0;-5.198000073E-1
2.533991250E1;-2.773999929E0;-1.665199995E0;-1.171100020E0
2.535976562E1;-2.844599962E0;-1.439999938E0;-1.265599966E0
2.537961875E1;-2.304899931E0;-4.436999857E-1;-1.415899992E0
2.539947188E1;-7.653999925E-1;5.762000084E-1;-2.036599874E0
2.541932344E1;1.671999991E-1;1.136600018E0;-3.266799927E0
2.543917656E1;2.435999960E-1;1.424799919E0;-2.374599934E0
2.545902969E1;1.304999948E0;2.023499966E0;-1.528199911E0
2.547888281E1;3.681799889E0;3.176499844E0;1.141999960E-1
2.549873438E1;4.650999904E-1;4.524199963E0;-8.247999549E-1
2.551858750E1;-3.526999950E-1;5.247200012E0;-3.235399961E0
2.553843906E1;-4.138999879E-1;5.223199844E0;-3.933799982E0
2.555829219E1;9.999999311E-4;2.231099844E0;1.371999979E-1
2.557814531E1;6.183999777E-1;-6.144999862E-1;1.618899941E0
2.559799844E1;4.134900093E0;-1.844699979E0;4.246599674E0
2.561785000E1;1.026999950E0;-1.432299972E0;5.004099846E0
2.563770312E1;1.182899952E0;7.274000049E-1;4.724299908E0
2.565755625E1;2.826099873E0;2.195099831E0;1.718199968E0
2.567740781E1;1.993099928E0;1.603500009E0;4.409999847E-1
2.569726562E1;4.482999742E-1;-6.920999885E-1;5.266999602E-1
2.571711406E1;-1.563799977E0;-2.355700016E0;-3.740999997E-1
2.573696719E1;-2.760299921E0;-2.966699839E0;1.419999897E-1
2.575681719E1;-3.772599936E0;-3.498099804E0;1.610799909E0
2.577667031E1;-3.156399965E0;-3.658299923E0;1.134099960E0
2.579652344E1;-7.145999670E-1;-3.126099825E0;-1.274500012E0
2.581637656E1;-1.938000023E-1;-3.262699842E0;-1.585699916E0
2.583622969E1;2.429999970E-2;-3.078999996E0;-7.929999828E-1
2.585608281E1;2.317999899E-1;-2.536700010E0;-1.279299974E0
2.587593438E1;1.799999923E-2;-1.579199910E0;-1.642899990E0
2.589578750E1;-4.915999770E-1;-3.809999824E-1;-1.875999928E0
2.591564062E1;-5.981000066E-1;2.584999800E-1;-2.781100035E0
2.593549219E1;1.885000020E-1;5.159000158E-1;-2.872599840E0
2.595534531E1;1.420899987E0;1.457099915E0;-1.597700000E0
2.597519844E1;4.342000008E0;2.732300043E0;1.620000042E-2
2.599505156E1;3.682199955E0;2.667199850E0;-2.077399969E0
2.601490469E1;7.090000063E-2;3.017999887E0;-4.686999798E0
2.603475781E1;-8.137999773E-1;4.266499996E0;-5.939099789E0
2.605460938E1;-2.680999935E-1;1.763099909E0;-2.138999999E-1
2.607446094E1;1.806399941E0;-1.547299981E0;3.279699802E0
2.609431406E1;3.974900007E0;-8.040999770E-1;5.896100044E0
2.611416719E1;6.143399715E0;2.707399845E0;4.681699753E0
2.613402031E1;1.727399945E0;1.658800006E0;4.040400028E0
2.615387188E1;-2.602999806E-1;1.472999930E0;2.183799982E0
2.617372344E1;-6.211999655E-1;1.907399893E0;9.598000050E-1
2.619357813E1;-1.568599939E0;1.705199957E0;4.502999783E-1
2.621342969E1;-2.758699894E0;4.553000033E-1;-1.696999967E-1
2.623328281E1;-2.885200024E0;-1.541899920E0;-9.878999591E-1
2.625313750E1;-2.514699936E0;-3.036399841E0;-6.667000055E-1
2.627298906E1;-1.778699994E0;-3.456499815E0;3.726999760E-1
2.629284062E1;-1.221400023E0;-3.465799809E0;7.919999957E-1
2.631269375E1;-1.053099990E0;-2.849599838E0;4.289000034E-1
2.633254531E1;-1.018899918E0;-1.860199928E0;-8.560000062E-1
2.635239844E1;-1.345099926E0;-8.639999628E-1;-1.087599993E0
2.637225156E1;-1.731199980E0;-2.818999887E-1;-1.136999965E0
2.639210469E1;-1.553200006E0;1.037999988E-1;-1.582199931E0
2.641195625E1;-7.976999879E-1;3.953000009E-1;-2.169399977E0
2.643180938E1;-1.406999975E-1;7.005999684E-1;-2.548300028E0
2.645166250E1;9.472000003E-1;1.259599924E0;-2.125699997E0
2.647151406E1;1.695899963E0;2.553400040E0;-7.989999652E-2
2.649136719E1;1.740999967E-1;4.322799683E0;-8.212999701E-1
2.651121875E1;-1.173399925E0;6.070399761E0;-1.725399971E0
2.653107188E1;-3.452000022E-1;5.994599819E0;-2.767299891E0
2.655092656E1;1.077799916E0;4.258399963E0;-2.423999906E-1
2.657077812E1;2.317699909E0;1.794600010E0;1.766999960E0
2.659062969E1;2.759500027E0;1.565999985E-1;3.776899815E0
2.661048281E1;1.216599941E0;-3.983999789E-1;4.329499722E0
2.663033594E1;2.881899834E0;-1.570999920E-1;5.156599998E0
2.665018750E1;4.016399860E0;-4.122000039E-1;3.136899948E0
2.667004063E1;2.950099945E0;-6.642000079E-1;8.646000028E-1
2.668989375E1;8.697999716E-1;-8.596000075E-1;-3.480000049E-2
2.670974531E1;-1.204599977E0;-1.605099916E0;-5.191000104E-1
2.672959844E1;-2.785199881E0;-2.201299906E0;-6.861000061E-1
2.674945156E1;-3.752099991E0;-2.520799875E0;-9.792999625E-1
2.676931094E1;-4.002799988E0;-2.734999895E0;-9.042999744E-1
2.678915625E1;-3.421199799E0;-2.938699961E0;-4.916999936E-1
2.680900938E1;-2.641499996E0;-3.218699932E0;-4.343999922E-1
2.682886094E1;-1.049899936E0;-2.850699902E0;-5.119999647E-1
2.684871406E1;-7.939999551E-2;-2.888499975E0;-5.967999697E-1
2.686856719E1;3.813999891E-1;-2.638900042E0;-7.536000013E-1
2.688842031E1;2.884999812E-1;-1.565400004E0;-1.393899918E0
2.690827188E1;4.527999759E-1;7.009999454E-2;-2.225899935E0
2.692812500E1;1.032500029E0;8.966999650E-1;-2.909499884E0
2.694797656E1;1.349299908E0;1.149999976E0;-3.469899893E0
2.696782969E1;2.417000055E0;1.896199942E0;-7.031999826E-1
2.698768281E1;4.105700016E0;2.897599936E0;-1.802999973E-1
2.700753594E1;1.146700025E0;3.896099806E0;-3.423899889E0
2.702738750E1;-3.830000013E-2;5.595499992E0;-5.989299774E0
2.704724062E1;1.340699911E0;5.672499657E0;-3.129199982E0
2.706709375E1;2.660300016E0;5.579000115E-1;1.498000026E-1
2.708694688E1;4.288399696E0;-1.269500017E0;4.895800114E0
2.710679844E1;3.662400007E0;-1.394400001E0;6.296700001E0
2.712665156E1;1.124599934E0;-7.464999557E-1;3.996299982E0
2.714650469E1;6.758999825E-1;5.356000066E-1;2.985399961E0
2.716635625E1;2.780999839E-1;1.040899992E0;1.768700004E0
2.718620938E1;-4.750999808E-1;4.521999955E-1;1.362699986E0
2.720606250E1;-8.396999836E-1;-3.881999850E-1;6.371999979E-1
2.722591406E1;-1.999300003E0;-1.515799999E0;5.879999697E-2
2.724576719E1;-1.515499949E0;-2.594199896E0;-5.587999821E-1
2.726561875E1;-5.694999695E-1;-3.174299955E0;-6.690999866E-1
2.728547188E1;-4.569999874E-1;-3.245899916E0;-5.040999651E-1
2.730532500E1;-3.475999832E-1;-2.676699877E0;-3.802999854E-1
2.732517812E1;-1.472399950E0;-1.051499963E0;-6.268000007E-1
2.734503125E1;-2.773900032E0;-5.625999570E-1;-1.372699976E0
2.736488281E1;-3.283699989E0;-8.109999895E-1;-1.722000003E0
2.738473594E1;-3.130499840E0;-3.725000024E-1;-1.612999916E0
2.740458906E1;-1.659399986E0;1.550000012E-1;-1.661899924E0
2.742444063E1;-4.406999946E-1;7.499999553E-2;-2.232699871E0
2.744429375E1;1.284099936E0;4.558999836E-1;-2.171900034E0
2.746414688E1;3.236399889E0;1.578799963E0;-2.608000040E-1
2.748399844E1;1.833899975E0;3.631799936E0;-5.243999958E-1
2.750385156E1;-6.948999763E-1;5.733699799E0;-2.372099876E0
2.752370469E1;-1.254899979E0;5.948199749E0;-4.275799751E0
2.754355781E1;4.249999821E-1;4.013099670E0;-1.160499930E0
2.756340938E1;2.117100000E0;1.974999905E0;1.859099984E0
2.758326250E1;3.206799984E0;-8.118999600E-1;3.592799902E0
2.760312188E1;2.901799917E0;-1.532099962E0;3.983899832E0
2.762296875E1;2.615900040E0;-1.061800003E0;6.633800030E0
2.764282031E1;3.917999983E0;-1.715999991E-1;4.584700108E0
2.766267344E1;2.363600016E0;1.121699929E0;9.932000041E-1
2.768252656E1;1.126999974E0;1.087499976E0;-7.098000050E-1
2.770237813E1;4.999999655E-4;-2.488999963E-1;-1.317399979E0
2.772223125E1;-1.883199930E0;-1.372399926E0;-8.509999514E-1
2.774208438E1;-2.946699858E0;-2.048099995E0;-9.936999679E-1
2.776193594E1;-2.968199968E0;-2.826900005E0;-1.231699944E0
2.778178906E1;-2.346899986E0;-3.242899895E0;-5.891000032E-1
2.780164219E1;-1.895599961E0;-3.506699800E0;-6.149999797E-2
2.782149375E1;-1.326699972E0;-3.642699957E0;-1.317999959E-1
2.784134688E1;-3.059999943E-1;-3.714599848E0;-6.729999930E-2
2.786119844E1;7.174999714E-1;-3.548300028E0;-4.370999932E-1
2.788105156E1;-2.595999837E-1;-2.517299891E0;-1.184700012E0
2.790090469E1;-1.122200012E0;-8.294999599E-1;-2.205899954E0
2.792075781E1;-9.720999599E-1;6.371999979E-1;-2.709199905E0
2.794060938E1;5.026999712E-1;1.589800000E0;-2.213899851E0
2.796046250E1;2.386699915E0;2.161799908E0;-1.188199997E0
2.798031563E1;4.789099693E0;3.080299854E0;-9.382999539E-1
2.800016719E1;3.021299839E0;2.603699923E0;-3.139600039E0
2.802002031E1;8.112999797E-1;4.043299675E0;-6.043499947E0
2.803987188E1;1.023499966E0;5.742799759E0;-3.239199877E0
2.805972500E1;1.347000003E0;1.355799913E0;-1.723999977E-1
2.807957812E1;2.904700041E0;-1.582199931E0;2.617899895E0
2.809943438E1;3.619799852E0;-9.924999475E-1;6.116499901E0
2.811928281E1;2.571300030E0;7.651999593E-1;4.730099678E0
2.813913594E1;8.621000051E-1;1.743099928E0;2.940399885E0
2.815898906E1;3.308999836E-1;2.053299904E0;2.477799892E0
2.817884063E1;-4.240999818E-1;1.173900008E0;1.194399953E0
2.819869375E1;-1.018700004E0;3.768000007E-1;4.308999777E-1
2.821854688E1;-1.860599995E0;-7.389000058E-1;2.527999878E-1
2.823840000E1;-1.847899914E0;-2.057600021E0;-6.419999897E-2
2.825825156E1;-1.105799913E0;-3.092599869E0;-3.163000047E-1
2.827810469E1;-8.374999762E-1;-3.695999861E0;-2.193000019E-1
2.829795781E1;-6.493999958E-1;-3.219699860E0;6.979999691E-2
2.831780938E1;-5.002999902E-1;-2.268499851E0;1.261000037E-1
2.833766250E1;-1.661299944E0;-1.229099989E0;-2.628000081E-1
2.835751562E1;-2.809599876E0;-5.253999829E-1;-1.259799957E0
2.837736719E1;-2.779500008E0;-2.492999882E-1;-1.660200000E0
2.839722031E1;-1.582000017E0;2.185999900E-1;-1.189800024E0
2.841707344E1;-2.745999992E-1;4.280000031E-1;-1.495999932E0
2.843692656E1;9.562000036E-1;4.223999977E-1;-2.359299898E0
2.845677813E1;2.235499859E0;1.333199978E0;-1.913399935E0
2.847663125E1;2.006000042E0;2.584699869E0;-7.766000032E-1
2.849648438E1;-3.572999835E-1;4.297499657E0;-1.918299913E0
2.851633594E1;-1.523999929E0;5.354099751E0;-2.534399986E0
2.853618906E1;9.240999818E-1;5.150700092E0;-2.839699984E0
2.855604219E1;1.634499907E0;2.427799940E0;1.879999936E-1
2.857589375E1;1.129899979E0;8.980000019E-2;1.791899920E0
2.859576719E1;1.769899964E0;-6.937999725E-1;3.962599993E0
2.861559844E1;2.162499905E0;6.599999964E-2;5.175899982E0
2.863545312E1;3.216199875E0;4.341999888E-1;4.503799915E0
2.865530625E1;4.265899658E0;-7.339999825E-2;2.671499968E0
2.867515781E1;2.493799925E0;-6.173999906E-1;4.069999978E-2
2.869501094E1;8.916999698E-1;-1.411099911E0;-6.133999825E-1
2.871486250E1;-5.827000141E-1;-2.305899858E0;-1.295899987E0
2.873471563E1;-2.345299959E0;-2.872499943E0;-6.390999556E-1
2.875456719E1;-3.406999826E0;-3.320699930E0;-3.990999758E-1
2.877442031E1;-3.581499815E0;-3.404199839E0;-5.573999882E-1
2.879427344E1;-2.122900009E0;-2.898000002E0;-4.618999958E-1
2.881412656E1;-9.103999734E-1;-2.592299938E0;-4.666000009E-1
2.883397969E1;-3.366000056E-1;-2.516199827E0;-5.866999626E-1
2.885383125E1;-4.010000080E-2;-2.718099833E0;-1.288599968E0
2.887368750E1;3.258000016E-1;-2.361199856E0;-1.921599984E0
2.889353750E1;8.291999698E-1;-1.308099985E0;-1.752999902E0
2.891338906E1;9.584999681E-1;6.329999864E-2;-1.759899974E0
2.893324219E1;3.120000064E-1;3.316999972E-1;-2.613399982E0
2.895309531E1;5.049999952E-1;1.263599992E0;-2.234799862E0
2.897294844E1;1.420899987E0;2.328899860E0;-9.380999804E-1
2.899280000E1;4.398499966E0;2.787499905E0;-1.336499929E0
2.901265156E1;2.187700033E0;2.375599861E0;-3.476499796E0
2.903250625E1;4.500999749E-1;4.624599934E0;-5.905099869E0
2.905235781E1;8.804000020E-1;4.807399750E0;-9.731999636E-1
2.907221094E1;1.637099981E0;3.696999848E-1;8.892999887E-1
2.909206250E1;3.654999971E0;-1.154699922E0;4.441199780E0
2.911191562E1;3.518399954E0;-1.076799989E0;5.262599945E0
2.913176875E1;1.057099938E0;6.699999571E-1;4.129499912E0
2.915162031E1;3.522000015E-1;2.155900002E0;2.659699917E0
2.917147344E1;-2.044999897E-1;1.302899957E0;2.131099939E0
2.919132656E1;-6.193999648E-1;5.705999732E-1;1.300899982E0
2.921117813E1;-1.207899928E0;8.309999853E-2;2.885999978E-1
2.923103125E1;-1.582899928E0;-9.164999723E-1;-1.064000010E0
2.925089062E1;-1.499199986E0;-2.239399910E0;-1.113699913E0
2.927073594E1;-1.409999967E0;-3.042199850E0;-5.236999989E-1
2.929058906E1;-1.240599990E0;-3.196099997E0;-3.328000009E-1
2.931044219E1;-1.462299943E0;-3.166899920E0;8.720000088E-2
2.933029375E1;-1.472700000E0;-2.534199953E0;2.459999919E-2
2.935014688E1;-1.635599971E0;-1.552299976E0;-8.114999533E-1
2.937000000E1;-1.666199923E0;-5.080000162E-1;-9.214999676E-1
2.938985313E1;-1.612699986E0;6.289999932E-2;-6.829999685E-1
2.940970469E1;-1.004199982E0;8.647999763E-1;-1.885800004E0
2.942955781E1;-8.251999617E-1;1.489300013E0;-2.636800051E0
2.944941094E1;-2.719999850E-2;1.268999934E0;-2.410399914E0
2.946926250E1;1.410200000E0;1.668699980E0;-1.358099937E0
2.948911562E1;1.893000007E0;2.786599874E0;-3.689000010E-1
2.950896875E1;-7.639999688E-2;4.563399792E0;-1.512799978E0
2.952882031E1;-8.000999689E-1;5.908400059E0;-2.437500000E0
2.954867344E1;1.239099979E0;5.182600021E0;-2.056299925E0
2.956852656E1;1.326499939E0;2.473899841E0;1.079999954E-1
2.958837969E1;1.607800007E0;2.569999918E-2;2.960899830E0
2.960823125E1;2.171599865E0;-8.933999538E-1;4.157199860E0
2.962808438E1;2.139600039E0;-6.735999584E-1;4.999199867E0
2.964793750E1;2.705399990E0;-5.746999979E-1;4.440400124E0
2.966778906E1;2.975199938E0;-9.172999859E-1;2.203999996E0
2.968764219E1;2.109499931E0;-7.268999815E-1;4.849999771E-2
2.970749531E1;8.356999755E-1;-7.748000026E-1;-1.597000003E0
2.972734844E1;-1.025499940E0;-1.137599945E0;-1.744300008E0
2.974720000E1;-2.790799856E0;-1.805899978E0;-2.595999837E-1
2.976705312E1;-3.964499950E0;-2.589099884E0;-4.059999883E-1
2.978690625E1;-3.881599903E0;-3.016999960E0;-1.132799983E0
2.980675781E1;-2.828500032E0;-3.094499826E0;-1.035499930E0
2.982661094E1;-1.951399922E0;-3.006199837E0;-6.506999731E-1
2.984646406E1;-7.526999712E-1;-2.642199993E0;-5.970999599E-1
2.986631563E1;2.490999997E-1;-2.390199900E0;-3.497000039E-1
2.988616875E1;8.933999538E-1;-1.950499892E0;-1.044000030E0
2.990602188E1;-1.299999952E-1;-1.087000012E0;-1.552299976E0
2.992587344E1;-5.089999735E-2;-2.019999921E-2;-2.195799828E0
2.994572500E1;1.415999979E-1;7.543999553E-1;-2.836499929E0
2.996557969E1;4.280999899E-1;2.598099947E0;-2.516499996E0
2.998543281E1;2.806399822E0;3.602799892E0;-1.267899990E0
3.000528438E1;4.022200108E0;2.614899874E0;-1.978500009E0
3.002513750E1;1.502499938E0;3.336099863E0;-4.530399799E0
3.004499062E1;1.580899954E0;5.345499992E0;-2.630599976E0
3.006484219E1;1.867599964E0;2.029099941E0;-5.687999725E-1
3.008469531E1;2.807899952E0;-1.647000015E-1;2.434700012E0
3.010454844E1;2.965099812E0;-1.014799953E0;4.418200016E0
3.012440000E1;1.865599990E0;2.412000000E-1;4.627599716E0
3.014425313E1;3.201999962E-1;2.823499918E0;3.384199858E0
3.016410625E1;-9.142999649E-1;2.757999897E0;2.684799910E0
3.018395938E1;-6.586999893E-1;1.519699931E0;1.340899944E0
3.020383750E1;-1.212199926E0;4.281999767E-1;2.240999937E-1
3.022366406E1;-1.674099922E0;-1.168499947E0;-6.811000109E-1
3.024352812E1;-1.213899970E0;-2.998699903E0;-2.470999956E-1
3.026336875E1;-6.791999936E-1;-4.352999687E0;-1.114000008E-1
3.028322188E1;-4.551999867E-1;-4.809499741E0;-4.578000009E-1
3.030307500E1;-5.928999782E-1;-3.878199816E0;-1.129999980E-1
3.032292656E1;-8.205999732E-1;-1.839199901E0;2.369999886E-2
3.034277969E1;-1.706299901E0;-4.309999943E-1;-5.562999845E-1
3.036263125E1;-2.425699949E0;-1.472000033E-1;-9.344999790E-1
3.038248438E1;-2.527600050E0;7.979999483E-2;-1.248600006E0
3.040233750E1;-2.008899927E0;3.339000046E-1;-1.595799923E0
3.042219531E1;-7.125999928E-1;4.842000008E-1;-2.456500053E0
3.044204219E1;1.018000007E0;1.127200007E0;-2.707000017E0
3.046189531E1;1.324800014E0;1.435199976E0;-1.369899988E0
3.048174844E1;1.664600015E0;3.260999918E0;-4.201999903E-1
3.050160156E1;-6.311999559E-1;5.050399780E0;-1.327099919E0
3.052145312E1;-1.625499964E0;5.983599663E0;-2.455499887E0
3.054130625E1;-1.247499943E0;5.049299717E0;-3.241199970E0
3.056115781E1;1.432699919E0;3.377499819E0;2.298000008E-1
3.058101094E1;2.532899857E0;1.731299996E0;1.955500007E0
3.060086719E1;2.655299902E0;3.731999993E-1;1.408199906E0
3.062071719E1;2.231799841E0;-1.582899928E0;3.894199848E0
3.064056875E1;2.575500011E0;-2.130899906E0;7.224899769E0
3.066042188E1;3.446199894E0;-1.580799937E0;4.805500031E0
3.068027500E1;2.787099838E0;-9.335999489E-1;1.889699936E0
3.070012656E1;1.443399906E0;-1.207099915E0;1.828999966E-1
3.071997969E1;8.359999955E-2;-2.034999847E0;-3.127000034E-1
3.073983281E1;-1.284099936E0;-2.563499928E0;-4.184999764E-1
3.075968438E1;-2.346799850E0;-2.794999838E0;-6.804999709E-1
3.077953750E1;-2.797099829E0;-2.733899832E0;-1.453899980E0
3.079939062E1;-2.672299862E0;-2.404000044E0;-1.935699940E0
3.081924219E1;-2.205899954E0;-2.345000029E0;-1.933299899E0
3.083909688E1;-1.589499950E0;-2.971999884E0;-1.852499962E0
3.085894844E1;3.587999940E-1;-2.965699911E0;-1.626099944E0
3.087880156E1;9.060999751E-1;-2.935199976E0;-1.572999954E0
3.089865313E1;1.053499937E0;-2.407699823E0;-1.490499973E0
3.091850625E1;7.531999946E-1;-1.137599945E0;-1.752399921E0
3.093835938E1;5.271999836E-1;1.098999977E-1;-2.206899881E0
3.095821094E1;7.440000027E-2;1.566399932E0;-2.151900053E0
3.097806406E1;-1.768999994E-1;2.990499973E0;-1.852599978E0
3.099791719E1;2.657299995E0;3.193099976E0;-2.858599901E0
3.101776875E1;4.474800110E0;1.467499971E0;-2.392199993E0
3.103762188E1;4.721199989E0;1.814299941E0;-2.421999931E0
3.105747500E1;4.325500011E0;3.305999994E0;-1.242799997E0
3.107732812E1;3.604599953E0;2.233199835E0;8.223999739E-1
3.109717969E1;3.327600002E0;1.087199926E0;2.798300028E0
3.111703281E1;9.825999737E-1;-2.499999944E-3;3.652599812E0
3.113688594E1;-1.220799923E0;1.107399940E0;3.777799845E0
3.115673750E1;-1.676499963E0;2.174799919E0;3.284499884E0
3.117659063E1;-8.543999791E-1;1.903299928E0;2.486599922E0
3.119644375E1;-4.405999780E-1;1.241699934E0;1.788599968E0
3.121629531E1;-4.347999990E-1;1.314999908E-1;7.917000055E-1
3.123615469E1;-5.200999975E-1;-1.186100006E0;-2.314999998E-1
3.125600156E1;-5.313000083E-1;-2.559999943E0;-4.269999862E-1
3.127585312E1;-6.062999964E-1;-3.164299965E0;-2.293999940E-1
3.129570625E1;-9.089999795E-1;-2.990799904E0;1.343999952E-1
3.131555938E1;-8.867999911E-1;-2.455800056E0;4.341999888E-1
3.133541250E1;-9.167000055E-1;-2.145799875E0;3.060999811E-1
3.135526406E1;-1.402300000E0;-1.716300011E0;-1.815999895E-1
3.137511719E1;-1.723500013E0;-1.083199978E0;-9.364999533E-1
3.139497031E1;-1.862100005E0;-8.610999584E-1;-1.581299901E0
3.141482188E1;-1.889199972E0;-5.685999990E-1;-2.317299843E0
3.143467500E1;-1.724499941E0;6.560000032E-2;-2.317800045E0
3.145452813E1;-1.240100026E0;6.250000000E-2;-2.316599846E0
3.147438125E1;-7.079999894E-2;-1.171999946E-1;-2.371899843E0
3.149423125E1;1.258700013E0;3.399999812E-2;-1.721499920E0
3.151408438E1;1.649399996E0;1.213899970E0;-5.742999911E-1
3.153393750E1;2.188999951E-1;3.169600010E0;-7.708999515E-1
3.155379062E1;-1.631999910E-1;4.592400074E0;-1.748899937E0
3.157364219E1;2.141099930E0;4.631099701E0;-3.152199984E0
3.159349844E1;3.923599958E0;3.206899881E0;4.615999758E-1
3.161335469E1;2.652499914E0;1.006299973E0;2.451699972E0
3.163320156E1;1.201499939E0;1.250000000E-1;2.858500004E0
3.165305469E1;-7.536999583E-1;8.359999955E-2;3.498499870E0
3.167290625E1;2.461999953E-1;2.210000008E-1;5.008899689E0
3.169275938E1;1.423200011E0;7.033999562E-1;3.800099850E0
3.171261094E1;2.356099844E0;9.598999619E-1;8.526999950E-1
3.173246406E1;2.435199976E0;-1.477999985E-1;-1.263199925E0
3.175231719E1;6.832000017E-1;-1.333199978E0;-6.668999791E-1
3.177217031E1;-7.638999820E-1;-2.026700020E0;-8.671000004E-1
3.179202344E1;-2.039099932E0;-2.676300049E0;-1.287400007E0
3.181187500E1;-2.768899918E0;-3.078799963E0;-1.356400013E0
3.183172812E1;-3.078500032E0;-3.555799961E0;-1.114499927E0
3.185157969E1;-2.200999975E0;-3.145200014E0;-4.000999928E-1
3.187143281E1;-1.121399999E0;-2.776599884E0;-2.635000050E-1
3.189128594E1;-9.399999864E-3;-2.023000002E0;-4.406999946E-1
3.191113906E1;6.256999969E-1;-1.640599966E0;-1.211799979E0
3.193099219E1;5.882999897E-1;-1.109599948E0;-1.412400007E0
3.195084375E1;3.095999956E-1;-4.129999876E-2;-2.422699928E0
3.197069688E1;9.189999849E-2;4.217999876E-1;-2.756099939E0
3.199054844E1;2.653999925E-1;1.554499984E0;-1.808599949E0
3.201040156E1;1.563300014E0;2.803200006E0;-1.253099918E0
3.203025312E1;4.511399746E0;3.132699966E0;-1.825399995E0
3.205010625E1;2.396399975E0;2.645499945E0;-4.020800114E0
3.206995938E1;1.997999996E-1;3.984499931E0;-5.999199867E0
3.208981250E1;4.639999866E-1;3.945699930E0;-1.652199984E0
3.210966406E1;2.269599915E0;5.776000023E-1;1.139400005E0
3.212951719E1;3.708899975E0;5.499999970E-3;5.135200024E0
3.214937031E1;2.848099947E0;3.549000025E-1;4.854199886E0
3.216922188E1;1.010999978E-1;1.176699996E0;4.454499722E0
3.218907500E1;-7.669999599E-1;1.991999984E0;3.166599989E0
3.220892812E1;-9.614999890E-1;1.834100008E0;1.732199907E0
3.222878594E1;-1.155300021E0;5.041999817E-1;9.746999741E-1
3.224863281E1;-1.235199928E0;-2.402999997E-1;2.588000000E-1
3.226848594E1;-3.874000013E-1;-1.620399952E0;-1.063400030E0
3.228833906E1;-7.319999933E-1;-3.290299892E0;1.153999940E-1
3.230819062E1;-9.875999689E-1;-3.778299809E0;-7.379999757E-2
3.232804375E1;-1.214699984E0;-3.466599941E0;-6.107000113E-1
3.234789688E1;-1.676100016E0;-2.653399944E0;-7.128999829E-1
3.236774844E1;-2.098999977E0;-1.873299956E0;-1.026799917E0
3.238760156E1;-2.448799849E0;-9.472999573E-1;-1.727599978E0
3.240745469E1;-2.658799887E0;-2.597000003E-1;-1.360999942E0
3.242730625E1;-2.181900024E0;5.115999579E-1;-1.489699960E0
3.244715938E1;-9.358999729E-1;1.242900014E0;-2.038199902E0
3.246701250E1;1.232999936E-1;1.441999912E0;-2.768899918E0
3.248686562E1;4.554999769E-1;1.210600019E0;-2.370599985E0
3.250671719E1;1.567499995E0;1.726499915E0;-8.788999915E-1
3.252657031E1;1.859399915E0;3.059799910E0;-2.954999804E-1
3.254642344E1;-3.206999898E-1;3.981299877E0;-1.588199973E0
3.256627500E1;-9.933999777E-1;3.806499958E0;-3.586099863E0
3.258613281E1;1.043900013E0;3.753799915E0;-2.893899918E0
3.260597969E1;1.292199969E0;1.050499916E0;5.054999590E-1
3.262583438E1;1.535300016E0;-7.260000110E-1;2.500299931E0
3.264568594E1;1.694799900E0;-1.471000016E-1;2.936899900E0
3.266553906E1;1.080799937E0;6.464999914E-1;4.950200081E0
3.268539219E1;2.573899984E0;1.059800029E0;6.747099876E0
3.270524375E1;3.466099977E0;1.445599914E0;4.092599869E0
3.272509688E1;2.371599913E0;9.793999791E-1;1.011600018E0
3.274494844E1;1.415499926E0;-2.581000030E-1;-1.710999906E-1
3.276480156E1;4.388999939E-1;-1.154299974E0;-1.396099925E0
3.278465469E1;-1.414099932E0;-2.101699829E0;-1.830699921E0
3.280450781E1;-3.214200020E0;-3.140899897E0;-1.573099971E0
3.282436250E1;-4.232699871E0;-3.845899820E0;-1.563499928E0
3.284421250E1;-4.319200039E0;-3.859200001E0;-1.096199989E0
3.286406562E1;-3.232899904E0;-3.488099813E0;-5.683000088E-1
3.288391719E1;-1.768299937E0;-3.069700003E0;-3.452999890E-1
3.290377031E1;-3.132999837E-1;-2.859200001E0;-5.514000058E-1
3.292362344E1;3.775999844E-1;-1.935499907E0;-1.126600027E0
3.294347656E1;7.299999706E-3;-1.332999915E-1;-1.088299990E0
3.296332813E1;-4.329999909E-2;1.069899917E0;-1.990899920E0
3.298318125E1;8.270999789E-1;2.306499958E0;-2.411399841E0
3.300303281E1;2.153300047E0;2.820899963E0;-2.225299835E0
3.302289219E1;4.654200077E0;3.439800024E0;-1.950399995E0
3.304273906E1;2.978199959E0;2.397599936E0;-3.212599993E0
3.306259219E1;7.163000107E-1;3.137699842E0;-5.137399673E0
3.308244375E1;4.310999811E-1;4.122399807E0;-3.031399965E0
3.310229688E1;1.477899909E0;5.403000116E-1;9.929999709E-2
3.312215000E1;4.524300098E0;-9.211999774E-1;3.820099831E0
3.314200156E1;4.553199768E0;-9.296999574E-1;5.080100060E0
3.316185469E1;1.911199927E0;5.837999582E-1;4.224699974E0
3.318170781E1;7.764999866E-1;2.435099840E0;3.266000032E0
3.320155938E1;-3.358999789E-1;2.948299885E0;3.303399801E0
3.322141562E1;-6.764000058E-1;1.901999950E0;2.482800007E0
3.324126563E1;-1.279500008E0;6.320999861E-1;1.498899937E0
3.326111719E1;-2.099099874E0;-9.244999886E-1;-8.929999918E-2
3.328097031E1;-2.700500011E0;-3.050599813E0;-1.076599956E0
3.330082344E1;-1.795799971E0;-4.279999733E0;-1.071699977E0
3.332067500E1;-8.378999829E-1;-4.386099815E0;-5.442000031E-1
3.334052812E1;-4.864999950E-1;-3.294600010E0;-3.055999875E-1
3.336038125E1;-1.044799924E0;-2.613299847E0;-2.037999928E-1
3.338023438E1;-1.987899899E0;-2.231799841E0;-1.763199925E0
3.340008594E1;-2.543200016E0;-1.676699996E0;-1.819299936E0
3.341993906E1;-2.759699821E0;-5.914999843E-1;-1.542299986E0
3.343979062E1;-2.994799852E0;5.350999832E-1;-1.786000013E0
3.345964375E1;-2.121299982E0;1.653999925E0;-2.506599903E0
3.347949688E1;-6.595000029E-1;2.166399956E0;-2.875599861E0
3.349935000E1;8.435999751E-1;3.124300003E0;-2.723899841E0
3.351920156E1;5.135499954E0;3.820799828E0;-5.708000064E-1
3.353905469E1;1.856699944E0;3.993199825E0;4.719999805E-2
3.355890781E1;-3.137999773E-1;5.205800056E0;-2.304899931E0
3.357876094E1;-9.355999827E-1;5.069799900E0;-4.074699879E0
3.359861250E1;-1.278000027E-1;3.857699871E0;-1.338099957E0
3.361846406E1;5.744000077E-1;4.957999885E-1;4.588999748E-1
3.363831875E1;4.176099777E0;-1.760499954E0;3.416699886E0
3.365817031E1;2.847999811E0;-2.333600044E0;3.066999912E0
3.367802344E1;2.023499966E0;-7.421999574E-1;3.719599962E0
3.369787656E1;2.468899965E0;3.709999919E-1;4.615999699E0
3.371773125E1;2.455299854E0;3.043999970E-1;4.123499870E0
3.373758125E1;1.166399956E0;-4.092999995E-1;1.371699929E0
3.375743438E1;-6.194999814E-1;-1.486299992E0;-2.477999926E-1
3.377728594E1;-1.720899940E0;-2.274499893E0;-1.153999925E0
3.379713906E1;-3.020799875E0;-2.914700031E0;-1.435599923E0
3.381699219E1;-3.927799940E0;-3.172299862E0;-1.011899948E0
3.383684531E1;-4.245899677E0;-2.980000019E0;-1.402099967E0
3.385669688E1;-3.847100019E0;-2.445400000E0;-1.965099931E0
3.387655000E1;-1.974999905E0;-2.096299887E0;-1.491899967E0
3.389640312E1;6.502000093E-1;-2.639199972E0;-4.079999924E-1
3.391625469E1;1.146899939E0;-2.905599833E0;-4.501999915E-1
3.393610781E1;1.104599953E0;-2.005499840E0;-1.598399997E0
3.395596094E1;1.062999964E0;1.559000015E-1;-2.872499943E0
3.397581406E1;2.375999987E-1;1.373099923E0;-4.060499668E0
3.399566562E1;3.053999841E-1;2.264099836E0;-3.458199978E0
3.401551875E1;1.898099899E0;2.633399963E0;3.398999870E-1
3.403537188E1;5.335499763E0;3.480199814E0;-2.885999978E-1
3.405522344E1;2.932600021E0;3.326900005E0;-5.409399986E0
3.407507656E1;8.719999790E-1;4.708399773E0;-4.525199890E0
3.409492969E1;1.208899975E0;3.068499804E0;-3.434999883E-1
3.411478125E1;2.878399849E0;1.127099991E0;2.735800028E0
3.413463438E1;3.107399940E0;8.399999738E-1;3.215499878E0
3.415448750E1;7.847999930E-1;1.400900006E0;4.132100105E0
3.417433906E1;9.296999574E-1;2.066200018E0;3.723199844E0
3.419419219E1;1.987199903E0;1.404699922E0;2.285699844E0
3.421405156E1;1.731199980E0;3.079999983E-2;1.176299930E0
3.423389688E1;9.316999912E-1;-1.138999939E0;8.886999488E-1
3.425375000E1;-3.788000047E-1;-2.767400026E0;6.509000063E-1
3.427360312E1;-1.715999991E-1;-3.466399908E0;4.649999738E-2
3.429345625E1;-3.808999956E-1;-3.839499950E0;4.942999780E-1
3.431333438E1;-1.756199956E0;-3.526599884E0;1.484200001E0
3.433315938E1;-2.957700014E0;-2.978299856E0;2.361299992E0
3.435301406E1;-3.621099949E0;-1.685099959E0;2.243199825E0
3.437286562E1;-4.235199928E0;-1.367100000E0;9.555999637E-1
3.439271875E1;-4.646199703E0;-8.551999927E-1;7.576000094E-1
3.441257188E1;-4.328700066E0;-1.374000013E-1;3.549000025E-1
3.443242344E1;-2.863199949E0;5.719000101E-1;-7.027999759E-1
3.445227656E1;-1.362399936E0;9.165999889E-1;-2.496599913E0
3.447212813E1;-7.060999870E-1;8.970999718E-1;-3.206799984E0
3.449198125E1;-2.115999907E-1;1.956200004E0;-3.036599874E0
3.451183438E1;7.694999576E-1;3.638499975E0;-2.351599932E0
3.453168594E1;1.957899928E0;4.619100094E0;-2.708899975E0
3.455153906E1;9.653999805E-1;4.287300110E0;-4.790599823E0
3.457139219E1;1.032199979E0;4.120299816E0;-3.558899879E0
3.459124531E1;1.309799910E0;3.572399855E0;-7.755999565E-1
3.461109688E1;1.033900023E0;1.891699910E0;1.224499941E0
3.463095000E1;9.501999617E-1;7.465999722E-1;3.014499903E0
3.465080312E1;9.840999842E-1;3.851999938E-1;3.467399836E0
3.467065469E1;2.866799831E0;7.272999883E-1;4.641099930E0
3.469050781E1;2.980599880E0;-2.241999954E-1;5.881499767E0
3.471036094E1;2.933499813E0;-2.340999991E-1;3.921000004E0
3.473021406E1;2.408099890E0;-9.027999640E-1;8.427999616E-1
3.475006563E1;1.096099973E0;-1.678399920E0;-1.317899942E0
3.476991875E1;-6.854000092E-1;-2.569000006E0;-1.782699943E0
3.478977188E1;-2.352299929E0;-3.486699820E0;-8.375999928E-1
3.480962812E1;-3.508099794E0;-3.537799835E0;3.122999966E-1
3.482947656E1;-2.258800030E0;-3.284299850E0;-1.140799999E0
3.484932969E1;-1.576799989E0;-3.337199926E0;-2.214200020E0
3.486918281E1;-1.163999915E0;-2.829999924E0;-5.683000088E-1
3.488903438E1;-9.553999901E-1;-2.884500027E0;9.009999782E-2
3.490888750E1;-6.254000068E-1;-2.805399895E0;-1.109300017E0
3.492874062E1;-5.153999925E-1;-2.107199907E0;-2.443899870E0
3.494859219E1;-4.719999805E-2;-5.325999856E-1;-2.396800041E0
3.496844531E1;1.187999994E-1;5.217999816E-1;-2.246599913E0
3.498829844E1;8.375999928E-1;1.848199964E0;-2.414700031E0
3.500815000E1;2.185899973E0;3.182199955E0;-6.466999650E-1
3.502800313E1;4.574399948E0;4.063899994E0;-3.390000015E-2
3.504785625E1;1.715499997E0;4.132499695E0;-3.211599827E0
3.506770781E1;3.619000018E-1;5.473399639E0;-6.044099808E0
3.508756094E1;6.827999949E-1;4.808599949E0;-2.900899887E0
3.510741406E1;2.383499861E0;5.485000014E-1;3.197000027E-1
3.512727656E1;4.426599979E0;-1.582099915E0;3.476999998E0
3.514711875E1;3.429799795E0;-8.391000032E-1;3.928900003E0
3.516697188E1;1.829199910E0;-8.940000087E-2;3.520200014E0
3.518682500E1;1.412199974E0;8.484999537E-1;1.956099987E0
3.520667812E1;1.652300000E0;9.135999680E-1;9.786999822E-1
3.522652969E1;9.874999523E-1;1.703999937E-1;6.611999869E-1
3.524638281E1;2.243999988E-1;-6.635000110E-1;1.012899995E0
3.526623438E1;-9.713999629E-1;-1.925999999E0;1.275499940E0
3.528608750E1;-2.071699858E0;-2.906199932E0;1.080199957E0
3.530594063E1;-3.197599888E0;-3.484200001E0;5.482000113E-1
3.532579219E1;-3.123199940E0;-3.708499908E0;-9.349999577E-2
3.534564531E1;-2.246799946E0;-3.063899994E0;4.923999906E-1
3.536549844E1;-2.167999983E0;-2.546799898E0;1.264999986E0
3.538535156E1;-2.222899914E0;-1.999699950E0;8.169999719E-2
3.540520312E1;-1.680699944E0;-5.676999688E-1;-1.224099994E0
3.542505625E1;-1.417799950E0;8.075999618E-1;-2.230999947E0
3.544490781E1;-1.269899964E0;1.230599999E0;-3.061899900E0
3.546476094E1;-9.954999685E-1;1.351599932E0;-3.584899902E0
3.548461406E1;-7.820999622E-1;1.657699943E0;-3.250099897E0
3.550446719E1;6.536999941E-1;2.325999975E0;-2.040899992E0
3.552431875E1;7.354999781E-1;3.215600014E0;-9.351999760E-1
3.554417031E1;9.893999696E-1;4.206500053E0;-1.040199995E0
3.556402500E1;9.651999474E-1;4.482899666E0;-3.185099840E0
3.558387813E1;1.914099932E0;5.051799774E0;-1.667699933E0
3.560372969E1;4.621999860E-1;2.505800009E0;-3.109999895E-1
3.562358281E1;6.126999855E-1;3.009999916E-2;-9.138999581E-1
3.564343438E1;1.651399970E0;-1.018800020E0;2.635000050E-1
3.566328750E1;2.933499813E0;-3.339999914E-1;5.259799957E0
3.568313906E1;3.545599937E0;1.133899927E0;7.111499786E0
3.570299219E1;8.362999558E-1;1.717999935E0;3.393800020E0
3.572284531E1;-3.179999813E-2;1.495000005E0;-2.421999872E-1
3.574269688E1;-9.887999892E-1;-6.470999718E-1;9.993999600E-1
3.576255000E1;-1.524099946E0;-2.283299923E0;-5.634999871E-1
3.578240312E1;-1.558899999E0;-3.544199944E0;-1.845699906E0
3.580225625E1;-1.919899940E0;-4.073499680E0;-1.197399974E0
3.582210781E1;-2.354899883E0;-4.188899994E0;1.811999977E-1
3.584196094E1;-2.112900019E0;-3.961499929E0;-2.999999933E-2
3.586181406E1;-1.023699999E0;-3.446899891E0;-4.618999958E-1
3.588166719E1;-1.709999889E-1;-2.899399996E0;2.140000015E-1
3.590151875E1;-8.170999885E-1;-2.693599939E0;5.945000052E-1
3.592137188E1;-1.041599989E0;-1.341399908E0;-6.280999780E-1
3.594122500E1;-2.220999897E-1;3.125000000E-1;-1.403899908E0
3.596107656E1;6.909999847E-1;1.497999907E0;-2.998299837E0
3.598092969E1;8.610000014E-1;2.657999992E0;-3.682999849E0
3.600078281E1;1.736799955E0;3.572399855E0;-2.732499838E0
3.602063438E1;4.608999729E0;3.853599787E0;-1.396099925E0
3.604048750E1;2.775399923E0;2.919299841E0;-3.207399845E0
3.606034062E1;5.783999562E-1;3.565599918E0;-4.904999733E0
3.608019375E1;4.307999909E-1;4.235799789E0;-1.734099984E0
3.610004531E1;1.782899976E0;3.387999833E-1;6.051999927E-1
3.611990469E1;3.041100025E0;-1.435299993E0;2.414000034E0
3.613975156E1;2.928900003E0;-4.285999835E-1;3.321399927E0
3.615960313E1;2.330999851E0;8.191999793E-1;3.804399967E0
3.617945625E1;1.417099953E0;1.176299930E0;3.873399973E0
3.619931250E1;1.476999998E0;1.045199990E0;2.708400011E0
3.621916250E1;1.210099936E0;4.676999748E-1;2.146199942E0
3.623901406E1;2.689999938E-1;-4.388999939E-1;1.974799991E0
3.625886719E1;-8.823999763E-1;-1.905999899E0;7.924000025E-1
3.627872031E1;-1.317799926E0;-2.977200031E0;1.307999939E-1
3.629857188E1;-1.909500003E0;-3.349200010E0;-4.285999835E-1
3.631842500E1;-2.380399942E0;-3.631199837E0;-4.219000041E-1
3.633827812E1;-2.343699932E0;-2.937599897E0;-8.820999861E-1
3.635812969E1;-2.127699852E0;-2.058799982E0;-8.919999748E-2
3.637798281E1;-2.357499838E0;-1.036800027E0;2.005999982E-1
3.639783594E1;-2.704599857E0;-3.888999820E-1;-4.034999907E-1
3.641768750E1;-2.858700037E0;-1.041999981E-1;-1.512699962E0
3.643754063E1;-2.283599854E0;9.932000041E-1;-2.407999992E0
3.645739375E1;-1.661999941E0;1.652999997E0;-2.564399958E0
3.647724531E1;-8.835999966E-1;1.767300010E0;-2.469599962E0
3.649709844E1;1.432999969E-1;2.656100035E0;-1.564899921E0
3.651695156E1;9.948999882E-1;3.539899826E0;-5.909000039E-1
3.653680469E1;1.732800007E0;4.420599937E0;-6.035000086E-1
3.655665625E1;1.564999968E-1;4.128799915E0;-2.742300034E0
3.657650781E1;1.176999927E0;5.482299805E0;-3.712099791E0
3.659636563E1;7.048999667E-1;4.369299889E0;-2.508100033E0
3.661621406E1;4.459999874E-2;1.681299925E0;5.460000038E-1
3.663607031E1;6.942999959E-1;-2.283999920E-1;2.952800035E0
3.665592031E1;2.384099960E0;-1.383999944E0;4.110399723E0
3.667577344E1;2.189199924E0;-1.257699966E0;4.203299999E0
3.669563594E1;2.311499834E0;-5.831999779E-1;3.527199984E0
3.671547813E1;1.953499913E0;-1.744000018E-1;2.510799885E0
3.673533125E1;1.084200025E0;-4.093999863E-1;1.567600012E0
3.675518281E1;-3.393999934E-1;-1.489599943E0;3.935999870E-1
3.677503594E1;-1.622900009E0;-2.041599989E0;-1.196200013E0
3.679488906E1;-2.474999905E0;-2.513000011E0;-9.364999533E-1
3.681474062E1;-2.506199837E0;-2.305899858E0;6.825999618E-1
3.683459219E1;-2.079099894E0;-2.551699877E0;7.944999933E-1
3.685444688E1;-1.185299993E0;-2.575399876E0;-1.496599913E0
3.687429844E1;-4.493999779E-1;-2.988199949E0;-1.467299938E0
3.689415156E1;-3.019999899E-2;-3.565799952E0;-1.518999934E-1
3.691400312E1;3.120000064E-1;-3.578199863E0;-2.872000039E-1
3.693385625E1;-5.600000024E-1;-2.548399925E0;-1.609399915E0
3.695370938E1;-1.259500027E0;-7.508999705E-1;-3.128499985E0
3.697356250E1;-1.205199957E0;1.181200027E0;-3.264699936E0
3.699341406E1;-3.925999999E-1;2.169999838E0;-2.385599852E0
3.701326719E1;1.166999936E0;3.337899923E0;8.190000057E-2
3.703312031E1;4.421799660E0;3.817299843E0;7.791000009E-1
3.705297188E1;3.283200026E0;3.494899988E0;-2.959199905E0
3.707282500E1;1.041100025E0;4.331599712E0;-6.527599812E0
3.709267812E1;-1.030999944E-1;4.417399883E0;-5.708299637E0
3.711253125E1;1.769400001E0;1.891799927E0;4.948000014E-1
3.713238281E1;2.862399817E0;-2.535099983E0;2.629799843E0
3.715223594E1;2.700599909E0;-2.961400032E0;2.434900045E0
3.717208750E1;3.189800024E0;-5.235999823E-1;3.679499865E0
3.719194062E1;1.669799924E0;5.414000154E-1;3.459399939E0
3.721179375E1;-1.933999956E-1;4.544000030E-1;2.237400055E0
3.723164688E1;-3.536999822E-1;5.866999626E-1;1.876199961E0
3.725149844E1;-1.489000022E-1;9.084999561E-1;1.619499922E0
3.727135156E1;-2.761999965E-1;-3.999999899E-4;1.061699986E0
3.729120469E1;-7.696999907E-1;-1.333499908E0;2.675999999E-1
3.731105625E1;-4.345999956E-1;-2.470399857E0;8.179999888E-2
3.733090938E1;-3.471999764E-1;-3.011699915E0;1.383000016E-1
3.735076250E1;-7.991999984E-1;-3.013299942E0;3.743000031E-1
3.737061562E1;-1.278299928E0;-2.235399961E0;2.879000008E-1
3.739046719E1;-1.820599914E0;-1.264099956E0;-3.673000038E-1
3.741032031E1;-2.306999922E0;-1.013299942E0;-8.657000065E-1
3.743017344E1;-2.956799984E0;-1.373399973E0;-1.174600005E0
3.745002500E1;-3.170599937E0;-1.470499992E0;-1.472599983E0
3.746987812E1;-3.027299881E0;-4.254999757E-1;-1.833099961E0
3.748973125E1;-1.429199934E0;2.431999892E-1;-2.218899965E0
3.750958281E1;-4.439999908E-2;1.271899939E0;-1.706099987E0
3.752943594E1;1.536199927E0;2.505599976E0;-1.507200003E0
3.754928906E1;3.082099915E0;3.889999866E0;-5.020999908E-1
3.756914062E1;1.038800001E0;4.715600014E0;-1.621299982E0
3.758899375E1;9.888999462E-1;5.302099705E0;-4.172599792E0
3.760884688E1;1.136199951E0;5.868399620E0;-3.486299992E0
3.762870000E1;-1.141999960E0;2.837199926E0;5.022000074E-1
3.764855156E1;-1.244300008E0;3.445000052E-1;2.096899986E0
3.766840469E1;-2.396999896E-1;-8.169999719E-1;2.518599987E0
3.768825781E1;1.796700001E0;-4.074999988E-1;3.616599798E0
3.770810938E1;4.231599808E0;8.080999851E-1;3.959100008E0
3.772796250E1;5.114899635E0;1.431100011E0;8.190000057E-1
3.774781562E1;3.807099819E0;2.489999868E-2;1.191499949E0
3.776766719E1;2.074100018E0;-2.226199865E0;7.477999926E-1
3.778751875E1;6.379999965E-2;-3.086799860E0;-9.138999581E-1
3.780737188E1;-1.566299915E0;-3.151099920E0;-4.190999866E-1
3.782722656E1;-2.682799816E0;-2.617699862E0;1.452700019E0
3.784707812E1;-3.993499994E0;-2.139799833E0;1.625800014E0
3.786693125E1;-4.421099663E0;-2.279199839E0;3.542999923E-1
3.788678281E1;-3.940399885E0;-2.728199959E0;-4.422999918E-1
3.790663594E1;-2.156399965E0;-3.607999802E0;-9.686999917E-1
3.792648906E1;-4.120000079E-2;-3.806599855E0;-6.200000048E-1
3.794634063E1;5.949999690E-1;-3.276700020E0;-6.819999814E-1
3.796619531E1;3.066000044E-1;-2.231199980E0;-2.299700022E0
3.798604688E1;6.972999573E-1;6.532999873E-1;-2.792299986E0
3.800590000E1;1.950999945E-1;2.306699991E0;-3.650300026E0
3.802575156E1;6.714000106E-1;3.892999887E0;-2.061599970E0
3.804560469E1;3.429600000E0;4.561999798E0;6.699999794E-3
3.806545781E1;2.947299957E0;4.392600060E0;-1.525799990E0
3.808531094E1;9.090999961E-1;4.005399704E0;-4.827199936E0
3.810516250E1;3.030999899E-1;3.868699789E0;-5.185599804E0
3.812501562E1;2.204599857E0;1.861999989E0;-6.664999723E-1
3.814486875E1;2.513200045E0;-1.669199944E0;1.523599982E0
3.816472031E1;1.673999906E0;-3.284199953E0;3.249099970E0
3.818457969E1;2.240700006E0;-1.326200008E0;4.305999756E0
3.820442500E1;2.133199930E0;9.430999756E-1;4.773900032E0
3.822427969E1;5.841999650E-1;1.017899990E0;3.402999878E0
3.824413125E1;9.247999787E-1;1.221099973E0;1.720699906E0
3.826398281E1;1.451699972E0;1.035400033E0;3.454999924E-1
3.828383906E1;4.855999947E-1;9.749999642E-2;-7.419999689E-2
3.830368906E1;-1.320199966E0;-1.223099947E0;3.399999812E-2
3.832354062E1;-1.685899973E0;-2.499799967E0;-3.959999979E-2
3.834339375E1;-1.505299926E0;-3.481299877E0;4.508999884E-1
3.836324688E1;-1.485399961E0;-3.374599934E0;2.360999882E-1
3.838310000E1;-1.365399957E0;-2.652799845E0;1.220999956E-1
3.840295156E1;-1.744699955E0;-1.802500010E0;-4.861999750E-1
3.842280781E1;-2.252399921E0;-1.180299997E0;-9.560999870E-1
3.844265781E1;-2.422999859E0;-5.536000133E-1;-1.079299927E0
3.846250938E1;-2.892699957E0;-8.280000091E-2;-1.103899956E0
3.848236719E1;-2.830600023E0;4.277999997E-1;-1.919699907E0
3.850221563E1;-8.478999734E-1;1.242399931E0;-2.550999880E0
3.852206875E1;8.147000074E-1;1.797999978E0;-3.155400038E0
3.854192031E1;1.883899927E0;2.103499889E0;-2.388599873E0
3.856177344E1;3.433599949E0;3.213699818E0;2.096000016E-1
3.858162656E1;4.259999841E-2;3.709699869E0;-4.565999806E-1
3.860147812E1;-1.115399957E0;3.481400013E0;-2.620100021E0
3.862133125E1;-6.735000014E-1;4.249099731E0;-4.163199902E0
3.864118438E1;2.892999947E-1;1.840599895E0;-1.772899985E0
3.866103594E1;-1.195999980E-1;-7.699999958E-3;8.274999857E-1
3.868088906E1;1.757200003E0;-1.062999964E-1;4.079499722E0
3.870074219E1;2.078899860E0;8.761000037E-1;5.862400055E0
3.872059531E1;1.404500008E0;2.360899925E0;3.355599880E0
3.874044688E1;2.549599886E0;2.973199844E0;2.643299818E0
3.876030000E1;2.505100012E0;1.740899920E0;1.641299963E0
3.878015313E1;1.796000004E0;-7.392999530E-1;6.704999804E-1
3.880000469E1;8.470000029E-1;-2.441400051E0;-3.075999916E-1
3.881985781E1;-9.746999741E-1;-3.490399837E0;-7.685999870E-1
3.883971094E1;-2.410899878E0;-3.950799942E0;-1.894000024E-1
3.885956250E1;-2.755899906E0;-3.629099846E0;3.261999786E-1
3.887942031E1;-2.723700047E0;-3.349499941E0;3.450999856E-1
3.889926875E1;-2.486599922E0;-3.158799887E0;-2.656999826E-1
3.891912031E1;-1.794600010E0;-2.829900026E0;-6.665999889E-1
3.893897344E1;-9.707999825E-1;-2.655499935E0;-8.404999971E-1
3.895882656E1;2.149999887E-2;-2.471699953E0;-6.322999597E-1
3.897867969E1;-1.728999913E-1;-1.562799931E0;-8.671999574E-1
3.899853125E1;-2.127999961E-1;-6.575999856E-1;-1.698099971E0
3.901838438E1;4.572999775E-1;5.001000166E-1;-2.001399994E0
3.903823594E1;8.909999728E-1;1.618600011E0;-2.715299845E0
3.905808906E1;1.131899953E0;2.842799902E0;-2.378700018E0
3.907794219E1;3.271199942E0;3.591499805E0;-1.504599929E0
3.909779531E1;2.668699980E0;2.841199875E0;-2.705600023E0
3.911764844E1;8.183999658E-1;3.036299944E0;-5.126100063E0
3.913750156E1;7.459999919E-1;4.856299877E0;-3.163899899E0
3.915735312E1;1.374799967E0;2.221499920E0;-4.132999778E-1
3.917720625E1;2.879699945E0;-4.717999995E-1;3.069700003E0
3.919705781E1;3.745599985E0;-1.791099906E0;5.520099640E0
3.921691094E1;2.084800005E0;-1.169499993E0;5.045700073E0
3.923676406E1;6.883999705E-1;6.421999931E-1;3.729099989E0
3.925661562E1;5.679000020E-1;1.953299999E0;2.251899958E0
3.927646875E1;3.167999983E-1;1.978299975E0;8.504999876E-1
3.929632188E1;-7.148000002E-1;1.689700007E0;-1.885000020E-1
3.931617500E1;-1.606799960E0;1.353999972E-1;-6.448999643E-1
3.933602500E1;-2.324899912E0;-1.728500009E0;-2.615000010E-1
3.935587969E1;-1.215999961E0;-3.068099976E0;2.071999907E-1
3.937573125E1;-5.112999678E-1;-3.420099974E0;7.296999693E-1
3.939558438E1;-6.219999865E-2;-3.324499846E0;8.053999543E-1
3.941543750E1;-2.639999986E-1;-2.881599903E0;4.989999831E-1
3.943528906E1;-1.393899918E0;-2.335000038E0;-1.180000007E-1
3.945514219E1;-2.329099894E0;-1.053900003E0;-5.906000137E-1
3.947499531E1;-2.709399939E0;-8.599999547E-2;-1.349599957E0
3.949484688E1;-2.576299906E0;1.556999981E-1;-2.209399939E0
3.951470000E1;-2.011499882E0;3.479000032E-1;-2.559200048E0
3.953455312E1;-6.118999720E-1;5.867999792E-1;-2.623499870E0
3.955440625E1;7.810999751E-1;5.519999862E-1;-3.126499891E0
3.957425781E1;2.029000044E0;1.149299979E0;-1.370499969E0
3.959411094E1;1.312299967E0;2.688999891E0;5.959999561E-1
3.961396250E1;-7.026999593E-1;4.583099842E0;-1.193199992E0
3.963381563E1;-1.689499974E0;4.796199799E0;-3.273599863E0
3.965367344E1;1.814099908E0;4.927799702E0;-4.647299767E0
3.967352188E1;1.725199938E0;1.802399993E0;-6.441999674E-1
3.969337344E1;1.477800012E0;2.113999873E-1;2.237299919E0
3.971322656E1;1.878299952E0;-2.236999869E-1;3.426299810E0
3.973307969E1;8.198999763E-1;1.991999894E-1;5.013599873E0
3.975293125E1;1.439799905E0;9.106999636E-1;6.500199795E0
3.977278438E1;3.000099897E0;1.445199966E0;4.296400070E0
3.979263750E1;3.269599915E0;7.425999641E-1;1.624499917E0
3.981248906E1;2.439599991E0;-1.479000002E-1;-6.103999615E-1
3.983234219E1;4.174000025E-1;-1.197899938E0;-6.427999735E-1
3.985219531E1;-1.744699955E0;-2.070099831E0;-6.013000011E-1
3.987204844E1;-3.330299854E0;-2.644899845E0;-6.254999638E-1
3.989190000E1;-3.863299847E0;-2.797699928E0;-9.512999654E-1
3.991175313E1;-3.058199883E0;-2.486399889E0;-7.734000087E-1
3.993160625E1;-2.464999914E0;-2.561100006E0;-6.040999889E-1
3.995145781E1;-1.913199902E0;-2.840999842E0;-3.946000040E-1
3.997131094E1;-5.022000074E-1;-3.264899969E0;4.289999977E-2
3.999116406E1;1.192299962E0;-2.888900042E0;7.479999959E-2
4.001101563E1;6.913999915E-1;-2.080199957E0;-1.220499992E0
4.003086875E1;-1.512999982E-1;-6.963999867E-1;-2.289399862E0
4.005072188E1;-4.334999919E-1;2.050999999E-1;-2.926499844E0
4.007057500E1;1.615999937E-1;1.859399915E0;-1.541000009E0
4.009042656E1;1.998600006E0;3.418499947E0;-1.369999945E-1
4.011027969E1;4.574100018E0;2.950899839E0;-1.653800011E0
4.013013281E1;2.868999958E0;2.256700039E0;-3.933399916E0
4.014998438E1;9.006999731E-1;3.001199961E0;-5.812200069E0
4.016984531E1;3.964999914E-1;4.314099789E0;-3.642799854E0
4.018969063E1;5.076000094E-1;8.319000006E-1;-1.171999946E-1
4.020954219E1;2.590299845E0;-1.629999995E0;3.065399885E0
4.022939531E1;3.625299931E0;-1.143499970E0;6.502399921E0
4.024924844E1;2.840800047E0;1.149099946E0;5.285999775E0
4.026910156E1;-3.229999840E-1;1.271700025E0;3.447799921E0
4.028895312E1;-9.389999509E-1;1.330799937E0;2.830699921E0
4.030880625E1;-4.055999815E-1;1.071699977E0;1.593099952E0
4.032865938E1;-7.946999669E-1;6.952999830E-1;3.450999856E-1
4.034851094E1;-1.317799926E0;-1.638000011E-1;-8.475999832E-1
4.036836406E1;-1.711300015E0;-1.815899968E0;-9.972999692E-1
4.038821719E1;-1.326599956E0;-2.578199863E0;-2.031999975E-1
4.040806875E1;-1.067600012E0;-3.003399849E0;-9.049999714E-2
4.042792188E1;-1.139299989E0;-2.563499928E0;-2.963999808E-1
4.044777500E1;-1.192799926E0;-1.890199900E0;-7.549999952E-1
4.046762813E1;-1.882399917E0;-1.396199942E0;-1.001999974E0
4.048747969E1;-2.612900019E0;-8.290999532E-1;-1.077299953E0
4.050733281E1;-2.271899939E0;-1.419000030E-1;-8.545999527E-1
4.052718438E1;-1.623099923E0;-6.000000052E-3;-8.246999979E-1
4.054703750E1;-5.153999925E-1;4.690999985E-1;-1.250599980E0
4.056689062E1;7.119999826E-2;7.690999508E-1;-2.135900021E0
4.058674375E1;7.957999706E-1;1.307199955E0;-1.975499988E0
4.060659531E1;1.499300003E0;2.501999855E0;-6.979999691E-2
