"Time (s)";"Acceleration x (m/s^2)";"Acceleration y (m/s^2)";"Acceleration z (m/s^2)"
0.000000000E0;-4.927305222E0;5.981482029E0;6.494492054E0
1.191093800E-2;-5.152695179E0;5.964847088E0;6.139010906E0
2.382343800E-2;-5.666471958E0;5.592673302E0;5.772947311E0
3.573437500E-2;-5.850873470E0;5.189269543E0;5.731632710E0
4.764687500E-2;-6.031654835E0;5.025142193E0;5.545258522E0
5.955781300E-2;-6.538143635E0;4.632780075E0;5.443533897E0
7.146875000E-2;-6.406998634E0;4.434770107E0;4.688057423E0
8.338750000E-2;-5.905135632E0;4.728624821E0;4.309409618E0
9.529375000E-2;-5.264964581E0;5.378593445E0;4.318967342E0
1.072046880E-1;-4.828760147E0;5.344164371E0;5.408760071E0
1.191156250E-1;-4.393685341E0;5.794925690E0;6.492241859E0
1.310281250E-1;-3.986719131E0;5.707058430E0;8.188830376E0
1.429421880E-1;-4.001429081E0;4.959454536E0;8.398983955E0
1.548515630E-1;-4.467159271E0;4.127278328E0;7.967414856E0
1.667625000E-1;-4.836545944E0;3.739628077E0;7.759722710E0
1.786734380E-1;-4.752020836E0;3.735826254E0;7.464412212E0
1.905859380E-1;-4.339375496E0;4.172001839E0;6.540336609E0
2.025031250E-1;-4.193865776E0;4.520971298E0;5.952387810E0
2.144093750E-1;-4.224109173E0;4.671010971E0;5.681680202E0
2.263203130E-1;-4.267405987E0;4.460713863E0;6.035523891E0
2.382328130E-1;-4.189508438E0;3.609019518E0;8.565132141E0
2.501515630E-1;-3.778462172E0;2.916003704E0;1.023367023E1
2.620609380E-1;-3.908208847E0;3.410712719E0;1.055412006E1
2.739671880E-1;-3.439644337E0;3.430076838E0;1.055117035E1
2.858781250E-1;-2.689454556E0;3.258594751E0;1.127999401E1
2.977906250E-1;-1.366485834E0;2.159684896E0;1.170933247E1
3.097015630E-1;-2.412263632E0;4.322779179E0;1.153451633E1
3.216125000E-1;-3.346145868E0;4.936930180E0;1.065209103E1
3.335250000E-1;-3.453616619E0;5.591706276E0;9.246646881E0
3.454375000E-1;-3.439385653E0;4.925936222E0;7.158739567E0
3.573484380E-1;-3.160825253E0;4.608417034E0;4.943107128E0
3.692671880E-1;-4.077775478E0;4.626430511E0;5.322252750E0
3.811703130E-1;-5.407553673E0;4.568989277E0;5.647155762E0
3.930828130E-1;-3.882313013E0;4.373201370E0;5.456653595E0
4.049937500E-1;-2.834485769E0;4.474092960E0;6.491868019E0
4.169171880E-1;-2.736400127E0;4.334118366E0;7.027671337E0
4.288203130E-1;-2.659412146E0;3.901705980E0;6.484886646E0
4.407281250E-1;-2.700544596E0;3.170143366E0;6.278391838E0
4.526468750E-1;-2.927936316E0;2.135263920E0;6.682513714E0
4.645515630E-1;-3.187640190E0;8.945407867E-1;8.574976921E0
4.764640630E-1;-3.778529167E0;-7.234320045E-2;1.008463573E1
4.883828130E-1;-3.755784273E0;5.690538883E-2;1.076373768E1
5.002859380E-1;-2.997262716E0;6.212953329E-1;1.082567978E1
5.121984380E-1;-2.646588802E0;6.548429132E-1;9.975632668E0
5.241093750E-1;-2.664957285E0;5.833712220E-1;9.340690613E0
5.360406250E-1;-3.356201410E0;2.179489732E-1;9.062331200E0
5.479328130E-1;-4.212185860E0;-4.690336883E-1;7.999909401E0
5.598500000E-1;-3.795968533E0;-3.735433221E-1;6.971666336E0
5.717562500E-1;-2.661069155E0;5.697050691E-1;7.277386665E0
5.836671880E-1;-1.797614455E0;1.357129216E0;8.951987267E0
5.955796880E-1;-1.701501727E0;1.150471449E0;1.057380962E1
6.074953130E-1;-3.227987289E0;-1.039868951E0;1.492598915E1
6.194015630E-1;-3.065488100E0;-2.016971350E0;1.014311218E1
6.313140630E-1;-4.607746601E0;-3.254390478E0;1.083092785E1
6.432265630E-1;-5.082124233E0;-3.827610254E0;9.260676384E0
6.551390630E-1;-4.586993694E0;-3.534703732E0;9.665784836E0
6.670500000E-1;-3.408040762E0;-2.584521532E0;1.005336857E1
6.789609380E-1;-2.228896379E0;-1.520078659E0;1.050324821E1
6.908812500E-1;-8.453543186E-1;-4.365108535E-2;1.227565670E1
7.027843750E-1;-2.836075425E-1;1.026394248E0;1.368377209E1
7.146953130E-1;-3.121176958E-1;1.167834163E0;1.308891869E1
7.266062500E-1;-9.672766328E-1;1.127822280E0;1.186468697E1
7.385187500E-1;-1.303700328E0;1.018005013E0;1.083419323E1
7.504296880E-1;-1.038374901E0;1.543168306E0;1.008643627E1
7.623421880E-1;-7.013670206E-1;2.240417242E0;1.034847736E1
7.742734380E-1;-5.604443550E-1;2.036460161E0;1.075271416E1
7.861656250E-1;-1.028070211E0;1.273504615E0;1.041892338E1
7.980765630E-1;-1.601117611E0;1.171454072E0;9.674231529E0
8.099875000E-1;-9.017042518E-1;1.694884181E0;5.557105064E0
8.219000000E-1;-4.883309603E-1;2.332967520E0;6.064455509E0
8.338156250E-1;-1.293970227E0;1.962124825E0;8.797886848E0
8.457328130E-1;-1.969862938E0;1.377049088E0;9.549321175E0
8.576343750E-1;-2.136432409E0;1.239372969E0;9.614645004E0
8.695453130E-1;-1.995643735E0;1.690143585E0;9.738243103E0
8.814578130E-1;-1.440754056E0;1.489672184E0;8.996452332E0
8.933687500E-1;-1.548933625E0;2.260011435E0;1.046479702E1
9.052843750E-1;-1.292677402E0;3.051572800E0;1.059915924E1
9.172031250E-1;-5.512218475E-1;3.407245874E0;9.681644440E0
9.291046880E-1;-3.567360714E-2;3.202484131E0;8.214219093E0
9.410156250E-1;-5.859664679E-1;2.879410744E0;7.626920700E0
9.529265630E-1;-2.045127153E-1;2.868780375E0;7.677007675E0
9.648390630E-1;-1.993986964E-1;2.915993929E0;8.463426590E0
9.767515630E-1;-5.071398020E-1;2.318631172E0;9.691192627E0
9.886625000E-1;1.825530827E-1;2.187438488E0;1.057412624E1
1.000573438E0;6.724450588E-1;2.822869062E0;9.764664650E0
1.012484375E0;6.826635003E-1;2.937522650E0;8.889565468E0
1.024406250E0;1.230792165E0;3.173533440E0;9.476480484E0
1.036307813E0;1.654268980E0;3.630174875E0;8.847360611E0
1.048225000E0;1.562886953E0;3.697451830E0;7.846440315E0
1.060131250E0;5.773282647E-1;3.146431208E0;7.530587673E0
1.072042188E0;4.755171835E-1;2.989007473E0;7.669835091E0
1.083953125E0;1.181959987E0;3.627761364E0;6.982038021E0
1.095865625E0;2.066435575E0;4.294527531E0;7.421910286E0
1.107776563E0;2.961436033E0;4.639225483E0;8.217408180E0
1.119689063E0;3.518241167E0;4.574716091E0;8.536918640E0
1.131601563E0;3.041363955E0;3.919308186E0;9.348055840E0
1.143512500E0;2.291749001E0;3.389442682E0;9.642177582E0
1.155423438E0;2.284863234E0;3.729716063E0;8.635712624E0
1.167335938E0;2.047799110E0;3.787177086E0;7.599885941E0
1.179246875E0;2.747432709E0;4.089804173E0;7.273967743E0
1.191162500E0;3.650276661E0;5.021723270E0;6.772794247E0
1.203070313E0;3.711903334E0;5.271821499E0;6.591716290E0
1.214982813E0;3.539760351E0;4.994783878E0;6.988214970E0
1.226893750E0;3.595123768E0;4.985024929E0;7.374217987E0
1.238806250E0;3.244574308E0;4.818541527E0;7.586976051E0
1.250717188E0;2.549039602E0;4.299602985E0;7.931894302E0
1.262628125E0;3.284346581E0;4.302274704E0;7.396809578E0
1.274540625E0;3.758982897E0;5.925869465E0;8.574679375E0
1.286451563E0;3.744617701E0;6.062788963E0;7.308396339E0
1.298364063E0;3.010909557E0;5.461710453E0;6.662220478E0
1.310281250E0;2.712074995E0;5.218162537E0;6.691362858E0
1.322190625E0;2.164597750E0;4.614201069E0;7.023687363E0
1.334098438E0;1.861577988E0;4.181454182E0;7.767766953E0
1.346009375E0;2.075629234E0;4.030963898E0;9.065155983E0
1.357921875E0;3.810812473E0;4.848603249E0;9.612240791E0
1.369832813E0;4.882313251E0;5.602058411E0;8.874319077E0
1.381743750E0;4.513932228E0;5.492269993E0;8.232960701E0
1.393656250E0;4.182421207E0;5.168018341E0;7.938004494E0
1.405567188E0;3.925293684E0;4.821270943E0;8.000435829E0
1.417479688E0;3.532778502E0;4.532339096E0;7.979165554E0
1.429410938E0;3.257704020E0;4.154648304E0;7.985974789E0
1.441301563E0;3.486819506E0;3.984076262E0;7.870459557E0
1.453215625E0;4.764719963E0;4.719814301E0;8.098483086E0
1.465125000E0;5.316650391E0;4.667946339E0;8.557317734E0
1.477035938E0;5.767105103E0;4.296548367E0;9.098752022E0
1.488948438E0;6.270921707E0;4.309802055E0;9.242796898E0
1.500859375E0;6.452517033E0;4.262032986E0;9.408724785E0
1.512771875E0;6.182058811E0;3.800976992E0;9.341245651E0
1.524682813E0;5.665552616E0;3.266418934E0;9.241053581E0
1.536593750E0;5.430758476E0;3.218841314E0;8.056373596E0
1.548506250E0;5.342191696E0;3.103364229E0;7.287729263E0
1.560417188E0;6.091413975E0;3.429751396E0;7.090724945E0
1.572329688E0;6.678654194E0;3.735960245E0;7.752425194E0
1.584240625E0;6.875773907E0;3.771250725E0;8.381937027E0
1.596153125E0;6.428766727E0;3.564229012E0;8.360887527E0
1.608070313E0;5.627628326E0;3.265145302E0;7.697703362E0
1.619987500E0;5.142189980E0;2.961033583E0;7.515935421E0
1.631887500E0;5.116715431E0;2.659728289E0;7.882037640E0
1.643800000E0;5.404957771E0;2.447697639E0;8.462430954E0
1.655710938E0;5.827630520E0;2.528554678E0;8.638327599E0
1.667621875E0;5.855729103E0;2.353356600E0;8.827747345E0
1.679534375E0;5.249660492E0;1.391625047E0;9.168241501E0
1.691445313E0;4.816482544E0;6.587502360E-1;8.987709045E0
1.703356250E0;4.638593197E0;5.759013295E-1;8.741632462E0
1.715268750E0;4.760850906E0;6.047466397E-1;8.427197456E0
1.727179688E0;5.324177742E0;1.096324086E0;7.070115566E0
1.739095313E0;5.800422668E0;1.935223579E0;5.357428551E0
1.751003125E0;5.639120579E0;1.987513065E0;4.642759323E0
1.762915625E0;5.106401443E0;1.689961672E0;4.714374542E0
1.774828125E0;4.608292580E0;1.447716355E0;5.262034416E0
1.786739063E0;4.512265682E0;1.485037088E0;5.654721260E0
1.798654688E0;4.265490532E0;1.230313182E0;5.748315334E0
1.810560938E0;4.415770054E0;1.009232640E0;6.103174210E0
1.822473438E0;5.011926174E0;1.353911519E0;6.461031437E0
1.834385938E0;5.965201855E0;2.090377331E0;6.399002075E0
1.846296875E0;6.937371731E0;2.889121532E0;6.375797272E0
1.858207813E0;7.832516193E0;3.340514660E0;6.344529152E0
1.870118750E0;8.391638756E0;3.822295189E0;6.360608578E0
1.882031250E0;7.974664688E0;3.509622097E0;6.017711163E0
1.893942188E0;7.145906925E0;2.834399700E0;5.462055206E0
1.905868750E0;6.632455826E0;2.731075525E0;4.991316795E0
1.917765625E0;6.274695396E0;2.903639793E0;4.785003185E0
1.929676563E0;5.771864891E0;2.712218761E0;5.270087719E0
1.941589063E0;5.600717545E0;2.329385996E0;5.927277565E0
1.953501563E0;6.282088280E0;2.414992809E0;7.215472698E0
1.965412500E0;7.213797092E0;2.521400928E0;8.267609596E0
1.977323438E0;8.158644676E0;2.825081348E0;8.613610268E0
1.989235938E0;8.922863960E0;3.529177666E0;7.743719578E0
2.001146875E0;9.160819054E0;3.950289011E0;6.389492035E0
2.013057813E0;9.149633408E0;4.137764454E0;5.993989468E0
2.024970313E0;9.383336067E0;4.170163155E0;6.431113243E0
2.036884375E0;8.641410828E0;3.232105255E0;7.376401424E0
2.048793750E0;8.800060272E0;3.120659828E0;7.460025787E0
2.060704688E0;8.742561340E0;2.744272232E0;8.201624870E0
2.072617188E0;8.454788208E0;2.094323158E0;7.972375393E0
2.084528125E0;8.408177376E0;1.522645235E0;7.126973629E0
2.096439063E0;8.787295341E0;1.289268017E0;6.374361038E0
2.108351563E0;9.278010368E0;1.616172314E0;5.568165779E0
2.120262500E0;9.737438202E0;1.814335585E0;5.030236721E0
2.132175000E0;9.991808891E0;1.779993176E0;5.171849251E0
2.144085938E0;9.848270416E0;1.654383779E0;5.512735844E0
2.155998438E0;9.689918518E0;1.609784722E0;6.000482559E0
2.167909375E0;9.449205399E0;1.495858908E0;6.936663151E0
2.179820313E0;8.706045151E0;1.372748971E0;7.023830891E0
2.191732813E0;8.262160301E0;1.674456835E0;6.304498196E0
2.203643750E0;8.039614677E0;2.220660448E0;5.061916828E0
2.215556250E0;7.620696068E0;2.552477598E0;3.680405378E0
2.227467188E0;7.493573666E0;2.833719730E0;2.991784811E0
2.239379688E0;7.671673298E0;3.054378986E0;3.210538387E0
2.251290625E0;7.998960972E0;2.871663094E0;4.173505306E0
2.263220313E0;8.325156212E0;2.697872639E0;5.268019676E0
2.275114063E0;8.148760796E0;2.370633125E0;6.003355503E0
2.287025000E0;7.269303799E0;1.739023566E0;6.398542404E0
2.298937500E0;6.812585831E0;1.554832935E0;6.178448200E0
2.310848438E0;6.479121685E0;1.432173133E0;5.181196213E0
2.322760938E0;6.038052082E0;1.316667199E0;4.091144562E0
2.334671875E0;5.857605934E0;1.219893694E0;3.297955275E0
2.346589063E0;5.911552429E0;1.280419111E0;2.805583000E0
2.358495313E0;6.100492954E0;1.303499103E0;2.566679955E0
2.370406250E0;5.943251610E0;9.493584633E-1;2.736160755E0
2.382317188E0;5.491590023E0;6.360819340E-1;2.602669716E0
2.394229688E0;5.414352894E0;6.408128738E-1;2.787243366E0
2.406140625E0;6.121026039E0;9.155427217E-1;3.179241180E0
2.418053125E0;6.901209831E0;1.170084715E0;3.538955927E0
2.429964063E0;7.799734592E0;1.338042736E0;4.097302914E0
2.441876563E0;8.232252121E0;1.194668293E0;4.423057556E0
2.453787500E0;8.335125923E0;1.244860411E0;4.358356953E0
2.465698438E0;9.178460121E0;1.722273827E0;4.322960854E0
2.477609375E0;1.021420097E1;2.254006863E0;4.559431553E0
2.489521875E0;1.032547379E1;2.239296913E0;4.716424465E0
2.501440625E0;9.820928574E0;1.794339180E0;4.709212780E0
2.513345313E0;9.089443207E0;1.364129901E0;4.751733780E0
2.525260938E0;7.793002129E0;7.403063178E-1;4.248941898E0
2.537167188E0;6.842149258E0;3.328419328E-1;4.083971500E0
2.549079688E0;7.044679642E0;4.117548168E-1;4.090771198E0
2.560990625E0;7.972002029E0;9.768247008E-1;3.908046007E0
2.572903125E0;9.409059525E0;1.658118725E0;4.038587570E0
2.584814063E0;1.023640919E1;1.712907672E0;4.360645294E0
2.596726563E0;1.118672562E1;1.813550234E0;4.881815434E0
2.608637500E0;1.231217289E1;1.868195534E0;5.613301754E0
2.620550000E0;1.396465969E1;2.227153540E0;6.280871868E0
2.632460938E0;1.516655922E1;2.381943464E0;6.059216976E0
2.644373438E0;1.576962948E1;2.572665453E0;5.779258251E0
2.656284375E0;1.577364254E1;2.466870546E0;5.386369705E0
2.668196875E0;1.469373322E1;1.851828814E0;4.758217335E0
2.680106250E0;1.265175724E1;8.456033468E-1;4.058056831E0
2.692018750E0;1.002730942E1;-2.123082280E-1;3.091489077E0
2.703937500E0;7.255800724E0;-9.042612314E-1;1.838038206E0
2.715842188E0;5.281963348E0;-1.696483374E0;1.114242315E0
2.727754688E0;7.153539658E0;-9.458724856E-1;1.907010317E0
2.739665625E0;1.004078388E1;5.476209521E-1;2.922046661E0
2.751579688E0;1.214165688E1;1.349257231E0;3.849004984E0
2.763489063E0;1.305456638E1;1.754317760E0;4.537041187E0
2.775400000E0;1.305628109E1;1.812056422E0;4.766003609E0
2.787312500E0;1.151385975E1;1.378207922E0;4.023427010E0
2.799231250E0;9.687974930E0;5.345486403E-1;2.653608561E0
2.811135938E0;7.284818172E0;4.543237090E-1;2.026864052E0
2.823046875E0;6.031281471E0;-7.121217847E-1;3.037983418E0
2.834957813E0;5.891201496E0;-2.164252996E0;4.863160133E0
2.846870313E0;7.638988018E0;-1.316313028E0;5.337489605E0
2.858792188E0;8.369142532E0;-1.333627820E0;4.140436649E0
2.870692188E0;8.083466530E0;-1.433849096E0;3.228418112E0
2.882609375E0;8.316738129E0;-1.821748018E0;1.629455328E0
2.894515625E0;8.171247482E0;-2.110747337E0;1.022046328E0
2.906428125E0;8.257324219E0;-2.644654274E0;1.189535141E0
2.918351563E0;8.271746635E0;-3.346969366E0;6.450170875E-1
2.930251563E0;9.111622810E0;-3.351279020E0;8.945599198E-1
2.942162500E0;9.078496933E0;-4.005192757E0;1.573957801E0
2.954073438E0;8.871071815E0;-4.416689396E0;1.457436800E0
2.965985938E0;1.069067574E1;-2.868167400E0;9.858460426E-1
2.977934375E0;9.933925629E0;-3.265528202E0;2.640900314E-1
2.989810938E0;8.773878098E0;-3.749769926E0;-1.718012094E0
3.001720313E0;8.955751419E0;-2.914212704E0;-2.911607981E0
3.013631250E0;1.204032516E1;-8.750711679E-1;-3.641916037E0
3.025543750E0;1.535471439E1;2.403682709E0;-3.603503466E0
3.037454688E0;1.295351315E1;1.017210126E0;2.106868744E0
3.049367188E0;1.050822735E1;-2.178752184E0;3.945989370E0
3.061278125E0;9.764339447E0;-1.858072877E0;5.262675762E0
3.073189063E0;9.123306274E0;-7.492223382E-1;4.738317013E0
3.085101563E0;8.101873398E0;-2.533065341E-2;4.117231846E0
3.097018750E0;7.916073799E0;9.778302908E-1;1.485094547E0
3.108926563E0;7.901085854E0;1.377489567E0;-1.494336128E0
3.120835938E0;7.111047268E0;7.992324233E-1;-3.104647398E0
3.132746875E0;6.195820332E0;-4.493246078E-1;-3.730099201E0
3.144659375E0;5.865612507E0;-2.695612431E0;-4.086059570E0
3.156570313E0;7.155952454E0;-2.767764091E0;-1.642709732E0
3.168482813E0;9.287673950E0;-1.710130423E-1;-2.018312067E-1
3.180393750E0;1.218285751E1;7.923562527E-1;-8.553429246E-1
3.192304688E0;1.270891094E1;5.504748598E-2;-2.283829212E0
3.204217188E0;1.240374565E1;-8.228296638E-1;-1.841179490E0
3.216128125E0;1.350769329E1;-1.703340411E0;-1.491606832E0
3.228040625E0;1.312310886E1;-1.670348406E0;-3.666576147E-1
3.239951563E0;1.137129879E1;-8.140381575E-1;-4.161697030E-1
3.251864063E0;1.084053326E1;1.294305474E-1;-1.455281973E0
3.263775000E0;1.017613316E1;-4.537107944E-1;-1.145165801E0
3.275692188E0;9.552778244E0;-2.264225245E0;-1.630259752E0
3.287600000E0;8.763840675E0;-1.579789996E0;-5.284194946E-1
3.299510938E0;8.117061615E0;2.647700012E-1;1.780491233E0
3.311421875E0;9.868411064E0;2.895930409E-1;4.983722210E0
3.323334375E0;9.805118561E0;-8.559558392E-1;6.938195229E0
3.335251563E0;6.871713161E0;-5.085418224E0;7.918333530E0
3.347156250E0;6.826510906E0;-5.478814602E0;4.724421024E0
3.359071875E0;1.000688171E1;-3.078512430E0;2.401345968E0
3.370979688E0;1.206300259E1;-1.156466484E0;1.060535610E-1
3.382892188E0;9.716992378E0;-2.715944052E0;-1.279327273E0
3.394809375E0;6.976358891E0;-4.966110706E0;-2.310653448E0
3.406715625E0;7.208998680E0;-6.135275841E0;-2.823491812E0
3.418631250E0;8.533940315E0;-5.273458958E0;-2.913245440E0
3.430542188E0;9.234713554E0;-4.280574322E0;-3.132448912E0
3.442448438E0;1.071792221E1;-3.950413465E0;-5.162818432E0
3.454360938E0;8.708381653E0;-3.629159689E0;-1.889906287E0
3.466275000E0;8.010577202E0;-3.740940094E0;-8.790167570E-1
3.478184375E0;6.422982216E0;-4.376179218E0;-2.874191403E-1
3.490095313E0;7.682332516E0;-2.447228432E0;1.672551036E0
3.502006250E0;2.213950729E1;8.430482864E0;-2.344306707E0
3.513918750E0;7.282577038E0;-4.654318333E0;3.790433168E0
3.525829688E0;9.911573410E0;-3.066666126E0;3.782876968E0
3.537740625E0;1.469308186E1;-2.194410324E0;4.777869210E-2
3.549653125E0;1.445185184E1;-2.244439602E0;2.393148243E-1
3.561564063E0;1.240408134E1;-2.819804668E0;-9.645089507E-1
3.573476563E0;8.361499786E0;-3.813838959E0;-3.503895044E0
3.585390625E0;6.421479225E0;-3.185360909E0;-3.811655283E0
3.597300000E0;6.964253902E0;-3.075361490E0;-4.084029198E0
3.609210938E0;7.043339252E0;-2.874765873E0;-2.695516825E0
3.621123438E0;1.028850651E1;-1.216694951E0;2.078712940E0
3.633040625E0;9.866620064E0;-2.948478460E0;1.731544137E0
3.644946875E0;7.708956242E0;-4.797960758E0;-6.117759943E-1
3.656857813E0;7.006487846E0;-5.174348831E0;-2.256353140E0
3.668768750E0;6.330000877E0;-5.899246216E0;-3.663013697E0
3.680681250E0;5.946047783E0;-6.084097862E0;-3.434118509E0
3.692600000E0;5.926348209E0;-6.748555660E0;-2.334461689E0
3.704503125E0;8.667057991E0;-8.218988419E0;-1.273284316E0
3.716415625E0;9.990524292E0;-8.376420975E0;-1.682539582E0
3.728328125E0;1.006516647E1;-5.782524109E0;1.366763592E0
3.740239063E0;9.982269287E0;-5.185276031E0;1.527644277E0
3.752150000E0;1.045202160E1;-6.831691742E0;1.929123282E0
3.764062500E0;8.445718765E0;-7.991940975E0;-3.117920756E-1
3.775973438E0;1.121421051E1;-5.809731483E0;-5.677016258E0
3.787885938E0;1.267575550E1;-5.098797321E0;-7.642473698E0
3.799796875E0;1.460699654E1;-5.147016525E0;-5.684715748E0
3.811714063E0;1.563604259E1;-4.492575645E0;-2.152856588E0
3.823618750E0;1.520294094E1;-4.381005764E0;-9.692686200E-1
3.835531250E0;1.412753296E1;-3.907269955E0;1.238051295E0
3.847442188E0;1.132433510E1;-3.406355143E0;1.320411921E0
3.859354688E0;9.092354774E0;-3.953641176E0;4.193377495E0
3.871265625E0;6.397201538E0;-5.590575695E0;3.675157070E0
3.883178125E0;5.374360561E0;-7.155589104E0;2.737223864E0
3.895089063E0;8.598506927E0;-6.727840900E0;3.889045477E0
3.907001563E0;1.006713009E1;-6.072796822E0;4.406001568E0
3.918912500E0;1.107764530E1;-4.720781803E0;4.045808315E0
3.930828125E0;1.079538822E1;-3.208211184E0;3.977065802E0
3.942739063E0;9.639869690E0;-2.127631426E0;3.027276516E0
3.954646875E0;9.947840691E0;-3.152167797E0;2.239066839E0
3.966557813E0;8.868955612E0;-4.337431431E0;3.907624483E0
3.978470313E0;5.863132000E0;-5.675359249E0;5.186702728E0
3.990389063E0;2.734044075E0;-7.150245190E0;4.217865467E0
4.002293750E0;1.317414284E0;-6.806926250E0;2.844263554E0
4.014204688E0;2.817496538E0;-5.746658802E0;1.475086808E0
4.026117188E0;3.926069260E0;-5.280622482E0;1.697699666E0
4.038028125E0;4.345293999E0;-3.927946568E0;-1.634148002E0
4.049939063E0;3.074509382E0;-3.113477230E0;-3.292362452E0
4.061850000E0;5.111237764E-1;-3.675463676E0;-2.401489735E0
4.073762500E0;-2.707841992E-1;-4.026587486E0;-2.720119715E0
4.085675000E0;2.464802027E0;-3.893613577E0;-1.454870224E0
4.097585938E0;4.637386799E0;-3.651167154E0;1.440198541E0
4.109496875E0;8.028600693E0;-3.716165066E0;3.596110106E0
4.121409375E0;8.759139061E0;-4.171312332E0;2.538141012E0
4.133321875E0;1.116329098E1;-3.452295065E0;-2.017153263E0
4.145232813E0;1.311378002E1;-2.457341671E0;-3.892617702E0
4.157145313E0;1.345188999E1;-3.264934540E0;-2.016262531E0
4.169059375E0;1.330214691E1;-3.391578197E0;-1.630365133E0
4.180967188E0;1.326090813E1;-3.845538139E0;-1.310174227E0
4.192879688E0;1.152629948E1;-5.295179367E0;-1.299381137E0
4.204790625E0;1.067066002E1;-5.016168594E0;-1.918502569E0
4.216703125E0;9.869885445E0;-5.536303997E0;-1.967880607E0
4.228614063E0;8.964542389E0;-5.648123264E0;-2.365892649E0
4.240525000E0;8.838818550E0;-5.638536453E0;-2.687472105E0
4.252437500E0;8.449185371E0;-6.180248737E0;-3.359352350E0
4.264348438E0;5.595162868E0;-5.672620773E0;-1.766834736E0
4.276259375E0;3.223275423E0;-5.707240582E0;6.665457040E-2
4.288171875E0;4.767363071E0;-9.568244934E0;-2.841476917E0
4.300082813E0;6.996384144E0;-1.185584736E1;-1.262395501E0
4.311995313E0;9.986962318E0;-1.189203835E1;2.493225932E-1
4.323906250E0;1.085102940E1;-1.127773380E1;1.337602139E0
4.335818750E0;1.012237835E1;-1.106899834E1;1.609286666E-1
4.347728125E0;9.581834793E0;-1.092502022E1;-1.749146223E0
4.359642188E0;9.358733177E0;-1.068242073E1;-1.829466939E0
4.371553125E0;8.709138870E0;-9.585301399E0;-1.207213998E0
4.383464063E0;8.113547325E0;-8.876024246E0;-6.033387966E-3
4.395376563E0;7.584246635E0;-9.388584137E0;8.401445150E-1
4.407287500E0;7.492864609E0;-9.275951385E0;1.251774788E0
4.419206250E0;8.111038208E0;-9.395336151E0;1.149915934E0
4.431110938E0;8.755442619E0;-8.428126335E0;1.577127695E0
4.443021875E0;1.132781029E1;-8.830179214E0;2.936632037E-1
4.454934375E0;9.783637047E0;-7.070077419E0;1.697833776E0
4.466859375E0;8.110061646E0;-8.035582542E0;3.781603336E0
4.478756250E0;4.351356506E0;-7.890924931E0;2.850871801E0
4.490668750E0;2.512302876E0;-6.646485806E0;2.008208513E0
4.502579688E0;8.350496888E-1;-6.557527065E0;1.104847431E0
4.514492188E0;-1.668662876E-1;-7.184146881E0;-5.142745376E-2
4.526403125E0;6.153289676E-1;-7.238054752E0;-8.928552866E-1
4.538318750E0;6.919721961E-1;-7.299633980E0;-7.344070077E-1
4.550226563E0;8.243140578E-1;-7.201423168E0;4.310808182E-1
4.562137500E0;1.980474114E0;-6.535270691E0;9.788262844E-1
4.574050000E0;3.988452673E0;-6.747157097E0;1.376503229E0
4.585968750E0;6.355475426E0;-8.228239059E0;1.862123847E0
4.597871875E0;6.799791336E0;-9.156002045E0;-9.860280901E-2
4.609784375E0;6.687312126E0;-9.222359657E0;-6.789476871E-1
4.621696875E0;4.361201286E0;-8.448457718E0;-1.733612657E0
4.633607813E0;3.088156223E0;-7.036156654E0;-2.274060488E0
4.645518750E0;2.392276764E0;-6.530070305E0;-3.138290882E0
4.657431250E0;2.058802843E0;-6.718235493E0;-2.621918917E0
4.669357813E0;2.193519831E0;-6.485854149E0;-2.650113106E0
4.681253125E0;1.322997570E0;-6.805585384E0;-1.600284316E-2
4.693165625E0;1.468229890E0;-7.933129787E0;-1.892376989E-1
4.705076563E0;8.534275293E-1;-9.077376366E0;1.458566785E0
4.716989063E0;9.026619196E-1;-8.921963692E0;2.561728716E0
4.728900000E0;1.224040389E0;-7.974683762E0;1.630058765E0
4.740812500E0;7.654070854E-1;-7.220749378E0;3.366726339E-1
4.752723438E0;3.417962417E-2;-7.078505516E0;-9.940820932E-1
4.764646875E0;4.144650698E-1;-7.706581116E0;-2.176080227E0
4.776546875E0;1.098249078E0;-8.125164032E0;-2.474369049E0
4.788457813E0;8.689420223E-1;-8.623244286E0;-8.052849770E-1
4.800370313E0;1.421418309E0;-9.587312698E0;8.829337358E-1
4.812281250E0;1.562178373E0;-1.098147583E1;7.751180530E-1
4.824196875E0;1.505502820E0;-1.268912506E1;-4.022546113E-1
4.836104688E0;2.429358244E0;-1.379104233E1;-2.874871016E0
4.848017188E0;3.487107038E0;-1.506612682E1;-5.211554527E0
4.859928125E0;3.696589947E0;-1.482906246E1;-7.027020454E0
4.871839063E0;3.774142981E0;-1.356943417E1;-6.586745739E0
4.883754688E0;3.505532742E0;-1.214765263E1;-3.007711172E0
4.895664063E0;2.197360039E0;-1.100506306E1;-1.582481027E0
4.907573438E0;1.092972279E0;-1.044638062E1;2.229767889E-1
4.919485938E0;1.212021470E0;-1.043441868E1;1.672282815E0
4.931396875E0;1.777771354E0;-1.104071808E1;1.832636952E0
4.943320313E0;1.759872317E0;-1.002844906E1;2.713942528E0
4.955220313E0;2.182286024E0;-8.334856987E0;5.267598152E0
4.967131250E0;2.626381874E0;-8.853997231E0;4.137650013E0
4.979043750E0;3.414045334E0;-1.032979298E1;3.221676111E0
4.990954688E0;3.282852888E0;-1.048562717E1;2.160125494E0
5.002867188E0;3.801427364E0;-9.896557808E0;1.153315663E0
5.014778125E0;7.118967056E0;-8.994507790E0;1.339709163E0
5.026689063E0;6.044363499E0;-9.040687561E0;-2.704202831E-1
5.038601563E0;7.051910877E0;-8.122089386E0;-6.703286171E-1
5.050512500E0;5.537663937E0;-8.619461060E0;-1.088155150E0
5.062425000E0;5.568616390E0;-8.269410133E0;-4.026855826E-1
5.074335938E0;5.372052193E0;-7.839066505E0;-1.027342439E0
5.086246875E0;4.874709606E0;-6.997983456E0;-5.295495391E-1
5.098159375E0;4.537644386E0;-6.391091824E0;-9.596917778E-2
5.110070313E0;4.508281708E0;-6.329771519E0;-2.188683450E-1
5.121984375E0;4.777141094E0;-6.443696976E0;-3.416621685E-1
5.133893750E0;5.221409321E0;-6.389712334E0;-6.126092076E-1
5.145804688E0;5.292018890E0;-6.387586594E0;-1.018675327E0
5.157717188E0;3.996228933E0;-6.574966431E0;-1.545840263E0
5.169629688E0;2.519935608E0;-6.997753620E0;-1.459007382E0
5.181540625E0;3.506911516E0;-7.434494019E0;-1.233195782E0
5.193451563E0;4.272472382E0;-7.974693298E0;-2.110766649E0
5.205364063E0;4.787416935E0;-7.930458069E0;-1.895575643E0
5.217275000E0;6.993051052E0;-8.753087044E0;-2.262137413E0
5.229187500E0;8.451580048E0;-1.046156979E1;-1.456546187E0
5.241120313E0;9.321949005E0;-1.212618160E1;-1.815973282E0
5.253010938E0;9.492378235E0;-1.096191978E1;-1.076279879E0
5.264921875E0;9.249031067E0;-1.004878044E1;-1.283100605E0
5.276834375E0;8.225959778E0;-9.489801407E0;-3.072220564E0
5.288745313E0;6.504231930E0;-9.237750053E0;-2.189516544E0
5.300656250E0;7.221965790E0;-8.824050903E0;8.123047352E-1
5.312568750E0;6.958373547E0;-6.201202869E0;-5.164005756E-1
5.324479688E0;4.522933960E0;-5.846132755E0;-1.564716220E0
5.336390625E0;2.042981863E0;-5.704243183E0;-3.162146807E0
5.348303125E0;1.192053795E0;-5.585212708E0;-2.845192671E0
5.360214063E0;1.303480029E0;-5.995875835E0;-9.562058449E-1
5.372132813E0;1.550935149E0;-5.205003738E0;8.018755913E-1
5.384037500E0;4.730511665E0;-5.152858257E0;4.229500890E-1
5.395948438E0;8.317619324E0;-5.234529495E0;-2.572799444E0
5.407860938E0;9.481594086E0;-5.256297588E0;-4.845873833E0
5.419771875E0;7.257763863E0;-7.286379337E0;-2.919595003E0
5.431684375E0;4.712191582E0;-9.474957466E0;5.159791708E-1
5.443595313E0;4.436867714E0;-9.945217133E0;1.570251584E0
5.455506250E0;5.055548191E0;-1.000280285E1;1.098670363E0
5.467418750E0;5.397631645E0;-1.084671116E1;7.326257229E-2
5.479335938E0;5.143980503E0;-1.157122421E1;-6.929968596E-1
5.491242188E0;6.241569042E0;-1.197499180E1;-1.695918441E0
5.503153125E0;8.120557785E0;-1.245640945E1;-2.424790144E0
5.515064063E0;1.008255768E1;-1.708299255E1;1.378916502E0
5.526981250E0;7.531420708E0;-1.832681847E1;-2.065334171E-1
5.538887500E0;1.123372841E1;-1.372815132E1;-2.076931715E0
5.550800000E0;1.281378746E1;-1.191622925E1;-2.168083668E0
5.562710938E0;1.558332253E1;-1.119383144E1;-7.556004524E-1
5.574621875E0;1.687650871E1;-1.055519199E1;-4.806982279E-1
5.586534375E0;1.440562439E1;-9.502471924E0;-4.323162138E-1
5.598454688E0;6.524113178E0;-8.886845589E0;1.469139695E0
5.610365625E0;6.361010671E-1;-4.805086613E0;2.055125237E0
5.622270313E0;-9.485779762E0;-2.084047079E0;-7.050444931E-2
5.634181250E0;-1.050392818E1;-1.235637903E0;-7.287184000E-1
5.646092188E0;-4.396443844E0;-7.011180520E-1;-1.778422594E0
5.658003125E0;2.312703133E-1;-3.992570937E-1;-1.197368979E0
5.669914063E0;5.022058010E0;6.752606481E-2;1.306362629E0
5.681826563E0;8.969349861E0;-5.096106529E-1;2.292601347E0
5.693739063E0;9.836788177E0;-1.231931686E0;-2.568404078E-1
5.705651563E0;1.031974697E1;-2.551060200E0;-4.098892689E0
5.717579688E0;1.118621731E1;-2.772006750E0;-5.556492329E0
5.729473438E0;1.096012878E1;-2.235925674E0;-3.622724056E0
5.741385938E0;1.093696213E1;-2.578746796E0;-2.608013391E0
5.753296875E0;7.994670391E0;-2.779045582E0;-2.806454659E0
5.765209375E0;8.639093399E0;-1.191575050E0;-2.320862532E0
5.777120313E0;1.091414070E1;-1.863244414E0;-9.628042579E-1
5.789034375E0;1.047944927E1;-4.350408077E0;5.587587953E-1
5.800943750E0;8.985257149E0;-5.363845348E0;1.927370787E0
5.812854688E0;7.977757931E0;-4.615599632E0;2.321800947E0
5.824767188E0;8.568703651E0;-2.197896242E0;1.253201723E0
5.836684375E0;1.139149666E1;-4.269244671E-1;-2.260892540E-1
5.848593750E0;1.310737324E1;2.356277555E-1;1.585536152E-1
5.860501563E0;1.387739658E1;7.701764107E-1;1.023549914E0
5.872412500E0;1.487097073E1;2.036010027E0;1.540496469E0
5.884325000E0;1.536297989E1;1.465318441E0;1.547726870E0
5.896254688E0;1.405206776E1;-2.258019596E-1;2.200979948E0
5.908146875E0;9.971438408E0;1.146075726E0;-9.087910652E-1
5.920059375E0;7.636229515E0;2.480574846E0;-5.673395991E-1
5.931970313E0;8.775697708E0;3.305166721E0;-3.226042986E-1
5.943882813E0;9.872471809E0;2.989696980E0;-1.062719107E0
5.955795313E0;9.651400566E0;2.497267246E0;-8.838722706E-1
5.967704688E0;9.044096947E0;2.120343208E0;7.144680619E-1
5.979617188E0;8.608630180E0;2.539434195E0;7.014627457E-1
5.991528125E0;8.901958466E0;2.095051050E0;1.507983208E0
6.003440625E0;8.210847855E0;3.833212554E-1;4.353117943E0
6.015357813E0;1.184725666E1;-6.957454085E-1;8.783540726E0
6.027262500E0;1.070884323E1;-3.873387337E0;9.486000061E0
6.039175000E0;9.576041222E0;-2.867046833E0;7.015336514E0
6.051085938E0;7.640271187E0;-1.929985166E0;5.420913219E0
6.062998438E0;6.688039780E0;-1.568575621E0;5.136950970E0
6.074915625E0;5.394950867E0;-2.059597731E0;3.753839970E0
6.086820313E0;5.960892200E0;-3.416104555E0;1.567378521E0
6.098732813E0;6.138886452E0;-3.886115074E0;2.380593061E0
6.110643750E0;4.602364063E0;-3.748505831E0;3.646177769E0
6.122556250E0;4.562726021E0;-2.678508282E0;4.310396671E0
6.134467188E0;4.081587315E0;-9.070672393E-1;6.353004456E0
6.146384375E0;5.743737698E0;-1.578410983E0;3.803668261E0
6.158290625E0;6.976828098E0;-2.773117781E0;6.154055595E-1
6.170201563E0;5.012318611E0;-4.986432552E0;-1.866232276E0
6.182114063E0;3.780185699E0;-3.246279001E0;-6.539216518E0
6.194025000E0;4.679160595E0;-2.951265335E0;-1.249830723E0
6.205937500E0;6.896823883E0;-2.566162825E0;3.330363274E0
6.217848438E0;2.168421745E1;3.233273745E0;9.243247032E0
6.229760938E0;3.391374207E1;8.261900902E0;1.914825082E0
6.241671875E0;2.848213196E1;6.772851944E0;4.435134411E0
6.253582813E0;1.935898781E1;4.096852303E0;1.310404062E0
6.265495313E0;1.182672501E1;1.116693974E0;2.421687096E-1
6.277406250E0;5.767249107E0;-1.098478913E0;-1.337583065E0
6.289318750E0;8.980142593E0;-7.339569330E-1;-7.442231774E-1
6.301229688E0;1.437362766E1;-5.144469142E-1;1.423314571E0
6.313140625E0;1.218355560E1;-1.923846483E0;1.910496354E0
6.325053125E0;8.120548248E0;-4.433401108E0;1.276444674E0
6.336964063E0;1.261229134E1;-2.773175001E0;-5.632886291E-1
6.348876563E0;1.818119431E1;-1.865906715E0;-1.288492322E0
6.360787500E0;1.937368011E1;-5.367512703E-1;2.872467339E-1
6.372700000E0;9.561492920E0;-1.935606718E0;-5.642367601E-1
6.384610938E0;1.202799082E0;-3.290839911E0;-2.581447601E0
6.396521875E0;4.300943911E-1;-2.203996897E0;-3.636466742E0
6.408434375E0;4.160892487E0;3.630280197E-1;-6.215443015E-1
6.420345313E0;1.027027321E1;1.377221465E0;2.920217276E0
6.432256250E0;1.726267433E1;5.615590096E0;2.093164206E0
6.444168750E0;1.629071426E1;7.549904346E0;-3.227757215E0
6.456079688E0;1.255119991E1;6.073936462E0;-5.986002445E0
6.467992188E0;1.062133026E1;4.940980911E0;-2.656175375E0
6.479903125E0;1.337625217E1;6.608753204E0;-1.103248149E-1
6.491814063E0;1.308916759E1;7.861006737E0;-4.152694941E-1
6.503726563E0;1.169849968E1;6.605094910E0;1.068829060E0
6.515637500E0;9.543670654E0;7.149057388E0;3.816012621E0
6.527550000E0;7.035553455E0;7.261815071E0;4.774133682E0
6.539460938E0;5.619220257E0;7.681556702E0;3.545113564E0
6.551373438E0;5.558598995E0;7.442414284E0;3.175113678E0
6.563284375E0;4.610906601E0;7.362897873E0;1.933681726E0
6.575195313E0;5.226810455E0;5.924452305E0;1.914307922E-1
6.587107813E0;6.352391720E0;4.345073700E0;-8.324735165E-1
6.599018750E0;9.428232193E0;5.024222851E0;-7.597568631E-1
6.610931250E0;1.178723907E1;5.132066727E0;-1.879879236E0
6.622842188E0;1.222808743E1;3.990818024E0;-1.786850214E0
6.634753125E0;1.030904007E1;3.315911770E0;-2.075198174E0
6.646665625E0;6.877881050E0;2.705294609E0;-2.338752031E0
6.658578125E0;5.081855774E0;1.421791911E0;-2.631448030E0
6.670490625E0;3.891889811E0;1.382632375E0;-1.208918571E0
6.682407813E0;2.411095142E0;9.558132291E-1;1.485362649E-1
6.694312500E0;1.534874916E0;1.221167326E0;1.740105867E0
6.706223438E0;2.014299393E0;1.962843180E0;2.115009069E0
6.718137500E0;2.651310205E0;2.384069443E0;1.851215959E0
6.730046875E0;2.638917685E0;2.361582994E0;7.308061719E-1
6.741959375E0;2.667016029E0;1.813368440E0;3.734954633E-3
6.753870313E0;2.168284893E0;1.134334445E0;-1.726027876E-1
6.765781250E0;1.675050497E0;1.162528619E-1;-1.998315692E0
6.777693750E0;4.482970238E0;-2.649232149E-1;-4.805124283E0
6.789604688E0;4.381082535E0;-1.120515108E0;-5.696658134E0
6.801528125E0;8.117722511E0;-1.093259573E0;-5.147255898E0
6.813428125E0;1.339515591E1;-2.007882833E0;-3.600668669E0
6.825339063E0;1.832965469E1;-1.523650765E0;-3.098633289E0
6.837251563E0;1.182081509E1;-2.499661446E0;-5.141471863E0
6.849173438E0;6.596437454E0;-1.583323836E0;-1.552055717E0
6.861073438E0;4.511997700E0;-4.869337082E0;2.504718006E-1
6.872984375E0;8.334637642E0;-6.545019627E0;3.582309723E0
6.884896875E0;1.880834961E1;-1.577501178E0;7.460045338E0
6.896807813E0;2.777820015E1;4.341951847E0;9.297010422E0
6.908726563E0;3.209850693E1;9.639697075E0;4.985273838E0
6.920631250E0;2.860965538E1;1.212220669E1;-4.686515808E0
6.932542188E0;2.297421265E1;1.141378212E1;-1.841981125E1
6.944454688E0;1.651726151E1;4.043950558E0;-1.396324348E1
6.956365625E0;1.750935173E1;-2.656606138E-1;-3.081931353E0
6.968284375E0;2.105815315E1;-5.733634233E-1;5.137478113E-1
6.980189063E0;1.647132301E1;-9.906727672E-1;1.761720657E0
6.992100000E0;1.184945011E1;-1.343252420E0;2.500370026E0
7.004012500E0;8.069714546E0;-8.917635083E-1;2.136020422E0
7.015923438E0;7.216871262E0;5.085859299E-1;3.602555275E0
7.027835938E0;-1.411180735E0;-5.838404298E-1;7.961621284E0
7.039746875E0;1.697527289E0;-3.270479664E-2;7.997476578E0
7.051685938E0;5.312762260E0;2.333427191E0;3.505685806E0
7.063570313E0;8.230355263E0;7.074962139E0;-1.555436254E0
7.075481250E0;8.895713806E0;8.642982483E0;-3.480230808E0
7.087410938E0;8.033504486E0;7.320817471E0;-1.073837757E0
7.099304688E0;8.804571152E0;8.064207077E0;-1.197014689E0
7.111217188E0;9.745779991E0;1.032368279E1;-1.974450201E-1
7.123128125E0;1.170541477E1;1.266073895E1;3.204150677E0
7.135040625E0;1.149839401E1;1.226297665E1;4.022929192E0
7.146962500E0;3.683833838E0;1.113905144E1;4.558043003E0
7.158862500E0;3.968159437E0;1.176444626E1;1.108084440E0
7.170775000E0;4.530959606E0;9.258847237E0;-1.340848804E0
7.182685938E0;2.013313055E0;6.544253349E0;-1.737692356E0
7.194598438E0;8.944258690E-1;6.203750134E0;-2.878788114E-1
7.206509375E0;2.189267635E0;6.397077084E0;1.395302534E0
7.218421875E0;3.850853205E0;7.001344681E0;2.009252310E0
7.230332813E0;2.927792788E0;7.083360672E0;1.354189157E0
7.242245313E0;3.190809965E0;8.258866310E0;8.918497562E-1
7.254156250E0;3.422837019E0;8.591773987E0;6.881797314E-1
7.266082813E0;4.219502926E0;9.184800148E0;-7.290822864E-1
7.277981250E0;3.051046133E0;8.178047180E0;-2.210346222E0
7.289892188E0;2.259034634E0;6.187354565E0;-6.233639717E-1
7.301801563E0;2.287908792E0;2.897702456E0;7.915326357E-1
7.313714063E0;2.967411757E0;1.678804636E0;1.816691518E0
7.325632813E0;4.317961693E0;1.893401742E0;3.785108328E0
7.337537500E0;2.853399992E0;1.638840675E0;2.942627192E0
7.349450000E0;4.211285591E0;3.071128607E0;1.278005719E0
7.361360938E0;4.384079933E0;5.182431698E0;8.972510099E-1
7.373271875E0;6.959800720E0;6.820046425E0;1.308996201E0
7.385190625E0;7.126839161E0;5.818589687E0;2.587653100E-1
7.397095313E0;6.616088867E0;5.688182831E0;6.113833785E-1
7.409007813E0;5.762872219E0;3.214407206E0;-2.284470797E0
7.420918750E0;7.277789116E0;6.043041706E0;-2.335926771E0
7.432829688E0;1.032779121E1;6.794198513E0;1.044446588E0
7.444742188E0;1.303078747E1;5.647778511E0;2.863149166E0
7.456653125E0;1.249779034E1;8.159353256E0;4.966445923E0
7.468565625E0;1.330140877E1;9.415447235E0;3.032495737E0
7.480476563E0;1.132931423E1;8.266105652E0;1.023617029E0
7.492387500E0;8.971925735E0;6.499414921E0;2.718520164E0
7.504304688E0;1.108727074E1;7.316852570E0;4.340678215E0
7.516217188E0;1.107433224E1;5.673702717E0;9.359470367E0
7.528121875E0;7.828742504E0;2.050949812E0;1.228112507E1
7.540034375E0;1.017909145E1;1.384107232E0;1.089438343E1
7.551945313E0;1.272174454E1;3.916387320E0;5.127269268E0
7.563868750E0;1.254137421E1;4.913514614E0;2.490783691E0
7.575768750E0;1.210200024E1;6.914368153E0;-2.367827177E0
7.587681250E0;1.070630455E1;6.929049969E0;-4.235678196E0
7.599592188E0;8.605057716E0;4.797013283E0;-3.257321119E0
7.611504688E0;7.804829597E0;3.267961025E0;-1.516008526E-1
7.623442188E0;8.699235916E0;3.166944504E0;2.970964909E0
7.635326563E0;1.041752625E1;3.313517570E0;4.532262325E0
7.647239063E0;8.384063721E0;1.894110441E0;4.628940105E0
7.659150000E0;7.659645081E0;1.847548008E0;3.284231901E0
7.671062500E0;7.294577122E0;2.534741402E0;9.470216632E-1
7.682973438E0;6.531353474E0;2.074422598E0;-4.438849911E-2
7.694885938E0;6.826147079E0;1.931383252E0;-2.615330219E-1
7.706796875E0;7.330978394E0;2.163496256E0;-7.428729534E-2
7.718709375E0;7.427167892E0;2.316581726E0;4.300656617E-1
7.730620313E0;7.635760307E0;2.260461569E0;6.160567999E-1
7.742531250E0;7.542482376E0;2.391807556E0;-1.081125736E-1
7.754443750E0;6.939000130E0;2.269712925E0;-6.373460889E-1
7.766354688E0;7.020776272E0;2.179106712E0;-1.106370211E0
7.778265625E0;7.050196171E0;1.728603959E0;-1.525403261E0
7.790178125E0;7.408052921E0;1.532279491E0;-2.044456720E0
7.802090625E0;8.257305145E0;1.957173705E0;-1.501087904E0
7.814001563E0;8.622602463E0;2.236107588E0;-2.388263941E-1
7.825912500E0;9.672364235E0;2.949282885E0;-4.150683880E-1
7.837828125E0;1.024910831E1;4.424437046E0;-1.780788064E0
7.849735938E0;9.486478806E0;3.038883448E0;-3.500064135E0
7.861646875E0;9.283440590E0;2.147656441E0;-3.402400255E0
7.873559375E0;9.246617317E0;2.173724413E0;-3.102473736E0
7.885470313E0;9.646670341E0;3.146795273E0;-1.565185428E0
7.897382813E0;1.051779461E1;4.581305027E0;-4.387709796E-1
7.909300000E0;1.136315918E1;6.150972366E0;-2.342582643E-1
7.921204688E0;1.200597382E1;6.729909897E0;-8.296387643E-2
7.933117188E0;1.149367142E1;5.101957321E0;-5.772037506E-1
7.945028125E0;1.099027634E1;4.772496223E0;-3.488543332E-1
7.956940625E0;1.025329304E1;5.224368095E0;-7.350007892E-1
7.968851563E0;9.671961784E0;5.665390015E0;-8.705604672E-1
7.980762500E0;9.932154655E0;5.938108444E0;9.819770455E-1
7.992685938E0;1.060996151E1;6.541581631E0;3.267817020E0
8.004585938E0;1.080149841E1;6.661349297E0;4.317827702E0
8.016498438E0;1.077571774E1;6.570522308E0;4.549404621E0
8.028409375E0;1.075168991E1;5.797933102E0;4.762163162E0
8.040323438E0;1.143583679E1;5.712182045E0;4.014099598E0
8.052234375E0;1.201612473E1;5.664365292E0;2.249860048E0
8.064143750E0;1.220236492E1;5.792215347E0;-7.703487277E-1
8.076056250E0;1.199667454E1;6.090666771E0;-2.126348019E0
8.087967188E0;1.136292839E1;5.328966141E0;-9.534477592E-1
8.099885938E0;1.116430664E1;4.956763744E0;-2.054224908E-2
8.111792188E0;9.958183289E0;4.457888603E0;5.326141119E-1
8.123701563E0;8.569288254E0;3.039199591E0;1.960851103E-1
8.135614063E0;8.335844040E0;3.505599499E0;-3.099437952E-1
8.147525000E0;8.783205032E0;3.894111633E0;2.904454172E-1
8.159435938E0;8.396197319E0;4.083253384E0;9.196703434E-1
8.171348438E0;7.272694111E0;3.621201515E0;1.075302958E0
8.183278125E0;7.049200058E0;3.407772779E0;2.444863021E-1
8.195171875E0;5.749866486E0;2.792309523E0;-7.917242050E-1
8.207082813E0;4.576392174E0;2.367338896E0;-4.148193896E-1
8.218995313E0;4.394308090E0;2.545994043E0;3.594750166E-1
8.230906250E0;4.777083397E0;2.669678450E0;1.239832520E0
8.242818750E0;5.899236202E0;3.241892815E0;1.366514564E0
8.254729688E0;6.496839046E0;3.824143648E0;8.497596383E-1
8.266642188E0;6.713753223E0;4.360109329E0;-6.072269678E-1
8.278553125E0;6.659242153E0;4.982554436E0;-2.361975908E0
8.290464063E0;5.614306927E0;4.546033859E0;-3.029699564E0
8.302376563E0;4.666490555E0;3.624936342E0;-2.661222219E0
8.314287500E0;5.210060596E0;4.245532513E0;-2.559775114E0
8.326200000E0;6.159380913E0;4.985857964E0;-1.425076723E0
8.338114063E0;7.785100937E0;5.896688938E0;9.796115756E-2
8.350021875E0;8.229800224E0;5.001401424E0;7.223881483E-1
8.361934375E0;8.584246635E0;4.713436127E0;1.701798663E-2
8.373845313E0;9.639783859E0;5.233236313E0;-1.681696892E0
8.385759375E0;9.637724876E0;5.075113773E0;-2.303011179E0
8.397668750E0;8.825802803E0;4.526075840E0;-2.025312662E0
8.409579688E0;8.719644547E0;4.331378937E0;-2.094409466E0
8.421492188E0;1.026785946E1;5.245600224E0;-1.976930618E0
8.433403125E0;1.081238747E1;5.998279572E0;-2.616393328E0
8.445315625E0;9.347059250E0;5.280641556E0;-2.796868086E0
8.457232813E0;1.016496658E1;7.557853222E0;-3.202618122E0
8.469139063E0;1.243273544E1;7.826329231E0;-1.831277013E0
8.481050000E0;1.460120201E1;9.164908409E0;1.852240562E0
8.492960938E0;1.491030312E1;9.659904480E0;2.855516672E0
8.504873438E0;1.403282833E1;7.692043304E0;2.363546371E0
8.516785938E0;1.276348972E1;7.008795261E0;1.527242064E0
8.528695313E0;1.274845409E1;4.686419964E0;1.640497446E0
8.540606250E0;1.334061623E1;6.165816307E0;1.072688580E0
8.552518750E0;1.114468384E1;4.155290127E0;-5.070248842E-1
8.564431250E0;8.945829391E0;3.100692272E0;-1.051609993E0
8.576360938E0;8.283239365E0;2.109627008E0;-8.516654372E-2
8.588253125E0;7.801927567E0;4.041824341E0;-1.337573528E0
8.600165625E0;8.064877510E0;3.624965191E0;-2.920954943E0
8.612076563E0;7.160932541E0;3.707411766E0;-3.593945742E0
8.623989063E0;7.625829220E0;3.624016762E0;-2.914164782E0
8.635906250E0;8.714013100E0;3.610867977E0;-2.128263474E0
8.647812500E0;8.219754219E0;3.796840191E0;-1.686877966E0
8.659723438E0;6.566145897E0;2.171962500E0;-8.970403671E-1
8.671634375E0;5.841794968E0;1.150959849E0;1.804672599E0
8.683546875E0;6.535107613E0;1.131279469E0;2.325172186E0
8.695457813E0;6.145178318E0;7.313137054E-1;-7.685387135E-2
8.707370313E0;5.571623325E0;2.142389059E0;-2.489031315E0
8.719281250E0;5.777064800E0;4.567849338E-1;-2.059463739E0
8.731193750E0;4.453770638E0;1.621391773E0;-3.705189943E0
8.743104688E0;2.926815987E0;1.710896492E0;-1.926805615E0
8.755039063E0;2.774793386E0;4.604337215E-1;6.950942278E-1
8.766928125E0;4.501434803E0;1.715081573E0;7.608869076E-1
8.778839063E0;5.898920536E0;3.987150431E0;1.052108034E-1
8.790751563E0;7.927000523E0;6.454174042E0;-1.796800494E0
8.802662500E0;9.001843452E0;8.985687256E0;-3.247715235E0
8.814575000E0;8.644418716E0;1.062115765E1;-3.059674740E0
8.826485938E0;9.389771461E0;1.113215733E1;-2.414236307E0
8.838396875E0;8.289281845E0;1.024408054E1;-2.928252459E0
8.850309375E0;4.655027390E0;9.380998611E0;-3.241643906E0
8.862220313E0;4.549174786E0;9.558831215E0;-2.831507206E0
8.874132813E0;6.695959568E0;1.010049534E1;-3.066369057E0
8.886043750E0;6.357888699E0;1.062886715E1;-3.667150974E0
8.897954688E0;7.105033398E0;1.116378880E1;-4.135954380E0
8.909865625E0;8.925651550E0;1.124634075E1;-4.171494007E0
8.921778125E0;1.030817795E1;1.005593491E1;-3.160700798E0
8.933696875E0;1.142448902E1;9.526145935E0;-4.067911148E0
8.945601563E0;9.577151299E0;8.049152374E0;-6.061390400E0
8.957512500E0;8.662748337E0;6.743010521E0;-5.542672634E0
8.969425000E0;9.207382202E0;6.731537819E0;-3.203077793E0
8.981335938E0;1.062223053E1;6.835522652E0;-5.862346888E-1
8.993248438E0;9.922768593E0;5.906246662E0;1.793161273E0
9.005159375E0;9.813448906E0;5.636956692E0;3.485747099E0
9.017070313E0;1.015301418E1;5.448493958E0;2.321159363E0
9.028982813E0;9.342041016E0;5.056266785E0;1.508615255E0
9.040893750E0;8.265455246E0;5.101967335E0;2.950231314E0
9.052832813E0;8.266996384E0;5.364869595E0;3.068897247E0
9.064720313E0;6.825399876E0;4.291922569E0;1.344171882E0
9.076628125E0;6.899227619E0;3.586543083E0;7.237288952E-1
9.088540625E0;1.261581421E1;1.026569557E1;-1.547123551E0
9.100451563E0;9.207534790E0;8.922031403E0;8.795435429E-1
9.112370313E0;3.304075003E0;3.576726675E0;-3.046305656E0
9.124275000E0;1.461315393E0;1.357885838E0;-4.803764820E0
9.136187500E0;5.977230072E0;1.158937216E0;-2.318257570E0
9.148098438E0;1.222252464E1;2.770742655E0;-7.777037621E-1
9.160009375E0;1.933019066E1;5.483938217E0;1.017162204E0
9.171926563E0;1.549045563E1;1.148639393E1;1.027045488E0
9.183840625E0;8.509433746E0;6.182211876E0;-1.497812718E-1
9.195745313E0;7.930113316E0;3.144123077E0;-1.262261510E0
9.207656250E0;5.638460159E0;2.384174824E0;-1.618671864E-1
9.219568750E0;4.404583931E0;2.668519735E0;-1.071893692E0
9.231485938E0;5.341396809E0;3.892387629E0;-2.126434088E0
9.243392188E0;4.116245747E0;4.444739819E0;-1.339910150E0
9.255303125E0;3.472913980E0;4.840721607E0;1.544738859E-1
9.267214063E0;3.540334702E0;4.944447517E0;-3.560752571E-1
9.279126563E0;5.043079376E0;7.036539555E0;-5.676336288E0
9.291054688E0;4.386838436E0;7.510419369E0;-6.019741058E0
9.302950000E0;7.855700970E0;1.056405067E1;-4.442709446E0
9.314860938E0;8.327953339E0;1.129209900E1;-4.100358009E0
9.326771875E0;8.885811806E0;9.388910294E0;-7.357180595E0
9.338684375E0;8.455333710E0;6.095541954E0;-4.684906960E0
9.350596875E0;9.138687134E0;5.115987778E0;1.820455194E0
9.362507813E0;1.055405235E1;5.680042267E0;-3.120372534E0
9.374417188E0;9.161164284E0;6.790214539E0;-8.594034910E-1
9.386329688E0;7.985744476E0;7.141271591E0;3.291165531E-1
9.398242188E0;9.127577782E0;9.547061920E0;1.684656143E0
9.410196875E0;1.186717701E1;1.210515976E1;1.949847460E0
9.422064063E0;1.159494591E1;1.297603703E1;-1.552208900E0
9.433975000E0;9.989796638E0;1.054197693E1;-4.823425770E0
9.445887500E0;1.134852505E1;7.660861492E0;-3.291232347E0
9.457800000E0;5.406624317E0;7.680551052E0;1.663836002E0
9.469710938E0;3.637117863E0;2.821451664E0;-1.263879895E0
9.481623438E0;5.906016827E-1;-2.657458544E0;9.024320841E-1
9.493534375E0;-4.832111835E0;-4.278648853E0;7.135879993E0
9.505445313E0;1.517780304E0;-4.935886264E-1;1.085576057E1
9.517357813E0;4.703801632E0;2.711643934E0;6.801927090E0
9.529268750E0;8.347202301E0;8.005128860E0;-1.605494142E0
9.541179688E0;1.019976902E1;1.135952950E1;-7.036261559E0
9.553090625E0;1.014110088E1;1.118864059E1;-5.439693451E0
9.565003125E0;8.621185303E0;1.244445705E1;-2.951188684E-1
9.576915625E0;7.620476246E0;1.161671448E1;2.116953135E0
9.588832813E0;9.378212929E0;9.661465645E0;3.067872524E0
9.600737500E0;9.654647827E0;1.081395817E1;4.827381074E-1
9.612650000E0;9.728072166E0;1.537904930E1;-2.650668621E-1
9.624560938E0;9.119034767E0;1.460662174E1;-1.405951858E0
9.636473438E0;7.369879246E0;1.249567413E1;-3.899943829E0
9.648389063E0;5.249220371E0;8.717518806E0;-1.658923268E0
9.660300000E0;3.412369490E0;6.324771881E0;-6.716789007E-1
9.672207813E0;9.915442467E-1;4.435086250E0;2.982313633E-1
9.684120313E0;1.919450641E0;4.637012959E0;-7.097371668E-2
9.696031250E0;2.425422192E0;6.070498466E0;1.137533113E-1
9.707943750E0;3.635269880E0;7.095638275E0;-6.562123895E-1
9.719854688E0;4.141853809E0;5.776681900E0;-1.387602687E0
9.731767188E0;4.964023113E0;3.986451149E0;-1.245980859E0
9.743678125E0;5.022211552E0;3.703753471E0;-1.233933210E0
9.755590625E0;5.737685204E0;4.240782261E0;-1.708186269E0
9.767501563E0;4.591542244E0;4.476247787E0;-1.546797991E0
9.779412500E0;5.670657158E0;5.133790970E0;-1.461372852E0
9.791323438E0;7.923304081E0;5.873771667E0;-2.007767916E0
9.803235938E0;6.381878853E0;5.839831352E0;-2.444949150E0
9.815146875E0;4.918130875E0;5.820419312E0;-3.265854120E0
9.827078125E0;4.963783741E0;6.765219212E0;-3.807068110E0
9.838970313E0;7.581526756E0;8.790540695E0;-4.749032974E0
9.850882813E0;8.558313370E0;9.368358612E0;-3.797558308E0
9.862793750E0;8.560909271E0;8.583212852E0;-1.280122161E0
9.874704688E0;8.827996254E0;7.612163067E0;-1.376091242E-1
9.886617188E0;8.493737221E0;7.553859234E0;6.607996821E-1
9.898528125E0;7.959963799E0;8.737572670E0;8.711350560E-1
9.910440625E0;9.521088600E0;1.034405231E1;-1.151208758E0
9.922351563E0;9.423482895E0;1.095655632E1;-2.175103426E0
9.934264063E0;8.016687393E0;1.070815372E1;-1.621516228E0
9.946176563E0;5.227490425E0;8.654024124E0;-1.575336814E0
9.958085938E0;-7.447212338E-1;6.420224190E0;-3.829487324E0
9.969998438E0;4.305090904E0;1.104065037E1;-9.157544136E0
9.981909375E0;8.387473106E0;1.221331120E1;-5.284146786E0
9.993820313E0;7.297718048E0;1.006030178E1;1.459122300E-1
1.000575156E1;8.312534332E0;9.548488617E0;4.402505875E0
1.001764375E1;8.713889122E0;1.077155209E1;5.714566708E0
1.002955625E1;8.301692963E0;1.139554787E1;5.116724968E0
1.004146719E1;8.667536736E0;1.236946106E1;2.627138376E0
1.005337812E1;5.689830303E0;1.050481796E1;3.126425266E0
1.006529219E1;5.431591511E0;9.410199165E0;1.973291516E0
1.007720156E1;5.903143406E0;8.659119606E0;1.999493599E0
1.008911406E1;6.267416477E0;9.041109085E0;2.104053259E0
1.010102500E1;6.701064110E0;8.672345161E0;2.197398424E0
1.011293750E1;6.490786076E0;8.758918762E0;1.860764027E0
1.012487188E1;5.626278400E0;8.449415207E0;5.912624598E-1
1.013675938E1;4.804990292E0;7.561913490E0;-3.291836083E-1
1.014867188E1;4.472493172E0;6.865919590E0;1.264713109E-1
1.016059063E1;4.612936974E0;5.755612850E0;5.679046512E-1
1.017249531E1;4.492757797E0;4.674812794E0;1.551346928E-1
1.018440625E1;4.437183380E0;4.261976242E0;-6.350284815E-1
1.019631875E1;4.330048084E0;4.200454712E0;-1.236471057E0
1.020822969E1;3.773348093E0;4.251987457E0;-1.522060990E0
1.022014219E1;2.744262695E0;3.950145483E0;-1.073052526E0
1.023205312E1;2.898669720E0;3.926490784E0;-1.274395227E0
1.024396875E1;3.278792143E0;4.610887527E0;-6.148214340E-1
1.025587500E1;3.731621742E0;4.675847054E0;-3.165134788E-2
1.026780938E1;4.620914459E0;5.573079109E0;-8.612614274E-1
1.027969844E1;3.340102911E0;6.011677742E0;1.890270114E0
1.029161094E1;4.021138191E0;6.844783306E0;5.715438128E-1
1.030352188E1;4.484531403E0;8.392308235E0;-6.004562378E-1
1.031543438E1;5.309659004E0;9.541563988E0;-1.448894262E0
1.032734531E1;4.875130653E0;1.004671192E1;-1.229288459E0
1.033925781E1;4.445697308E0;1.007138157E1;-9.026045203E-1
1.035116875E1;4.924738884E0;9.859744072E0;-1.927303553E0
1.036308125E1;5.886556625E0;1.007227230E1;-3.897597551E0
1.037499219E1;5.702854633E0;1.116568565E1;-4.593591690E0
1.038690312E1;5.202437401E0;1.242417336E1;-4.149266720E0
1.039881563E1;4.310884953E0;1.297013760E1;-3.140579939E0
1.041072656E1;3.828213692E0;1.292449379E1;-2.447228432E0
1.042263906E1;4.092332363E0;1.194504547E1;-2.929909229E0
1.043455000E1;6.785071850E0;1.178404999E1;-3.707632065E0
1.044646094E1;8.681451797E0;1.203062439E1;-2.755831480E0
1.045837344E1;7.998309612E0;1.003914642E1;-1.364043713E0
1.047028438E1;7.305533409E0;8.395679474E0;-2.067996502E0
1.048219688E1;6.144785881E0;7.996078014E0;7.850319386E0
1.049411563E1;6.580272198E0;9.332243919E0;9.173680305E0
1.050601875E1;8.258721352E0;1.047147179E1;2.542938948E0
1.051793125E1;7.907176971E0;1.045609188E1;-1.816413760E0
1.052984844E1;7.188035011E0;9.582476616E0;-2.103842497E0
1.054175313E1;7.069838524E0;9.131332397E0;-1.047817588E0
1.055366562E1;7.654703140E0;9.011736870E0;-7.459087372E-1
1.056557656E1;7.426775455E0;9.436708450E0;-7.548534870E-1
1.057748906E1;6.684180260E0;9.732248306E0;-8.439273834E-1
1.058940000E1;5.446608067E0;9.312180519E0;-7.334876060E-1
1.060131250E1;4.792760849E0;8.503084183E0;-1.176549077E0
1.061322344E1;4.148404598E0;7.851439953E0;-8.234329820E-1
1.062513594E1;3.368488550E0;7.010911942E0;-4.086136222E-1
1.063704688E1;2.796935081E0;5.416699409E0;8.804532886E-1
1.064895781E1;3.290159941E0;5.143281937E0;3.488734961E-1
1.066087656E1;3.455599070E0;4.223161221E0;1.099302530E0
1.067278125E1;3.559804440E0;4.510733604E0;-2.388857841E0
1.068469375E1;2.885041714E0;5.342422009E0;-1.568853378E0
1.069660469E1;2.727014780E0;5.000692368E0;-4.230362773E-1
1.070851719E1;2.774870157E0;5.276599884E0;-9.932394028E-1
1.072042813E1;3.737377644E0;5.571517944E0;-1.634234309E0
1.073234062E1;3.630193949E0;5.251049519E0;-1.809192896E0
1.074425156E1;3.604461193E0;5.156832695E0;-2.016502142E0
1.075616250E1;3.715025425E0;5.656071663E0;-2.086738348E0
1.076807500E1;3.856235266E0;6.144613266E0;-2.428027153E0
1.078000469E1;3.714651823E0;6.520685196E0;-2.495763779E0
1.079189844E1;3.602708578E0;6.882209301E0;-2.529387951E0
1.080380938E1;3.734121561E0;7.617842197E0;-2.413489580E0
1.081572031E1;3.523393393E0;8.347720146E0;-1.757085443E0
1.082763281E1;3.287191153E0;9.140286446E0;-1.300118566E0
1.083954844E1;3.814901829E0;9.659991264E0;-2.323477030E0
1.085145469E1;5.035015583E0;9.446686745E0;-1.540295243E0
1.086336719E1;6.046192169E0;1.043178654E1;-9.839307070E-1
1.087527813E1;6.044717789E0;1.067835045E1;-9.893894792E-1
1.088719062E1;7.773838997E0;1.208421612E1;-1.606116652E0
1.089910156E1;7.163518429E0;1.172222233E1;-4.057960987E0
1.091101250E1;5.360205650E0;1.129637051E1;-5.533967495E0
1.092292500E1;3.912163734E0;1.203620720E1;-7.096289635E0
1.093483594E1;3.690853596E0;1.270411301E1;-6.420348644E0
1.094674844E1;5.132115364E0;1.212500381E1;-2.270517349E0
1.095865938E1;6.624765396E0;9.792831421E0;5.363107324E-1
1.097057031E1;7.634333611E0;9.073545456E0;1.487325907E0
1.098248281E1;7.688480854E0;8.732228279E0;3.495687723E0
1.099439375E1;8.389857292E0;9.345670700E0;3.400685787E0
1.100630938E1;8.289242744E0;1.028626633E1;4.097465515E0
1.101821719E1;8.870976448E0;1.038771248E1;2.219080210E0
1.103012813E1;7.741334915E0;1.034841061E1;1.167230844E0
1.104204062E1;6.456548691E0;9.511856079E0;8.753584623E-1
1.105395156E1;4.274981499E0;8.988560677E0;5.401510596E-1
1.106586406E1;3.245187283E0;8.997170448E0;-4.055298865E-1
1.107777500E1;3.396414518E0;8.676999092E0;-8.250323534E-1
1.108968750E1;2.488370419E0;1.003958702E1;-6.479380131E-1
1.110159844E1;3.211926937E0;1.056762314E1;-1.182716489E0
1.111351094E1;4.335688591E0;1.019065094E1;-4.508664906E-1
1.112542188E1;4.189460278E0;8.764272690E0;3.388178349E-1
1.113733281E1;3.634158611E0;6.945876122E0;2.657180727E-1
1.114925625E1;3.500418663E0;6.514833450E0;-7.076302171E-2
1.116115625E1;3.719813824E0;6.526622772E0;4.522168264E-2
1.117306875E1;3.448732615E0;7.346148491E0;-6.221572161E-1
1.118497969E1;2.955785751E0;7.445996284E0;-8.240938187E-1
1.119689219E1;3.970869541E0;5.722879410E0;-9.892075062E-1
1.120881094E1;4.322146893E0;3.490334272E0;-1.857029080E0
1.122071406E1;3.990080833E0;3.118323326E0;-2.466707706E0
1.123262656E1;3.452390909E0;3.906264544E0;-2.518249989E0
1.124453750E1;2.868569613E0;4.493839741E0;-2.019480228E0
1.125645312E1;2.974891424E0;5.077278137E0;-1.112595081E0
1.126836094E1;3.496338844E0;5.837810516E0;-8.141338825E-1
1.128027344E1;4.201182365E0;6.789821625E0;-1.827254742E-1
1.129218438E1;4.421267033E0;7.665371895E0;5.396243334E-1
1.130409531E1;3.984430313E0;8.671233177E0;1.110344648E0
1.131600781E1;3.461900711E0;9.538499832E0;1.198470354E0
1.132792500E1;3.289451122E0;1.001726341E1;1.773050129E-1
1.133982969E1;3.491809130E0;9.462651253E0;-8.851650953E-1
1.135174219E1;4.301815510E0;9.550594330E0;-1.093288183E0
1.136365312E1;5.642482281E0;1.016701603E1;-1.340810418E0
1.137556562E1;6.521125317E0;1.122358704E1;-1.274069667E0
1.138747656E1;6.368940353E0;1.270668983E1;-1.189314961E0
1.139938750E1;5.353588581E0;1.395978642E1;-9.899258018E-1
1.141130000E1;4.396127701E0;1.516292000E1;-8.748221397E-1
1.142321094E1;3.827763319E0;1.608180428E1;-8.998080492E-1
1.143512969E1;3.373353481E0;1.588460922E1;-1.939964175E0
1.144703750E1;3.857279301E0;1.401397133E1;-2.722887278E0
1.145894531E1;4.032065392E0;1.147561932E1;-2.322059631E0
1.147085781E1;6.161324501E0;9.634909630E0;-1.041439414E0
1.148276875E1;8.192105293E0;8.417793274E0;1.479942203E0
1.149468125E1;9.182797432E0;7.703372478E0;5.603973866E0
1.150659219E1;8.948338509E0;7.346512318E0;7.243523121E0
1.151850312E1;9.644361496E0;7.408522129E0;5.799839020E0
1.153041562E1;1.024423313E1;8.194988251E0;4.234557629E0
1.154232656E1;1.052404881E1;9.016572952E0;3.193070412E0
1.155423906E1;9.126227379E0;8.676309586E0;2.324023008E0
1.156615000E1;7.670887947E0;8.695233345E0;1.474454761E0
1.157806094E1;6.415196419E0;8.592090607E0;7.763821483E-1
1.158997344E1;5.129222870E0;8.088110924E0;1.963341236E-1
1.160188594E1;4.172997475E0;7.352181435E0;-9.357210398E-1
1.161379688E1;3.445074320E0;6.590116501E0;-2.154302835E0
1.162570938E1;3.017613411E0;6.095302105E0;-2.649892807E0
1.163762031E1;2.860247374E0;5.867249966E0;-2.039562941E0
1.164953125E1;2.720885754E0;5.641735554E0;-9.263549447E-1
1.166144375E1;2.645793915E0;5.262647152E0;2.633621916E-3
1.167335469E1;2.560244322E0;4.876395226E0;4.164474607E-1
1.168526719E1;2.818607330E0;4.634523392E0;1.925991625E-1
1.169717812E1;3.149045706E0;4.584791183E0;-6.927862018E-2
1.170909062E1;3.418920040E0;4.585164547E0;-3.268947005E-1
1.172100156E1;3.464256525E0;4.623490810E0;-5.816856623E-1
1.173291250E1;3.578871727E0;4.844035149E0;-9.765565991E-1
1.174482500E1;3.832130671E0;5.242526054E0;-1.402312636E0
1.175673594E1;3.986575603E0;5.594531059E0;-1.756616235E0
1.176864844E1;3.999025583E0;6.054112434E0;-2.071147203E0
1.178055938E1;3.884496689E0;6.662048340E0;-2.367108822E0
1.179247031E1;3.895232201E0;7.477618694E0;-2.295139074E0
1.180438281E1;3.992187738E0;8.103913307E0;-2.448492765E0
1.181629375E1;4.324119568E0;8.353063583E0;-3.095319748E0
1.182820469E1;4.941220760E0;8.458523750E0;-3.234451771E0
1.184011719E1;5.697165489E0;8.739870071E0;-1.960803390E0
1.185202812E1;6.769164562E0;9.270521164E0;5.679046735E-3
1.186394063E1;8.038120270E0;1.056656075E1;1.276109457E0
1.187585156E1;8.796938896E0;1.174733257E1;-7.155503035E-1
1.188776250E1;7.604214191E0;1.161954880E1;-3.747710943E0
1.189967500E1;6.302735806E0;1.130968189E1;-7.460437775E0
1.191160313E1;6.077403545E0;1.223287678E1;-7.221611500E0
1.192349844E1;6.977355003E0;1.303168774E1;-1.911836982E0
1.193540938E1;8.049976349E0;1.087698269E1;1.732884884E0
1.194732031E1;8.853317261E0;8.781970024E0;2.622522354E0
1.195923281E1;8.607719421E0;9.016821861E0;3.076558828E0
1.197114844E1;8.293390274E0;9.834710121E0;4.288369656E0
1.198305625E1;8.285116196E0;1.110439396E1;4.467724323E0
1.199496719E1;7.161124706E0;1.131784153E1;3.484741449E0
1.200688438E1;5.729841709E0;1.174400043E1;2.697518349E0
1.201879063E1;5.115269661E0;1.167859936E1;2.788804531E0
1.203070312E1;5.713724136E0;1.049866962E1;2.709182978E0
1.204261406E1;6.462821960E0;9.688194275E0;1.947702289E0
1.205452500E1;7.009140491E0;8.995236397E0;1.334413052E0
1.206643594E1;6.875381470E0;8.261825562E0;1.003840923E0
1.207834844E1;6.050157070E0;7.689189434E0;5.989909768E-1
1.209026562E1;4.895117760E0;7.003528118E0;9.174580872E-2
1.210217188E1;3.825608730E0;5.970564365E0;-2.099140286E-1
1.211408281E1;3.493666887E0;5.198568344E0;-2.370451242E-1
1.212599531E1;3.665589809E0;4.777965069E0;-1.122401748E-2
1.213790781E1;3.942263603E0;4.805583954E0;6.688442081E-2
1.214981875E1;4.304477692E0;5.297065735E0;3.068600595E-1
1.216173750E1;4.343426704E0;5.822583675E0;5.613062382E-1
1.217364062E1;4.180027485E0;6.306930542E0;6.018256545E-1
1.218555312E1;3.763723373E0;6.578835487E0;5.841756463E-1
1.219746563E1;3.178322077E0;6.706244946E0;2.228522897E-1
1.220938125E1;2.682597637E0;6.979212761E0;-2.464591265E-1
1.222128750E1;2.305242777E0;7.143493652E0;-7.692857385E-1
1.223320000E1;1.969077587E0;7.442327976E0;-1.040366769E0
1.224511094E1;1.360452414E0;7.912310123E0;-1.247034311E0
1.225702344E1;8.512440920E-1;8.035744667E0;-1.624532819E0
1.226893438E1;4.383783340E-1;7.962042332E0;-2.232229233E0
1.228084531E1;4.142064750E-1;7.907339573E0;-2.748141289E0
1.229275781E1;1.592632532E0;7.950856209E0;-2.616881609E0
1.230466875E1;2.538686991E0;7.801726341E0;-2.134871244E0
1.231657969E1;3.482414246E0;7.973084450E0;-1.648867607E0
1.232849219E1;4.573155403E0;8.721760750E0;-1.376656413E0
1.234040312E1;7.763764381E0;9.276247978E0;-1.294458628E0
1.235232656E1;1.085756111E1;9.993436813E0;-8.226860166E-1
1.236422656E1;1.232888412E1;1.168124294E1;3.151344061E-1
1.237614063E1;9.313941956E0;1.261585331E1;8.801085353E-1
1.238806875E1;5.644215584E0;1.269835758E1;-2.098278515E-2
1.239996094E1;4.594176292E0;1.273120594E1;-1.170917869E0
1.241187344E1;4.000979424E0;1.284668255E1;-2.036958218E0
1.242378438E1;3.631937027E0;1.229920578E1;-7.935916781E-1
1.243569531E1;3.930924892E0;1.076600647E1;3.826604486E-1
1.244760781E1;4.284711361E0;1.011024380E1;1.595122576E0
1.245951875E1;6.361700058E0;9.992727280E0;3.085493803E0
1.247143125E1;9.173212051E0;9.981896400E0;3.556088686E0
1.248334219E1;1.019315147E1;9.507078171E0;3.929191351E0
1.249525313E1;9.301846504E0;9.154881477E0;4.466441154E0
1.250716719E1;7.574325085E0;9.134923935E0;4.898278236E0
1.251907969E1;7.895828247E0;9.832067490E0;4.796285152E0
1.253098906E1;9.532034874E0;1.077396488E1;3.617686749E0
1.254290000E1;9.712289810E0;1.076473331E1;1.968234897E0
1.255481094E1;7.946527958E0;1.001907349E1;1.060631394E0
1.256672344E1;6.428316593E0;9.361807823E0;4.968256056E-1
1.257863438E1;5.228849888E0;8.470906258E0;2.023387700E-1
1.259054844E1;4.170009613E0;7.541706562E0;-3.510857373E-2
1.260245781E1;3.118907452E0;6.615457058E0;-1.610818952E-1
1.261437031E1;2.330554247E0;5.940943241E0;-3.074059188E-1
1.262628594E1;1.805869699E0;5.354335308E0;-2.924852669E-1
1.263819375E1;1.440227270E0;4.824153900E0;-1.633420140E-1
1.265010469E1;1.405846596E0;4.382231712E0;-1.273523718E-1
1.266201562E1;1.963044286E0;4.351988316E0;-4.277863801E-1
1.267393594E1;2.815083265E0;4.534972191E0;-8.017510772E-1
1.268584062E1;3.328265905E0;4.685931683E0;-9.729844332E-1
1.269775156E1;3.716729879E0;4.892187119E0;-7.568358779E-1
1.270966250E1;4.001630306E0;5.084278584E0;-5.845874548E-1
1.272157500E1;4.289260387E0;5.287489414E0;-3.792798519E-1
1.273348594E1;4.402400494E0;5.485700130E0;-6.359765530E-1
1.274539844E1;4.459383011E0;5.920564175E0;-1.213151574E0
1.275731094E1;4.532645226E0;6.436562538E0;-1.884026051E0
1.276922031E1;4.645488739E0;6.950549126E0;-2.187898159E0
1.278113281E1;4.759979725E0;7.569805145E0;-2.463757992E0
1.279304375E1;4.782283783E0;8.002398491E0;-2.815389633E0
1.280496250E1;4.631401539E0;8.363903999E0;-3.133694172E0
1.281686719E1;4.391090393E0;8.638873100E0;-3.664517403E0
1.282877813E1;4.610619545E0;9.146760941E0;-3.441731930E0
1.284069062E1;5.092936039E0;9.047353745E0;-2.276799679E0
1.285260156E1;7.117511749E0;9.720334053E0;7.326257229E-2
1.286451875E1;9.915203094E0;1.079039860E1;1.067038178E0
1.287642500E1;1.044911003E1;1.117833614E1;-1.080158472E0
1.288833594E1;6.882793427E0;1.088071823E1;-3.606319189E0
1.290024844E1;4.730415821E0;1.155235863E1;-7.045752525E0
1.291215938E1;3.576372385E0;1.243541718E1;-6.735895157E0
1.292407188E1;4.302811623E0;1.169111729E1;-2.355549812E0
1.293598281E1;5.502306461E0;8.809159279E0;7.045656443E-1
1.294789375E1;6.826117992E0;7.808689117E0;2.157692909E0
1.295980625E1;8.181504250E0;8.241895676E0;3.756109953E0
1.297171719E1;9.801996231E0;1.008606339E1;5.151191711E0
1.298362969E1;1.094057369E1;1.230850506E1;4.499375343E0
1.299554062E1;1.016374969E1;1.310946083E1;2.797988415E0
1.300745156E1;7.237719536E0;1.213488674E1;2.380152702E0
1.301936406E1;6.800940514E0;1.170816326E1;1.816758513E0
1.303127500E1;6.526028633E0;1.115556240E1;1.067880988E0
1.304319531E1;5.958181858E0;1.067819691E1;1.025762200E0
1.305509844E1;5.636573315E0;1.028387165E1;1.417338610E0
1.306700938E1;5.142113209E0;9.878198624E0;1.161915660E0
1.307892188E1;4.433831692E0;9.306281090E0;6.288035512E-1
1.309083281E1;3.853122711E0;8.330595970E0;3.862709403E-1
1.310274531E1;3.471247911E0;7.062492847E0;2.384529114E-1
1.311465625E1;3.512121677E0;5.997293472E0;8.432378620E-2
1.312656719E1;3.632894516E0;5.263192654E0;7.359776646E-2
1.313847969E1;3.620454311E0;4.746170044E0;2.449747175E-1
1.315039062E1;3.554173231E0;4.525088787E0;2.673844695E-1
1.316230313E1;3.578316450E0;4.464094162E0;2.316725254E-1
1.317421406E1;3.652498245E0;4.595076084E0;1.005468965E-1
1.318612656E1;3.491196394E0;4.972909927E0;5.991250277E-2
1.319803750E1;3.131213665E0;5.590441704E0;2.383475602E-1
1.320995000E1;2.887273312E0;6.045388222E0;2.517359555E-1
1.322186094E1;2.656050682E0;6.638853073E0;1.510932744E-1
1.323377188E1;2.481657028E0;7.365531921E0;-3.900824785E-1
1.324568438E1;2.209991693E0;7.610784054E0;-1.059750199E0
1.325759531E1;1.790374517E0;7.664155960E0;-1.497170925E0
1.326950625E1;1.393865943E0;7.552997589E0;-1.661269546E0
1.328141875E1;1.528487086E0;7.824327469E0;-1.954453826E0
1.329332969E1;2.621564627E0;8.665084839E0;-2.050968885E0
1.330524219E1;3.427606106E0;8.973927498E0;-2.332948446E0
1.331715312E1;3.746705294E0;8.922136307E0;-2.670224428E0
1.332906562E1;4.045970917E0;9.168279648E0;-2.528880358E0
1.334098438E1;4.451050758E0;9.441868782E0;-1.862660170E0
1.335289531E1;6.071791649E0;1.012497330E1;-5.130295157E-1
1.336480000E1;8.043867111E0;1.128720474E1;6.926712394E-1
1.337671094E1;8.416681290E0;1.243522453E1;6.604166031E-1
1.338862344E1;5.798411846E0;1.236411762E1;-4.021301270E-1
1.340053438E1;3.965458632E0;1.237484360E1;-2.069260836E0
1.341244531E1;3.604145050E0;1.249572182E1;-4.612860203E0
1.342435781E1;6.024491310E0;1.349495602E1;-5.449815750E0
1.343626875E1;7.667517185E0;1.255130577E1;-2.954320431E0
1.344818125E1;7.877957821E0;1.092607307E1;1.324893832E0
1.346009219E1;8.281476974E0;9.337740898E0;4.944074154E0
1.347200312E1;8.034452438E0;8.046787262E0;6.991806030E0
1.348391563E1;7.201011658E0;7.819567680E0;2.842482328E0
1.349582656E1;5.680320263E0;8.621472359E0;2.180926323E0
1.350773906E1;5.143281937E0;9.247709274E0;4.095760822E0
1.351965000E1;5.905068874E0;9.399262428E0;4.154840469E0
1.353156250E1;6.844773293E0;9.632294655E0;3.275325537E0
1.354347344E1;7.505084991E0;9.574537277E0;2.474666119E0
1.355538438E1;8.020546913E0;9.364738464E0;1.072420359E0
1.356729688E1;8.102323532E0;8.601811409E0;3.927831352E-1
1.357920781E1;7.461328506E0;7.907646179E0;3.280535340E-1
1.359112031E1;6.402669907E0;7.553706646E0;3.180074394E-1
1.360303125E1;5.627934933E0;7.452613831E0;1.473679096E-1
1.361494375E1;4.643592358E0;7.159142017E0;2.555092052E-2
1.362685469E1;3.577071428E0;6.622917652E0;-1.527979523E-1
1.363877344E1;2.676028013E0;6.076598644E0;-1.438053250E-1
1.365067969E1;1.829179645E0;5.652250290E0;-2.411631495E-1
1.366258906E1;1.248097301E0;5.362753391E0;-4.843565822E-1
1.367450156E1;8.165281415E-1;5.048356533E0;-6.325768232E-1
1.368641250E1;6.390315890E-1;4.899235725E0;-6.826922894E-1
1.369832500E1;9.213941693E-1;5.105280876E0;-6.736708879E-1
1.371023594E1;2.126147032E0;5.933655262E0;-1.136077404E0
1.372214688E1;2.924421549E0;6.445277214E0;-1.620960712E0
1.373405938E1;3.480182886E0;6.640337467E0;-1.459151030E0
1.374597188E1;4.162961483E0;6.552096844E0;-1.387526155E0
1.375788281E1;5.024586201E0;6.490087032E0;-1.640056849E0
1.376979375E1;5.839678288E0;6.653209209E0;-1.535411119E0
1.378170469E1;6.076206207E0;6.969147682E0;-1.881641507E0
1.379361719E1;5.646303177E0;7.234980583E0;-2.385697603E0
1.380552812E1;4.534359455E0;7.409833908E0;-2.618614912E0
1.381745781E1;3.830856800E0;7.917510033E0;-2.765092373E0
1.382935312E1;3.415290594E0;8.303082466E0;-2.563414335E0
1.384126250E1;3.477663994E0;8.844152451E0;-2.069385290E0
1.385317500E1;3.983089685E0;9.436344147E0;-1.266810417E0
1.386508906E1;5.876357555E0;1.031921959E1;-1.503846049E-1
1.387700938E1;9.110598564E0;1.139971352E1;2.894110978E-2
1.388890938E1;1.128600788E1;1.163009357E1;-1.394957662E0
1.390082188E1;9.287528992E0;1.075687981E1;-3.319388151E0
1.391273281E1;6.483862400E0;1.094228745E1;-5.371228695E0
1.392464375E1;5.130132675E0;1.234317303E1;-7.174273491E0
1.393656250E1;5.184279919E0;1.324791336E1;-3.264015198E0
1.394847188E1;6.304296970E0;1.140225220E1;8.165377378E-1
1.396037969E1;8.211997032E0;9.788741112E0;1.373381138E0
1.397229063E1;9.119753838E0;8.816370010E0;2.383198023E0
1.398420312E1;9.158175468E0;8.853375435E0;3.928952217E0
1.399611406E1;8.283937454E0;9.365599632E0;3.926988840E0
1.400802500E1;6.999438763E0;1.034261608E1;3.310568094E0
1.401993750E1;5.574448586E0;1.096662235E1;3.263287306E0
1.403184844E1;4.389921665E0;1.144514656E1;2.584119320E0
1.404375938E1;3.311401129E0;1.173654842E1;1.733660698E0
1.405568125E1;2.275343895E0;1.152579212E1;1.467310429E0
1.406758750E1;1.313133478E0;1.059513760E1;1.854050636E0
1.407949531E1;1.530890822E0;9.861898422E0;1.690536261E0
1.409140625E1;2.701119184E0;8.818898201E0;1.773978949E0
1.410331875E1;3.567370176E0;7.948347569E0;1.824688077E0
1.411523594E1;4.852970123E0;7.193953514E0;1.348768830E0
1.412714219E1;6.277118206E0;6.309343815E0;4.940100014E-1
1.413905312E1;5.863601208E0;4.882284641E0;1.461037546E-1
1.415096406E1;4.577799797E0;4.015172005E0;4.664671123E-1
1.416287656E1;3.998508215E0;3.980053902E0;7.449606061E-1
1.417478906E1;3.635231495E0;4.314590931E0;8.078132272E-1
1.418671875E1;3.212156773E0;4.823933601E0;8.240268230E-1
1.419861094E1;2.986575127E0;5.425845146E0;8.667872548E-1
1.421052188E1;2.917689323E0;6.133925915E0;5.066035390E-1
1.422243438E1;2.885290861E0;6.733970165E0;3.164847493E-1
1.423435156E1;2.846265316E0;7.214945793E0;2.712630630E-1
1.424625938E1;2.911425829E0;7.798690319E0;1.759738326E-1
1.425816875E1;2.826316833E0;8.288620949E0;1.463719159E-1
1.427008125E1;3.038395166E0;8.764119148E0;-2.362598293E-2
1.428199219E1;3.420797110E0;9.104852676E0;-4.205367565E-1
1.429390469E1;4.037830830E0;9.495892525E0;-8.209238648E-1
1.430581563E1;4.733700752E0;9.664980888E0;-1.008954883E0
1.431772656E1;5.204247475E0;9.314852715E0;-1.001178503E0
1.432963906E1;5.951582909E0;8.958020210E0;-1.099714398E0
1.434155000E1;6.892025471E0;9.214276314E0;-1.010151982E0
1.435346094E1;6.973150730E0;9.846737862E0;1.501930505E-1
1.436537344E1;7.346904755E0;1.130602360E1;1.133568406E0
1.437728438E1;6.280020237E0;1.254509926E1;2.234939486E-1
1.438919688E1;4.459076405E0;1.387504005E1;-3.130753636E-1
1.440110781E1;2.607841015E0;1.446571922E1;-4.406192899E-1
1.441302031E1;1.510894537E0;1.377245426E1;-1.456268430E0
1.442493750E1;2.441626072E0;1.337200832E1;-3.600276232E0
1.443685312E1;5.544435024E0;1.236923122E1;-3.433898211E0
1.444875313E1;6.646466732E0;1.046373463E1;-2.801407576E-1
1.446066562E1;6.795673370E0;8.604483604E0;2.314848423E0
1.447258438E1;6.352343559E0;7.525617599E0;3.381244898E0
1.448448906E1;5.368767738E0;7.207026005E0;3.939630032E0
1.449640000E1;5.468452454E0;7.852397442E0;4.507295609E0
1.450831094E1;5.897991180E0;8.728080750E0;4.591513634E0
1.452022344E1;6.515790939E0;9.542023659E0;4.720724106E0
1.453213906E1;7.372513294E0;1.025723934E1;4.948939323E0
1.454407188E1;8.410169601E0;1.069853783E1;5.048279762E0
1.455595781E1;8.960022926E0;1.026625061E1;4.583555698E0
1.456786875E1;8.305495262E0;9.035200119E0;2.887933969E0
1.457978125E1;7.383181572E0;8.125000954E0;1.947970390E0
1.459170000E1;6.456587315E0;7.282031536E0;1.340408206E0
1.460360469E1;5.764270306E0;6.691621780E0;8.724470735E-1
1.461551719E1;4.821232796E0;6.265893936E0;9.172856808E-1
1.462742813E1;3.686247110E0;5.713379383E0;2.608051896E-1
1.463933906E1;2.843430758E0;5.263097286E0;-6.313126683E-1
1.465125156E1;2.179949522E0;4.984200954E0;-1.234977126E0
1.466316406E1;1.653253794E0;4.943327427E0;-1.362051725E0
1.467507500E1;1.290292740E0;4.927698135E0;-1.410347700E0
1.468698594E1;1.269520640E0;5.201393604E0;-1.166637063E0
1.469889844E1;1.556164026E0;5.414813042E0;-7.989259362E-1
1.471081562E1;2.569370985E0;5.682369709E0;-7.852981687E-1
1.472272188E1;3.719689131E0;5.910393715E0;-1.024938583E0
1.473463125E1;4.779717445E0;6.104907513E0;-1.007997155E0
1.474654375E1;5.569822788E0;6.196155548E0;-9.883743525E-1
1.475845469E1;5.825207710E0;6.123362541E0;-9.383355379E-1
1.477036719E1;5.633700371E0;6.166898251E0;-8.736824989E-1
1.478227813E1;5.247295380E0;6.567046165E0;-9.304155111E-1
1.479419062E1;4.953938484E0;7.160875320E0;-1.296383500E0
1.480610156E1;4.634063244E0;7.615103245E0;-1.533591509E0
1.481801250E1;4.290275574E0;8.106642723E0;-1.446088314E0
1.482993125E1;4.021157265E0;8.751793861E0;-1.126222849E0
1.484183594E1;3.951131821E0;9.425857544E0;-1.083615780E0
1.485374844E1;4.321486473E0;9.530081749E0;-1.584061265E0
1.486565938E1;5.542557716E0;1.007142925E1;-1.372078776E0
1.487757031E1;7.640290260E0;1.139410114E1;-9.542330503E-1
1.488948906E1;9.875516891E0;1.269454575E1;-4.917402864E-1
1.490142188E1;9.332329750E0;1.227297497E1;-2.401355505E0
1.491330625E1;7.282960415E0;1.248739910E1;-3.887934685E0
1.492521719E1;5.103585243E0;1.254256153E1;-4.922029018E0
1.493712969E1;3.014472485E0;1.194274712E1;-4.624639988E0
1.494904062E1;4.593419552E0;1.099155998E1;-2.565932989E0
1.496095156E1;6.155942917E0;9.274811745E0;-6.033101082E-1
1.497286406E1;8.420378685E0;8.344597816E0;3.191135645E0
1.498477500E1;1.027310753E1;8.083945274E0;6.366737843E0
1.499668750E1;1.049646759E1;8.336869240E0;7.167741776E0
1.500859844E1;8.892889023E0;8.845224380E0;5.413682461E0
1.502051250E1;6.836039543E0;9.604522705E0;3.909683704E0
1.503242188E1;5.567553043E0;1.044281864E1;2.815178871E0
1.504433281E1;4.652441502E0;1.093333340E1;1.935846210E0
1.505624531E1;4.069616318E0;1.109025860E1;1.702421069E0
1.506816094E1;3.831393003E0;1.127123165E1;1.645467758E0
1.508006719E1;3.522646427E0;1.073480606E1;1.168763041E0
1.509197969E1;3.084526539E0;9.950733185E0;7.494617105E-1
1.510389219E1;2.687817097E0;8.974368095E0;4.131625891E-1
1.511582969E1;2.399593592E0;7.953824997E0;1.309819818E-1
1.512771406E1;2.282967091E0;6.920727730E0;-6.154056266E-2
1.513962656E1;2.636131048E0;5.911465645E0;-8.096232265E-2
1.515153750E1;2.934946537E0;5.012778282E0;4.277959466E-1
1.516345000E1;2.965113640E0;4.491225719E0;1.087628365E0
1.517536094E1;2.776756763E0;4.394260406E0;1.328963876E0
1.518727969E1;2.581284761E0;4.675444603E0;1.336357236E0
1.519918438E1;2.558980227E0;5.547958851E0;1.394833088E0
1.521109531E1;2.678269148E0;6.593286514E0;1.520729899E0
1.522300781E1;2.721096516E0;7.388037205E0;1.152195215E0
1.523491875E1;2.882848740E0;7.718590260E0;5.652039647E-1
1.524683750E1;3.123657465E0;7.859848022E0;-2.455589026E-1
1.525874219E1;3.041689634E0;7.869712353E0;-8.420311809E-1
1.527065312E1;3.307015181E0;7.928369999E0;-1.273447156E0
1.528256562E1;3.977104187E0;8.359690666E0;-1.308325887E0
1.529447656E1;4.576028347E0;8.918707848E0;-1.276751041E0
1.530639375E1;5.065508366E0;9.249682426E0;-1.361381292E0
1.531830000E1;5.419017315E0;9.074771881E0;-1.567349672E0
1.533021094E1;5.626335621E0;8.712949753E0;-1.494115949E0
1.534212344E1;6.104802608E0;8.803987503E0;-9.786730409E-1
1.535404063E1;6.983742714E0;9.273911476E0;1.501834840E-1
1.536595156E1;7.996825218E0;1.025602245E1;1.704020381E0
1.537785938E1;7.209429741E0;1.133366203E1;2.251765966E0
1.538976875E1;5.277481556E0;1.241592789E1;3.746542633E-1
1.540168125E1;4.080438137E0;1.338947773E1;-7.763151526E-1
1.541359688E1;3.472454309E0;1.328455353E1;-2.314637661E0
1.542551094E1;3.663789272E0;1.369561958E1;-3.694502115E0
1.543741563E1;5.775542259E0;1.340257835E1;-2.449766397E0
1.544932656E1;6.417456627E0;1.195784092E1;2.861549892E-2
1.546123906E1;6.280738354E0;9.907341003E0;1.721919417E0
1.547315000E1;5.977795124E0;8.663026810E0;2.838278294E0
1.548506094E1;5.838912010E0;8.134577751E0;3.744550467E0
1.549698281E1;5.845520020E0;8.261997223E0;4.671499729E0
1.550888438E1;5.485413074E0;8.285633087E0;5.294978142E0
1.552079688E1;5.500927448E0;8.739640236E0;5.313959599E0
1.553270781E1;6.111832142E0;9.531709671E0;4.619152546E0
1.554462656E1;6.959408283E0;1.025047779E1;3.732962608E0
1.555653125E1;8.031646729E0;1.055953121E1;2.934975386E0
1.556844219E1;8.535396576E0;1.018265438E1;1.844895244E0
1.558035469E1;7.460658073E0;9.327417374E0;1.036411643E0
1.559226719E1;6.367848396E0;8.547271729E0;4.174051285E-1
1.560418594E1;5.425739765E0;7.846459866E0;4.245589972E-1
1.561609375E1;4.325057983E0;7.017223358E0;3.879947364E-1
1.562800156E1;3.383026123E0;6.388908386E0;3.040252924E-1
1.563991250E1;2.528238773E0;5.859856606E0;2.968043685E-1
1.565182344E1;1.817524672E0;5.457544327E0;2.045797408E-1
1.566373594E1;1.339048386E0;5.290917397E0;-1.242111847E-1
1.567564844E1;9.043857455E-1;5.053412437E0;-5.239470601E-1
1.568755938E1;7.845703363E-1;4.969721317E0;-8.532072902E-1
1.569947500E1;1.041104198E0;5.154860020E0;-9.410457611E-1
1.571138281E1;1.695889592E0;5.529073715E0;-9.941779375E-1
1.572330000E1;2.395638227E0;5.642961025E0;-7.833540440E-1
1.573520625E1;3.390888691E0;5.611797810E0;-5.615648031E-1
1.574711875E1;4.719076633E0;5.474045277E0;-6.249058247E-1
1.575902812E1;5.998289108E0;5.598668575E0;-9.901460409E-1
1.577093906E1;7.090399265E0;5.893116474E0;-1.309609175E0
1.578285156E1;7.037861347E0;5.985916138E0;-1.621430039E0
1.579476406E1;5.804856777E0;6.249737740E0;-1.679618597E0
1.580667500E1;5.304784775E0;7.125192165E0;-2.226032972E0
1.581858594E1;5.407639503E0;8.268155098E0;-2.599844456E0
1.583050000E1;5.176014900E0;8.476240158E0;-2.573096514E0
1.584240938E1;4.882629395E0;8.631183624E0;-2.347735167E0
1.585432031E1;4.864069939E0;9.271239281E0;-2.043068171E0
1.586623281E1;5.148683071E0;1.014648342E1;-1.408575892E0
1.587814375E1;6.355628967E0;1.119720173E1;-7.483508587E-1
1.589005625E1;8.949391365E0;1.234547138E1;-9.308081865E-1
1.590197500E1;9.980516434E0;1.191758919E1;-2.739962578E0
1.591387969E1;7.928427696E0;1.141093731E1;-4.756091118E0
1.592579063E1;6.660678864E0;1.261254883E1;-6.853564739E0
1.593770156E1;5.423719406E0;1.335476208E1;-6.088502884E0
1.594961406E1;6.403455257E0;1.339731121E1;-2.274635315E0
1.596152656E1;6.899964809E0;1.117619133E1;-2.074527889E-1
1.597343750E1;7.541352272E0;9.274954796E0;1.022860408E0
1.598534844E1;7.525377750E0;8.404892921E0;2.858715057E0
1.599725938E1;6.787265301E0;7.035860062E0;4.575319290E0
1.600917344E1;6.354393005E0;6.877047539E0;4.775675774E0
1.602108281E1;6.119397640E0;8.271507263E0;4.731890678E0
1.603300312E1;5.564517498E0;1.034322929E1;4.545861244E0
1.604490625E1;5.051095009E0;1.157494068E1;3.968877792E0
1.605681719E1;4.973858356E0;1.180327988E1;3.029900551E0
1.606872969E1;5.766827583E0;1.105820465E1;1.847298980E0
1.608064062E1;6.016561985E0;1.005399990E1;1.021040797E0
1.609255313E1;6.061246872E0;9.186035156E0;3.903889358E-1
1.610446406E1;5.756139755E0;8.191445351E0;-8.719681948E-2
1.611637656E1;5.046507835E0;7.139806271E0;-2.606519461E-1
1.612828750E1;4.397401333E0;6.144958019E0;-8.489838988E-2
1.614019844E1;3.914644241E0;5.279396534E0;2.914126515E-1
1.615210938E1;3.828558445E0;4.532320023E0;7.580425143E-1
1.616402188E1;3.792846441E0;4.476113319E0;7.520666718E-1
1.617593438E1;3.757795334E0;4.606185436E0;6.485700607E-1
1.618784531E1;3.805938005E0;4.891401768E0;6.698784828E-1
1.619977188E1;3.797558308E0;5.551454544E0;5.933406353E-1
1.621166875E1;3.707028627E0;6.256556511E0;4.057309926E-1
1.622358125E1;3.598657370E0;6.908804417E0;2.797768116E-1
1.623549219E1;3.390467167E0;7.400362492E0;3.458855152E-1
1.624740312E1;3.064664364E0;7.613733768E0;7.364564575E-3
1.625931719E1;2.963772774E0;7.631326199E0;-3.220871687E-1
1.627122656E1;3.109004974E0;7.842456341E0;-4.345380366E-1
1.628313750E1;3.516258717E0;8.289272308E0;-3.233513236E-1
1.629505000E1;3.896793127E0;8.795866013E0;-3.160250485E-1
1.630696094E1;4.220019817E0;9.045217514E0;-6.929011345E-1
1.631887344E1;4.341070652E0;9.127387047E0;-1.283052683E0
1.633079531E1;4.362886906E0;9.105972290E0;-1.818961143E0
1.634269688E1;5.021292210E0;9.111335754E0;-1.789646626E0
1.635460781E1;5.691314220E0;9.169562340E0;-1.314464569E0
1.636651875E1;6.562353611E0;9.560028076E0;-2.747202814E-1
1.637843125E1;7.243571281E0;1.055388069E1;6.330940127E-1
1.639034219E1;5.477847099E0;1.151460648E1;1.462761462E-1
1.640225469E1;4.787033558E0;1.277071953E1;-4.123198688E-1
1.641416563E1;4.368670940E0;1.353380013E1;-9.880200028E-1
1.642607656E1;4.069022655E0;1.411243057E1;-2.395714760E0
1.643798750E1;3.669162035E0;1.426559162E1;-4.010125160E0
1.644991094E1;5.085619450E0;1.379068756E1;-2.985176802E0
1.646181094E1;5.827199936E0;1.248298454E1;-8.545193076E-1
1.647372344E1;5.437346935E0;1.085615349E1;1.362722158E0
1.648563438E1;5.606434822E0;8.837697029E0;3.296346426E0
1.649755000E1;8.780571938E0;7.510562897E0;5.182316303E0
1.650945781E1;8.298714638E0;5.983109951E0;5.430499554E0
1.652137031E1;5.583738327E0;5.909531116E0;5.124022484E0
1.653328125E1;4.881049156E0;6.967797279E0;5.137305737E0
1.654519219E1;5.878962517E0;8.610487938E0;4.614766121E0
1.655710469E1;6.931606293E0;9.508763313E0;3.714364529E0
1.656901875E1;7.903460979E0;1.005270672E1;2.927601099E0
1.658092812E1;8.041721344E0;9.876809120E0;2.005182266E0
1.659283906E1;7.069972038E0;8.765125275E0;1.843334198E0
1.660475156E1;6.002819538E0;8.079310417E0;1.970926046E0
1.661666875E1;5.128083229E0;7.448878288E0;1.340312362E0
1.662857969E1;4.294910431E0;6.890215874E0;5.423058271E-1
1.664048594E1;3.460674763E0;6.540834427E0;2.421399802E-1
1.665239688E1;2.672091722E0;6.393993378E0;1.576725394E-1
1.666430938E1;2.024527311E0;6.181234837E0;1.552400365E-2
1.667622812E1;1.533830881E0;6.218392849E0;-1.517540812E-1
1.668813906E1;9.953845739E-1;5.902013779E0;-4.533277154E-1
1.670004375E1;7.120164037E-1;5.657249451E0;-7.445009947E-1
1.671195469E1;1.182592034E0;5.663800240E0;-1.123780727E0
1.672386719E1;2.099006176E0;5.798230171E0;-1.784398556E0
1.673577812E1;2.856196642E0;5.849331379E0;-2.032935858E0
1.674769062E1;3.682214975E0;5.476238251E0;-1.836381435E0
1.675960156E1;4.990349770E0;5.421659946E0;-1.321053505E0
1.677151406E1;6.410312176E0;5.329904556E0;-2.447257191E-1
1.678342500E1;7.873677254E0;5.520952702E0;1.755811721E-1
1.679534531E1;7.514115810E0;5.763896942E0;-5.293866992E-1
1.680725000E1;6.176657200E0;6.593612194E0;-1.261342049E0
1.681915938E1;5.385316372E0;7.671664238E0;-1.620022178E0
1.683107031E1;5.133494377E0;8.827785492E0;-1.886975765E0
1.684298281E1;4.940310478E0;9.187471390E0;-2.225602150E0
1.685490156E1;4.650612354E0;8.915355682E0;-2.697891951E0
1.686680625E1;5.028206348E0;9.421681404E0;-2.586580515E0
1.687871875E1;5.512247086E0;1.024908924E1;-2.113304377E0
1.689062969E1;6.442672253E0;1.096848965E1;-1.771498561E0
1.690254062E1;8.223192215E0;1.189900970E1;-1.214406133E0
1.691445312E1;9.590769768E0;1.206719780E1;-1.396614552E0
1.692638281E1;8.184406281E0;1.176251125E1;-2.454909086E0
1.693827500E1;6.706244946E0;1.209179115E1;-3.838106394E0
1.695018750E1;5.322865486E0;1.265276241E1;-5.721318245E0
1.696209844E1;4.354765415E0;1.351113224E1;-4.763532162E0
1.697401719E1;4.975467205E0;1.315154076E1;-2.259666681E0
1.698592188E1;5.870496750E0;1.039957905E1;-6.581851840E-1
1.699783281E1;6.987707615E0;8.505899429E0;8.667105436E-1
1.700974531E1;8.428595543E0;7.852521896E0;3.087313414E0
1.702165938E1;8.968506813E0;7.182193279E0;5.263633251E0
1.703357188E1;8.910366058E0;7.397910595E0;6.288274765E0
1.704548594E1;7.041893005E0;7.792877674E0;4.791372299E0
1.705739062E1;5.368164062E0;8.332406044E0;3.613319635E0
1.706930312E1;4.506816387E0;9.204164505E0;3.142274857E0
1.708121406E1;3.998144627E0;9.714080811E0;3.141288280E0
1.709312656E1;3.901064396E0;9.599053383E0;3.140541553E0
1.710503906E1;4.293972015E0;8.768571854E0;2.190397739E0
1.711694844E1;4.538601875E0;7.983082294E0;1.262031674E0
1.712886094E1;4.669727325E0;7.598200321E0;8.151969314E-1
1.714077344E1;4.626507282E0;7.185391903E0;1.180820260E-2
1.715272188E1;4.700325489E0;6.522322655E0;-7.563187480E-1
1.716459688E1;4.458941936E0;5.890023232E0;-8.158481717E-1
1.717650781E1;4.294192314E0;5.358185291E0;-4.222126901E-1
1.718841875E1;4.115508080E0;4.727581024E0;1.818731427E-1
1.720033125E1;4.226302147E0;4.672696114E0;-9.586384147E-2
1.721224219E1;4.535795689E0;4.706061840E0;-5.280842781E-1
1.722415312E1;4.424159050E0;5.051439762E0;5.759491771E-2
1.723606563E1;4.314667702E0;5.817737579E0;4.338867962E-1
1.724797656E1;4.134719372E0;6.581239223E0;6.120920181E-1
1.725988906E1;4.119626522E0;7.532360077E0;6.231532693E-1
1.727180625E1;3.873061657E0;8.410169601E0;9.539361596E-1
1.728371094E1;3.303624868E0;9.181801796E0;9.501054287E-1
1.729562344E1;3.086068630E0;9.622593880E0;4.222893119E-1
1.730753438E1;3.185380220E0;1.005147171E1;2.745574713E-1
1.731944688E1;3.287650585E0;1.042324352E1;-2.900814824E-2
1.733135781E1;3.385698080E0;1.044664001E1;-6.431975365E-1
1.734326875E1;3.588525295E0;1.000245762E1;-1.446251154E0
1.735518125E1;4.265040398E0;9.527869225E0;-2.076242208E0
1.736709219E1;4.912509441E0;9.072090149E0;-2.466592789E0
1.737900312E1;5.630961418E0;9.204700470E0;-1.864479780E0
1.739092344E1;6.451703072E0;9.767834663E0;-4.150779843E-1
1.740282656E1;7.132154465E0;1.109528637E1;5.371247530E-1
1.741473906E1;5.391138554E0;1.199697208E1;2.753331959E-1
1.742665000E1;4.605850220E0;1.315939426E1;-1.672301888E-1
1.743856719E1;3.907605171E0;1.334556770E1;-7.126868367E-1
1.745048125E1;3.308307886E0;1.318493557E1;-1.624561667E0
1.746239375E1;2.625826359E0;1.259361649E1;-2.295991421E0
1.747429688E1;3.409687996E0;1.166391850E1;-1.140406132E0
1.748620781E1;3.990185976E0;1.042673969E1;2.630270123E-1
1.749811875E1;4.274837494E0;9.493603706E0;1.418267608E0
1.751003438E1;7.197679043E0;9.391246796E0;2.682846785E0
1.752194219E1;1.134038544E1;9.704868317E0;4.661980152E0
1.753385469E1;1.058108807E1;8.577016830E0;5.625866413E0
1.754576562E1;7.931961536E0;7.657078743E0;5.866071701E0
1.755767813E1;7.828148842E0;7.875812531E0;6.324791431E0
1.756959688E1;8.718131065E0;8.113739014E0;6.791229725E0
1.758150156E1;9.699725151E0;8.034108162E0;7.009762764E0
1.759341250E1;9.076246262E0;7.549569130E0;4.702557087E0
1.760532344E1;8.026235580E0;7.500785351E0;2.381033659E0
1.761723594E1;6.808822155E0;7.318126678E0;1.061684847E0
1.762915469E1;5.663369179E0;6.731843948E0;6.138541698E-1
1.764105938E1;4.633143902E0;6.255618095E0;2.816251516E-1
1.765297031E1;3.591292858E0;5.923705101E0;3.742616251E-2
1.766488125E1;2.658598185E0;5.669402122E0;-1.283675283E-1
1.767679375E1;1.704192758E0;5.536409855E0;-1.424358487E-1
1.768871250E1;7.098520398E-1;5.330000401E0;-8.694208264E-1
1.770061719E1;1.641464680E-1;5.350418568E0;-2.042895794E0
1.771252813E1;-1.800439670E-3;5.412035465E0;-2.360453129E0
1.772444062E1;2.992560863E-1;5.572657585E0;-2.189133644E0
1.773635156E1;1.425584316E0;6.004111767E0;-1.830779076E0
1.774827031E1;2.560321093E0;5.909483433E0;-1.348864555E0
1.776018906E1;3.960364103E0;5.725656509E0;-1.072094798E0
1.777208594E1;5.768742561E0;5.757873058E0;3.031538129E-1
1.778399844E1;7.327511787E0;5.545066833E0;2.451854050E-1
1.779590938E1;7.278660774E0;5.350322723E0;-5.690347552E-1
1.780782344E1;6.149746418E0;5.632751942E0;-1.271263719E0
1.781973281E1;5.660458088E0;6.689983845E0;-1.752775908E0
1.783164375E1;5.330900669E0;7.611961842E0;-2.183234215E0
1.784355469E1;5.059924603E0;8.369381905E0;-2.680682421E0
1.785546719E1;5.069348812E0;9.083169937E0;-2.655332565E0
1.786738281E1;5.212234497E0;9.930094719E0;-2.163544178E0
1.787928906E1;5.321247578E0;1.051200104E1;-1.538561940E0
1.789120156E1;5.928732872E0;1.102160263E1;-5.711703300E-1
1.790311406E1;7.055300713E0;1.165205288E1;2.939122021E-1
1.791502500E1;8.703832626E0;1.175528145E1;-6.531190872E-1
1.792694375E1;8.383077621E0;1.131176949E1;-2.215096235E0
1.793884844E1;7.195093155E0;1.152657700E1;-4.245666504E0
1.795075938E1;5.954935074E0;1.238863373E1;-6.526929379E0
1.796267188E1;5.054648399E0;1.321701813E1;-6.691190243E0
1.797458281E1;5.739064217E0;1.334697533E1;-3.576046705E0
1.798649531E1;6.951325417E0;1.108703995E1;-9.523847103E-1
1.799840625E1;8.086961746E0;8.516156197E0;8.877987266E-1
1.801031719E1;9.090726852E0;7.645413876E0;3.424867153E0
1.802222969E1;8.845100403E0;6.843710423E0;4.892905235E0
1.803414063E1;8.752003670E0;6.691994667E0;4.988415241E0
1.804605312E1;8.469938278E0;7.257888317E0;4.692501545E0
1.805796406E1;7.300035954E0;7.723216057E0;4.093922138E0
1.806987500E1;6.336015224E0;8.520053864E0;3.449106216E0
1.808178750E1;5.768235207E0;9.475934982E0;2.934410095E0
1.809370000E1;5.566892624E0;9.895207405E0;2.956312180E0
1.810561094E1;5.349480152E0;9.590454102E0;2.998909950E0
1.811752812E1;5.006984234E0;9.106058121E0;2.833403587E0
1.812943438E1;4.649185658E0;8.542828560E0;2.076270819E0
1.814134531E1;4.197322845E0;8.074311256E0;1.192551851E0
1.815325781E1;3.305032730E0;7.709980488E0;6.107704639E-1
1.816518438E1;2.738574028E0;7.023275852E0;2.649902552E-2
1.817708125E1;3.061963558E0;6.173266888E0;-6.205005050E-1
1.818899219E1;3.958400726E0;5.666462421E0;-7.027173638E-1
1.820090469E1;5.000108242E0;5.150598049E0;-3.147225976E-1
1.821281562E1;5.459095478E0;4.929355145E0;5.704041719E-1
1.822472656E1;5.288351059E0;5.006831169E0;7.783358097E-1
1.823663750E1;4.783576488E0;5.023676872E0;7.987630963E-1
1.824855000E1;4.268344879E0;5.353473186E0;8.118546009E-1
1.826047031E1;3.796562195E0;5.825715542E0;7.232213020E-1
1.827237344E1;3.270087004E0;6.633633614E0;7.051977515E-1
1.828429219E1;2.862201214E0;7.389828205E0;6.283246875E-1
1.829619531E1;2.693524837E0;8.089020729E0;2.785797417E-1
1.830810781E1;2.675147057E0;8.614059448E0;8.760862797E-2
1.832001875E1;2.642260313E0;8.996280670E0;-2.837703526E-1
1.833192969E1;2.434692383E0;9.156087875E0;-6.286982298E-1
1.834384219E1;2.334500074E0;9.269055367E0;-1.069729328E0
1.835575781E1;2.474819422E0;9.333201408E0;-1.710704923E0
1.836766562E1;2.954186201E0;9.202421188E0;-2.327461004E0
1.837957656E1;3.995539665E0;9.136512756E0;-2.393952608E0
1.839148906E1;4.759327888E0;9.260887146E0;-2.487795830E0
1.840340156E1;5.303760052E0;9.660479546E0;-1.859279513E0
1.841531250E1;6.597394943E0;1.055498123E1;-4.954752624E-1
1.842722344E1;7.900674343E0;1.156237602E1;6.044497490E-1
1.843913438E1;6.771664619E0;1.265875721E1;5.281130075E-1
1.845104688E1;5.066801071E0;1.350376701E1;9.959879098E-4
1.846296406E1;4.723434448E0;1.397008133E1;-1.288588166E0
1.847487344E1;4.950615406E0;1.388699245E1;-3.073992252E0
1.848678125E1;6.160970688E0;1.289827347E1;-1.960669160E0
1.849869219E1;6.777056217E0;1.086723328E1;-1.349372137E-2
1.851061094E1;7.506214619E0;9.008394241E0;1.423419952E0
1.852251719E1;7.573396683E0;7.732735157E0;2.920676947E0
1.853442812E1;6.904197693E0;7.082450867E0;3.764595032E0
1.854633906E1;6.623099327E0;7.179722786E0;3.804405689E0
1.855825000E1;6.315664768E0;7.475234032E0;4.501415253E0
1.857016562E1;6.506577969E0;7.827966690E0;5.985034943E0
1.858208594E1;7.452096462E0;8.042084694E0;7.255609035E0
1.859400781E1;8.747666359E0;8.658170700E0;7.038493156E0
1.860589688E1;8.583701134E0;8.940543175E0;3.958936930E0
1.861780938E1;7.641487122E0;9.034692764E0;1.627903938E0
1.862972031E1;6.871196270E0;9.143868446E0;1.545505077E-1
1.864165781E1;5.924480915E0;8.836883545E0;4.372769967E-2
1.865354375E1;4.774478436E0;8.181312561E0;-3.273256719E-1
1.866545625E1;3.695450544E0;7.657576084E0;-8.126686811E-1
1.867736875E1;2.493857861E0;7.047907352E0;-8.627170324E-1
1.868927969E1;1.336424232E0;6.151690483E0;-1.309532642E0
1.870119688E1;8.161259294E-1;5.518922329E0;-1.943555474E0
1.871310781E1;9.925785661E-1;5.203730583E0;-1.793879509E0
1.872501406E1;1.814824104E0;5.136950970E0;-1.600092888E0
1.873692500E1;2.690958261E0;5.057214737E0;-1.139783740E0
1.874883594E1;3.419848919E0;5.059589863E0;-3.338283300E-1
1.876075000E1;4.265720367E0;4.996095657E0;5.593717098E-1
1.877265938E1;4.775733471E0;4.885626793E0;4.722993672E-1
1.878457031E1;4.887015820E0;4.833730698E0;-1.991209686E-1
1.879648281E1;4.697079182E0;4.752930641E0;-8.064724803E-1
1.880839531E1;4.918753624E0;5.067347050E0;-1.125025749E0
1.882031250E1;5.207015038E0;5.620934486E0;-1.336596608E0
1.883221719E1;5.469908237E0;6.666980267E0;-1.762975216E0
1.884412969E1;5.676556587E0;7.862405300E0;-2.170257568E0
1.885604063E1;5.654156208E0;8.704847336E0;-2.705697060E0
1.886795312E1;5.093730927E0;8.877144814E0;-3.292946815E0
1.887987188E1;4.970066071E0;9.263616562E0;-3.083204985E0
1.889177500E1;5.194910049E0;1.033063602E1;-1.882848144E0
1.890368750E1;6.070469856E0;1.083533287E1;-4.167060256E-1
1.891559844E1;8.351348877E0;1.155916786E1;4.428890049E-1
1.892750938E1;1.096172714E1;1.201565552E1;-6.690931916E-1
1.893942188E1;1.005434513E1;1.156737518E1;-2.291787386E0
1.895133281E1;7.489723682E0;1.178303528E1;-4.391358376E0
1.896324531E1;5.737005234E0;1.237833881E1;-6.959063530E0
1.897515625E1;5.106334686E0;1.308762550E1;-5.703457355E0
1.898706875E1;6.078035355E0;1.191736889E1;-2.018015146E0
1.899898125E1;6.990542412E0;8.828312874E0;1.655351073E-1
1.901089375E1;8.089451790E0;7.027882099E0;2.566785336E0
1.902280313E1;8.786864281E0;6.496446133E0;4.612448692E0
1.903471406E1;8.769204140E0;6.870947361E0;5.742081165E0
1.904662500E1;8.458876610E0;8.286839485E0;5.794293880E0
1.905855625E1;6.665735245E0;9.060253143E0;4.801695824E0
1.907044844E1;5.196901798E0;9.836702347E0;3.040760756E0
1.908236094E1;4.808256149E0;1.056396484E1;1.944244981E0
1.909427188E1;4.837570667E0;1.116658592E1;2.206534624E0
1.910618438E1;5.309774399E0;1.129536533E1;2.797145844E0
1.911809531E1;5.675445080E0;1.063933372E1;3.122603893E0
1.913001563E1;5.380067825E0;9.493594170E0;2.286634922E0
1.914191719E1;4.644109726E0;8.377427101E0;1.226875067E0
1.915382969E1;4.159647942E0;7.356845856E0;6.229712367E-1
1.916574219E1;4.031558037E0;6.450640202E0;3.267414868E-1
1.917766094E1;4.190427780E0;5.754569530E0;1.556039602E-1
1.918956562E1;4.387911320E0;5.175411701E0;1.768836193E-2
1.920147656E1;4.637501240E0;4.796447754E0;-1.323993504E-1
1.921338906E1;5.026846886E0;4.517542362E0;-1.682453454E-1
1.922530000E1;5.196021080E0;4.363106728E0;-1.357703805E-1
1.923721719E1;5.306690216E0;4.405110836E0;-1.520030797E-1
1.924912344E1;4.390946865E0;4.524274826E0;1.028165966E-1
1.926103438E1;3.612745047E0;4.936489582E0;4.854770899E-1
1.927294688E1;3.016215324E0;5.994296074E0;6.065470576E-1
1.928485781E1;2.525078297E0;6.824604988E0;5.515091419E-1
1.929676875E1;2.236395121E0;7.508915424E0;2.933375835E-1
1.930868281E1;2.155834913E0;8.212360382E0;1.030655950E-1
1.932059219E1;1.943047881E0;8.948875427E0;3.547249362E-2
1.933250313E1;1.632424235E0;9.387808800E0;-6.365703791E-2
1.934441562E1;1.435563326E0;9.849104881E0;-3.785041273E-1
1.935633438E1;1.540027142E0;9.933485031E0;-9.922816753E-1
1.936823906E1;2.428687811E0;9.637331963E0;-2.308374166E0
1.938015000E1;3.374598742E0;9.364374161E0;-2.865227222E0
1.939206250E1;4.117117405E0;9.322608948E0;-2.202857256E0
1.940397344E1;5.236702919E0;9.701928139E0;-4.570147991E-1
1.941589063E1;8.540021896E0;1.061652279E1;1.769085169E0
1.942779844E1;1.179627895E1;1.206266785E1;2.623211861E0
1.943970781E1;8.240076065E0;1.240589142E1;1.096822143E0
1.945162031E1;5.457458496E0;1.372031784E1;-9.161939621E-1
1.946353125E1;4.058593273E0;1.324739552E1;-2.289297342E0
1.947544375E1;3.160145044E0;1.284513187E1;-3.148250818E0
1.948735469E1;4.082841873E0;1.296557903E1;-2.574015856E0
1.949926562E1;4.449144840E0;1.111997604E1;-1.561785698E0
1.951117812E1;6.228659153E0;9.139769554E0;-4.795681834E-1
1.952308906E1;9.145544052E0;8.162034988E0;2.797519207E0
1.953502344E1;8.957273483E0;7.413923264E0;4.627264023E0
1.954692031E1;6.750374794E0;7.229828358E0;5.111199379E0
1.955882344E1;5.701532841E0;7.854561329E0;5.528068066E0
1.957073438E1;5.702088356E0;8.397460938E0;5.685452938E0
1.958265000E1;6.671069145E0;8.901881218E0;6.306940556E0
1.959456562E1;8.238467216E0;9.428030968E0;6.126791000E0
1.960647031E1;9.335596085E0;9.551590919E0;3.445581675E0
1.961838125E1;9.116008759E0;9.610191345E0;1.135167599E0
1.963029375E1;8.256145477E0;1.004685593E1;-7.042783499E-2
1.964220469E1;7.060510159E0;9.628875732E0;-9.470312595E-1
1.965411719E1;5.563444614E0;8.164276123E0;-1.541051865E0
1.966602812E1;4.342267990E0;6.992064953E0;-1.901091933E0
1.967794062E1;3.337651014E0;6.263930798E0;-1.833766937E0
1.968985156E1;2.821547508E0;5.835052967E0;-1.401862502E0
1.970176250E1;2.577990294E0;5.606195927E0;-7.260560393E-1
1.971367500E1;2.625960350E0;5.444586754E0;-7.344453782E-2
1.972558750E1;2.932178736E0;5.355034351E0;5.945568681E-1
1.973749844E1;2.953410625E0;5.178811550E0;9.157246947E-1
1.974940938E1;3.119529724E0;5.035312653E0;9.760106802E-1
1.976132188E1;3.396433592E0;5.008047581E0;7.848289013E-1
1.977323906E1;3.680347681E0;5.092476368E0;2.319311053E-1
1.978514375E1;4.004101276E0;5.048882961E0;-3.823156953E-1
1.979705469E1;4.400351048E0;5.035801411E0;-9.325128198E-1
1.980896719E1;4.906102657E0;5.111275673E0;-1.505043149E0
1.982087969E1;5.266075134E0;5.268086433E0;-2.075629234E0
1.983279062E1;5.221112251E0;5.734448433E0;-2.335994005E0
1.984470313E1;4.965085983E0;6.530616283E0;-3.021099329E0
1.985661406E1;4.713455200E0;7.425932407E0;-3.450676680E0
1.986852500E1;4.581917763E0;8.166563988E0;-3.158200979E0
1.988043750E1;4.820073605E0;8.569537163E0;-2.739148617E0
1.989235625E1;5.348981857E0;8.885552406E0;-2.502678156E0
1.990426406E1;6.194250107E0;9.614098549E0;-1.636034727E0
1.991617188E1;7.207983494E0;1.003995132E1;-1.222239971E0
1.992808281E1;8.581996918E0;1.091107655E1;-3.325833380E-1
1.993999531E1;9.649447441E0;1.157498837E1;-8.692293167E-1
1.995191250E1;8.784469604E0;1.144635296E1;-2.769622087E0
1.996381719E1;7.180449963E0;1.163744831E1;-5.173247337E0
1.997572969E1;5.636305332E0;1.228580761E1;-7.118114948E0
1.998764062E1;4.568873882E0;1.347705746E1;-6.068659782E0
1.999955313E1;4.869375706E0;1.371610355E1;-2.921519756E0
2.001147656E1;6.334837437E0;1.082380295E1;-8.450766206E-1
2.002337812E1;8.227329254E0;8.078888893E0;1.468708634E0
2.003528750E1;9.274504662E0;6.535222530E0;4.171264172E0
2.004719844E1;9.035371780E0;5.880111217E0;4.932917595E0
2.005911562E1;8.061372757E0;6.558216095E0;4.381101608E0
2.007102188E1;7.019081116E0;7.460083485E0;3.405866861E0
2.008293438E1;6.163450718E0;8.518933296E0;2.351776361E0
2.009484531E1;6.358702660E0;9.737745285E0;1.687538743E0
2.010675781E1;6.714375973E0;1.026395226E1;1.396202683E0
2.011866875E1;6.807701588E0;9.960826874E0;1.389997005E0
2.013058750E1;6.707796574E0;9.427216530E0;1.481168032E0
2.014249844E1;6.299316883E0;8.934404373E0;1.956579924E0
2.015440312E1;5.676633358E0;8.574842453E0;2.044763088E0
2.016631563E1;4.557161808E0;7.993933201E0;1.219395638E0
2.017822656E1;3.817219496E0;7.386705875E0;4.908400774E-1
2.019013750E1;3.604326963E0;6.625685215E0;4.335324764E-1
2.020205000E1;3.574907064E0;5.774872303E0;4.816654921E-1
2.021396250E1;3.557323933E0;5.485422134E0;1.695860922E-1
2.022587344E1;3.550246716E0;5.272530079E0;1.489001960E-1
2.023778438E1;3.595899343E0;5.112664700E0;5.124070644E-1
2.024970312E1;3.768693924E0;5.173812389E0;7.491266131E-1
2.026160781E1;3.923081636E0;5.517016411E0;8.946748376E-1
2.027351875E1;3.858591318E0;5.964052200E0;9.843233824E-1
2.028543125E1;3.590919495E0;6.419333458E0;3.672992885E-1
2.029734219E1;3.145962000E0;6.908344746E0;-1.496376097E-1
2.030926250E1;2.686907291E0;7.369726658E0;-6.003603935E-1
2.032116563E1;2.379424810E0;7.716550350E0;-1.348443151E0
2.033307812E1;2.339680910E0;7.968966484E0;-2.031920671E0
2.034500156E1;2.429875135E0;8.637533188E0;-1.825607538E0
2.035690000E1;2.733728170E0;9.070385933E0;-1.694223285E0
2.036882031E1;3.570769787E0;9.395604134E0;-1.844138622E0
2.038072812E1;4.338351250E0;9.452107430E0;-2.091421366E0
2.039263438E1;4.910718441E0;9.422533989E0;-2.087954521E0
2.040454688E1;6.207139969E0;9.597598076E0;-1.679982543E0
2.041645781E1;8.094843864E0;9.554971695E0;-9.414671659E-1
2.042837813E1;9.868659973E0;9.967971802E0;4.829009175E-1
2.044028281E1;9.504052162E0;1.139902401E1;9.528731108E-1
2.045219219E1;6.841747761E0;1.261678219E1;-1.685518026E-1
2.046410469E1;5.095838070E0;1.399842739E1;-9.237500429E-1
2.047601563E1;4.068888664E0;1.424239731E1;-1.537479758E0
2.048793125E1;2.647517920E0;1.388474178E1;-2.202435732E0
2.049984062E1;1.105690241E0;1.220925140E1;-1.951121211E0
2.051175156E1;2.250769854E0;1.047018814E1;-1.434787631E0
2.052366250E1;3.125678301E0;9.164190292E0;-4.510197043E-1
2.053557344E1;3.615991354E0;8.713620186E0;1.070878506E0
2.054749219E1;6.295744896E0;9.559003830E0;3.275660753E0
2.055940625E1;1.291193962E1;1.022898769E1;5.454930305E0
2.057130781E1;1.324798965E1;9.556581497E0;7.278363705E0
2.058322031E1;9.570428848E0;8.427733421E0;7.344471931E0
2.059513281E1;9.569834709E0;9.189779282E0;6.523442745E0
2.060705000E1;9.260360718E0;9.108692169E0;5.658331871E0
2.061896094E1;8.112187386E0;8.483586311E0;4.642615795E0
2.063086719E1;7.713820934E0;7.973859787E0;3.013342381E0
2.064277812E1;6.875266075E0;7.369592190E0;9.568283558E-1
2.065469062E1;5.954724789E0;6.920717716E0;-2.451183647E-1
2.066660312E1;4.991020203E0;6.824413776E0;-8.069608808E-1
2.067851563E1;3.790069103E0;6.588354588E0;-8.405179977E-1
2.069043906E1;2.796485186E0;6.388649464E0;-4.909549952E-1
2.070233594E1;1.692901731E0;6.187526703E0;7.029375993E-3
2.071424844E1;4.074739814E-1;5.544032574E0;-2.390083671E-1
2.072616562E1;-4.130285382E-1;5.010068417E0;-1.108601570E0
2.073807188E1;-5.277490616E-1;4.600640774E0;-1.816883087E0
2.074998281E1;5.594100356E-1;4.631621361E0;-2.014778137E0
2.076189375E1;1.617158651E0;4.575530052E0;-1.726363063E0
2.077380625E1;2.494087934E0;4.525242329E0;-1.340369821E0
2.078572344E1;3.765102625E0;4.580864429E0;-7.919061184E-1
2.079762813E1;6.098319054E0;4.892359734E0;8.129751682E-1
2.080954062E1;7.975708485E0;5.474878311E0;7.897513509E-1
2.082145781E1;7.071361065E0;5.366641521E0;-3.566402793E-1
2.083336406E1;5.411671162E0;5.804224968E0;-1.197886109E0
2.084528125E1;4.889898300E0;6.932726860E0;-1.674169421E0
2.085718594E1;5.018409729E0;7.855672836E0;-1.795325637E0
2.086909844E1;5.012423992E0;8.500095367E0;-1.870857954E0
2.088100938E1;5.332423210E0;8.974291801E0;-2.019403696E0
2.089292031E1;6.099458694E0;9.727536201E0;-2.360213518E0
2.090483906E1;6.826874733E0;1.026089764E1;-2.279978991E0
2.091674531E1;7.996681690E0;1.065623760E1;-1.785835028E0
2.092865625E1;9.331621170E0;1.165228367E1;-1.426312089E0
2.094056719E1;9.225577354E0;1.130528641E1;-1.645936966E0
2.095247969E1;7.813563347E0;1.121369362E1;-2.676688671E0
2.096439062E1;6.113546371E0;1.191948509E1;-4.598936081E0
2.097630312E1;4.481830597E0;1.265100956E1;-5.774431705E0
2.098821406E1;4.169627190E0;1.278585148E1;-5.050760269E0
2.100012500E1;5.958239079E0;1.171523190E1;-2.155423164E0
2.101203750E1;7.581258774E0;8.796306610E0;4.298549891E-1
2.102395469E1;9.515266418E0;7.017500877E0;2.797097921E0
2.103586094E1;1.015484333E1;6.225805759E0;4.609374523E0
2.104777188E1;9.843559265E0;6.897340775E0;5.134978294E0
2.105968281E1;8.592052460E0;8.375808716E0;4.840970516E0
2.107159531E1;7.022825718E0;9.432972908E0;4.058890343E0
2.108351406E1;6.406692505E0;1.057939339E1;3.048786163E0
2.109542500E1;6.013047218E0;1.091960907E1;2.326139450E0
2.110732969E1;5.876443386E0;1.024404240E1;2.263181448E0
2.111924219E1;6.054955006E0;9.511262894E0;2.132046223E0
2.113115312E1;6.289692402E0;9.144049644E0;1.673709869E0
2.114306563E1;5.691170692E0;8.328335762E0;8.687025905E-1
2.115497656E1;4.690250397E0;7.414699078E0;5.021981597E-1
2.116688906E1;4.352208614E0;6.707739353E0;1.029985547E-1
2.117880000E1;4.367196083E0;6.125986099E0;1.378198266E-1
2.119071250E1;4.411191940E0;5.347411156E0;6.080027223E-1
2.120262969E1;4.718119144E0;5.108067989E0;9.180039763E-1
2.121454062E1;5.178658009E0;5.354967117E0;6.410619020E-1
2.122644688E1;5.327366829E0;5.761732578E0;4.377175272E-1
2.123835781E1;4.532827377E0;6.384253979E0;5.464909077E-1
2.125027031E1;3.931585789E0;6.821157455E0;9.658018351E-1
2.126218125E1;3.101946831E0;7.327454090E0;9.638864994E-1
2.127409219E1;2.627875805E0;7.874778271E0;4.046200812E-1
2.128600469E1;2.183799267E0;7.790359020E0;-5.270691514E-1
2.129791562E1;1.349965811E0;7.312897682E0;-8.308646083E-1
2.130982813E1;3.488639295E-1;6.999745369E0;-9.868899584E-1
2.132174062E1;-2.677962482E-1;6.757462025E0;-1.052481413E0
2.133365000E1;3.541503251E-1;6.774738312E0;-1.190492749E0
2.134556250E1;1.738650203E0;7.183744431E0;-1.178770900E0
2.135747344E1;3.364542961E0;7.988866806E0;-1.493426442E0
2.136938594E1;4.671920776E0;8.670974731E0;-2.247772217E0
2.138130313E1;5.434703827E0;8.692829132E0;-2.029152870E0
2.139320781E1;6.647338390E0;8.631451607E0;-1.395522714E0
2.140512031E1;7.432473660E0;8.756994247E0;-4.158920050E-1
2.141703125E1;8.080660820E0;9.427178383E0;1.013561368E0
2.142894375E1;8.078763962E0;1.046193314E1;2.175792933E0
2.144086094E1;6.862404823E0;1.156177235E1;1.589749932E0
2.145276562E1;5.692109585E0;1.301576138E1;-3.158909678E-1
2.146467813E1;5.107636929E0;1.384010410E1;-1.431062222E0
2.147658906E1;4.504891396E0;1.326075554E1;-2.811721563E0
2.148850000E1;3.956877947E0;1.267176247E1;-3.944897413E0
2.150041250E1;4.598543167E0;1.283707714E1;-2.875656605E0
2.151233281E1;5.229626179E0;1.147005558E1;-9.278681278E-1
2.152423594E1;5.591150284E0;9.712174416E0;7.617105246E-1
2.153614688E1;7.643259048E0;8.657547951E0;3.595315218E0
2.154805938E1;9.630953789E0;7.778789997E0;6.270376205E0
2.155997656E1;9.208081245E0;6.894429207E0;5.617237568E0
2.157188281E1;7.970153809E0;7.017251968E0;5.343724251E0
2.158379375E1;8.199690819E0;7.658553123E0;6.688595295E0
2.159570625E1;8.512000084E0;8.200064659E0;6.037563801E0
2.160761719E1;8.769586563E0;8.811859131E0;3.927438974E0
2.161953438E1;8.181897163E0;9.627027512E0;2.092293024E0
2.163144062E1;6.430835247E0;1.039661026E1;7.845511436E-1
2.164335156E1;5.220767498E0;1.058890343E1;2.025303096E-1
2.165526406E1;4.198060036E0;1.001246452E1;-2.728432231E-2
2.166717500E1;3.269665480E0;8.709568977E0;-3.822678328E-1
2.167908594E1;2.431273460E0;7.251711369E0;-5.813600421E-1
2.169099844E1;2.119759083E0;6.033857346E0;-6.252027154E-1
2.170290938E1;2.092570543E0;5.128887653E0;-5.847023726E-1
2.171482188E1;2.112145424E0;4.420625687E0;-5.375270247E-1
2.172673281E1;2.254332542E0;3.767190218E0;-4.107013643E-1
2.173865156E1;2.421782970E0;3.628747702E0;-5.301720276E-2
2.175055625E1;3.047215223E0;3.843555689E0;5.047934875E-2
2.176246719E1;3.475988388E0;4.274195671E0;1.323706210E-1
2.177437813E1;3.782541752E0;4.635643482E0;1.313458979E-1
2.178629063E1;4.021866322E0;4.908946991E0;2.564860582E-1
2.179820938E1;4.064741611E0;5.215021610E0;3.453587890E-1
2.181011719E1;3.850163460E0;5.441934109E0;4.482424259E-1
2.182202500E1;3.522646427E0;6.007990837E0;1.935855746E-1
2.183393750E1;3.675434828E0;6.883598328E0;-9.876561165E-2
2.184584844E1;3.964453459E0;7.822546482E0;-4.204314053E-1
2.185775938E1;4.537309170E0;9.027902603E0;-6.649081707E-1
2.186967188E1;4.788824558E0;9.948942184E0;-6.356318593E-1
2.188158281E1;4.749722481E0;1.018974113E1;-1.140961528E0
2.189349531E1;4.559067249E0;1.026958275E1;-2.409974575E0
2.190540625E1;4.671604633E0;1.057319736E1;-3.618778229E0
2.191732812E1;5.009895802E0;1.073162556E1;-2.851158857E0
2.192923125E1;6.195293903E0;1.108427238E1;-2.265489399E-1
2.194114063E1;8.591429710E0;1.247622395E1;1.624389291E0
2.195305312E1;9.460027695E0;1.264015961E1;3.227384090E-1
2.196496406E1;6.983867168E0;1.229668617E1;-2.008064747E0
2.197688750E1;5.140418053E0;1.238623047E1;-4.858687401E0
2.198878750E1;3.969729900E0;1.310038185E1;-6.495316029E0
2.200069844E1;4.058794498E0;1.321849346E1;-4.398292065E0
2.201261094E1;5.724411488E0;1.097304821E1;-1.580527425E0
2.202452188E1;7.818179607E0;8.427043915E0;6.246759892E-1
2.203643438E1;8.720248222E0;7.391915798E0;3.174587011E0
2.204834375E1;7.926713467E0;6.978178501E0;4.927420616E0
2.206025625E1;7.267034054E0;7.266095638E0;5.991126060E0
2.207216875E1;6.655277252E0;8.213748932E0;4.720437050E0
2.208407969E1;5.648199558E0;9.042104721E0;4.031615257E0
2.209600000E1;5.164321899E0;9.541861534E0;3.945366621E0
2.210790312E1;5.627964020E0;9.679000854E0;3.340112448E0
2.211981562E1;6.295399666E0;9.624461174E0;2.490716696E0
2.213172656E1;6.642042637E0;9.311347961E0;1.386396050E0
2.214363906E1;6.391091824E0;8.785388947E0;6.183265448E-1
2.215555000E1;5.830369473E0;8.345669746E0;6.888597459E-2
2.216746406E1;5.281110764E0;7.939354897E0;-4.257656932E-1
2.217937344E1;4.678566933E0;7.008623123E0;-5.896823406E-1
2.219128438E1;4.269541740E0;6.084930897E0;-5.594483018E-1
2.220319688E1;4.074241638E0;5.490009785E0;-2.403203845E-1
2.221510781E1;3.774506807E0;5.092256546E0;2.222776785E-2
2.222701875E1;3.636811495E0;5.029652596E0;4.243578911E-1
2.223893125E1;3.664268255E0;5.124769688E0;6.553983688E-1
2.225084219E1;3.730673790E0;5.415942669E0;6.552642584E-1
2.226275469E1;3.863504171E0;5.902894497E0;6.202131510E-1
2.227467031E1;3.670244217E0;6.379676342E0;4.265797138E-1
2.228658125E1;3.222126245E0;6.744839668E0;4.077038169E-1
2.229848906E1;2.673844576E0;7.281102657E0;2.636686265E-1
2.231040000E1;2.568662405E0;7.797550678E0;-1.674887687E-1
2.232231250E1;2.584176779E0;8.082077980E0;-7.413884997E-1
2.233422969E1;2.782818794E0;8.365656853E0;-1.118561387E0
2.234613594E1;3.400819778E0;8.648928642E0;-1.255030990E0
2.235804688E1;4.197792053E0;8.859322548E0;-9.812683463E-1
2.236995781E1;4.932898521E0;9.038015366E0;-8.002475500E-1
2.238187031E1;5.192161560E0;8.847379684E0;-8.082920313E-1
2.239379062E1;5.202293873E0;8.485826492E0;-8.307688832E-1
2.240572031E1;5.498561859E0;8.590424538E0;-4.104810655E-1
2.241760469E1;6.264840126E0;9.370100975E0;-3.465846181E-2
2.242951562E1;7.049152374E0;1.045228958E1;-7.688834667E-1
2.244142812E1;6.421813965E0;1.156431961E1;-1.385237217E0
2.245333906E1;4.739235878E0;1.324079704E1;-1.372049928E0
2.246525000E1;3.714354992E0;1.484575462E1;-1.867084742E0
2.247716250E1;3.179576397E0;1.562478065E1;-2.641628265E0
2.248907344E1;3.925935268E0;1.586459351E1;-3.662515640E0
2.250098594E1;5.891891003E0;1.433304214E1;-4.521967411E0
2.251289688E1;6.480969906E0;1.177906990E1;-2.620405674E0
2.252481094E1;7.407037735E0;9.939317703E0;7.318595648E-1
2.253672031E1;7.995091915E0;9.115654945E0;2.371945381E0
2.254863125E1;7.883177280E0;8.184243202E0;3.214742422E0
2.256054375E1;8.827833176E0;7.394894123E0;4.484540939E0
2.257245625E1;1.038470650E1;6.829795361E0;5.718828678E0
2.258436719E1;1.006655502E1;5.831853867E0;7.040178776E0
2.259627812E1;1.075304985E1;6.015287876E0;6.300217152E0
2.260819063E1;9.907359123E0;6.835991859E0;4.164608479E0
2.262010156E1;6.850864887E0;7.056133747E0;1.781918049E0
2.263202188E1;5.282001495E0;7.649225712E0;-2.513911724E-1
2.264392500E1;4.364514828E0;8.081829071E0;-8.993100524E-1
2.265583594E1;3.466133833E0;7.799523830E0;-1.277057648E0
2.266774844E1;2.864844322E0;7.153424740E0;-1.972640276E0
2.267965938E1;2.502419710E0;6.255206108E0;-1.983222604E0
2.269157813E1;2.050336838E0;5.509977341E0;-1.204350471E0
2.270348281E1;1.771680593E0;5.184298992E0;-5.631833076E-1
2.271539531E1;1.936842203E0;4.960881710E0;-2.945442796E-1
2.272730625E1;2.407743454E0;4.988970757E0;-2.664650679E-1
2.273921719E1;2.852270126E0;4.978838444E0;-3.574734926E-1
2.275112969E1;3.453454018E0;5.101258278E0;-4.881489873E-1
2.276306250E1;4.181875706E0;5.293503284E0;-7.804044485E-1
2.277495156E1;4.937255859E0;5.481333733E0;-8.106862903E-1
2.278686406E1;5.449509621E0;5.516844273E0;-6.347028613E-1
2.279877656E1;5.844495296E0;5.719106674E0;-9.494063258E-1
2.281069375E1;5.701025486E0;6.085821152E0;-1.571046352E0
2.282259844E1;5.291386604E0;6.694149494E0;-1.847270250E0
2.283450938E1;4.975974560E0;7.427924633E0;-2.285380363E0
2.284642188E1;4.626660824E0;8.335883141E0;-2.544950247E0
2.285833281E1;4.497383118E0;9.075048447E0;-2.431101084E0
2.287025000E1;4.291616440E0;9.370990753E0;-2.387957573E0
2.288215469E1;4.433994770E0;9.101625443E0;-3.403539896E0
2.289406875E1;5.066781998E0;9.259240150E0;-4.340055466E0
2.290597969E1;5.831107140E0;9.124685287E0;-3.032045603E0
2.291789844E1;7.500669956E0;9.545969963E0;1.885673255E-1
2.292980313E1;9.217331886E0;1.092061520E1;1.253240108E0
2.294171719E1;9.199528694E0;1.100116539E1;-4.352179766E-1
2.295362656E1;8.145208359E0;1.073086071E1;-2.532758951E0
2.296553750E1;6.591926575E0;1.099941349E1;-4.286463737E0
2.297744844E1;5.298923969E0;1.173021889E1;-5.463855267E0
2.298936094E1;4.900155067E0;1.199077511E1;-3.862038851E0
2.300127813E1;5.926692963E0;1.016816521E1;-1.211858749E0
2.301318281E1;7.241263390E0;7.417735100E0;7.295611501E-2
2.302509531E1;8.876790047E0;6.672697544E0;1.662639022E0
2.303700625E1;9.104948044E0;7.667258739E0;2.422357321E0
2.304892656E1;9.977892876E0;8.731155396E0;3.174433947E0
2.306082969E1;9.857684135E0;9.999919891E0;3.145348787E0
2.307274219E1;8.820851326E0;9.939547539E0;2.281070709E0
2.308465313E1;7.871407032E0;9.601141930E0;1.575097442E0
2.309656562E1;7.705767155E0;9.535089493E0;1.061905026E0
2.310848281E1;7.900051594E0;9.784642220E0;1.152243018E0
2.312038750E1;7.410849094E0;9.129570007E0;8.937554955E-1
2.313230000E1;6.744744301E0;8.613322258E0;6.234022379E-1
2.314421094E1;6.342805386E0;8.719079018E0;3.202388287E-1
2.315612344E1;5.648822308E0;8.877652168E0;5.723482370E-1
2.316803438E1;4.589560032E0;8.380548477E0;4.889630079E-1
2.317994688E1;3.627138853E0;7.153673172E0;3.286759928E-2
2.319185781E1;3.650257349E0;5.953163624E0;-1.927907020E-1
2.320377031E1;4.031653881E0;4.927190304E0;-1.638591588E-1
2.321568125E1;4.339452267E0;4.241864681E0;-8.040686697E-2
2.322759375E1;4.669583797E0;4.140139580E0;-5.079538375E-2
2.323951875E1;4.917920113E0;4.575147152E0;4.753448069E-1
2.325141562E1;4.235055447E0;5.412945271E0;1.357617617E0
2.326332656E1;3.443857908E0;6.295994282E0;1.680356026E0
2.327523906E1;2.943393230E0;6.727419376E0;1.934275508E0
2.328715781E1;2.134680033E0;6.519421101E0;1.699040413E0
2.329906250E1;1.575030446E0;6.353377819E0;6.954485178E-1
2.331097344E1;1.536052704E0;6.336628437E0;-4.786966741E-1
2.332288438E1;1.681026459E0;6.596217155E0;-1.925943732E0
2.333482344E1;1.748293996E0;7.002494335E0;-2.894474745E0
2.334673750E1;1.693208098E0;7.229885578E0;-2.591311455E0
2.335862031E1;1.958667755E0;7.726021767E0;-2.018053532E0
2.337053125E1;2.708340168E0;8.155455589E0;-1.585641503E0
2.338244219E1;3.626286507E0;8.482302666E0;-1.329825759E0
2.339436250E1;4.596694946E0;9.141407013E0;-1.423017740E0
2.340626719E1;6.006515503E0;9.944622993E0;-1.684225082E0
2.341817812E1;7.666665077E0;1.116555119E1;-1.778642774E0
2.343008906E1;7.577561855E0;1.194401169E1;-1.585718155E0
2.344200156E1;6.118937969E0;1.271804714E1;-1.041755438E0
2.345391250E1;4.951075077E0;1.321112823E1;-8.510429263E-1
2.346582500E1;3.909463167E0;1.252838898E1;-1.419819117E0
2.347774375E1;3.893211365E0;1.193155193E1;-2.664076090E0
2.348964688E1;5.370433807E0;1.229866028E1;-2.830750942E0
2.350155938E1;5.942945004E0;1.102600765E1;-2.290092230E0
2.351347031E1;5.487251759E0;9.350823402E0;-5.342996120E-1
2.352538906E1;6.082708836E0;8.624997139E0;5.044199824E-1
2.353729375E1;7.324159622E0;8.775984764E0;9.422620535E-1
2.354920469E1;8.230633736E0;9.450096130E0;1.915093303E0
2.356111563E1;8.748202324E0;1.037562656E1;3.428066015E0
2.357302812E1;9.356588364E0;1.100569534E1;4.674966335E0
2.358496250E1;1.035972023E1;1.127009201E1;5.311412334E0
2.359685156E1;1.078998756E1;1.059748363E1;4.397621632E0
2.360876250E1;1.010074425E1;9.837582588E0;2.891419888E0
2.362067500E1;9.334581375E0;9.873525620E0;1.004300594E0
2.363258594E1;7.802895069E0;9.604158401E0;1.509304717E-2
2.364450156E1;6.049075127E0;8.673082352E0;-4.436934739E-2
2.365640938E1;4.412178516E0;7.530099392E0;-2.343731970E-1
2.366832031E1;3.221685886E0;6.533795357E0;-7.664318085E-1
2.368023281E1;2.252627611E0;5.661568642E0;-1.268237472E0
2.369214531E1;1.603262782E0;4.490315914E0;-1.608779073E0
2.370406250E1;1.833948970E0;3.786372662E0;-1.161666632E0
2.371596719E1;2.343894720E0;3.510550976E0;-3.668491542E-1
2.372787969E1;2.756846666E0;3.517523050E0;8.671798557E-2
2.373979062E1;3.295944452E0;3.461259127E0;1.144332662E-1
2.375170313E1;3.462207317E0;3.527731657E0;4.155184925E-1
2.376362031E1;3.513778210E0;3.996420622E0;4.989037514E-1
2.377552500E1;3.776374340E0;4.550218582E0;2.045318633E-1
2.378743750E1;4.119587898E0;4.879967213E0;-4.001477063E-1
2.379934844E1;4.486561298E0;5.011265278E0;-1.074776292E0
2.381126094E1;4.760687828E0;5.236827850E0;-1.578075767E0
2.382317188E1;5.151297569E0;5.891009808E0;-1.732951880E0
2.383508281E1;4.963783741E0;6.646648884E0;-1.827647328E0
2.384699531E1;4.758964539E0;7.607863426E0;-2.191642523E0
2.385890625E1;4.463615894E0;8.535894394E0;-2.522291422E0
2.387081719E1;4.666777611E0;9.175433159E0;-2.841428995E0
2.388272812E1;5.186166286E0;9.536373138E0;-3.211361885E0
2.389464219E1;5.560351372E0;9.671894073E0;-3.516038418E0
2.390655313E1;5.860019684E0;1.002069187E1;-2.999321699E0
2.391846406E1;6.723205566E0;1.038347054E1;-1.688706994E0
2.393037500E1;7.978734970E0;1.063535023E1;-3.152110279E-1
2.394228750E1;8.900320053E0;1.102771187E1;-2.582194507E-1
2.395420469E1;8.431383133E0;1.142066765E1;-1.510971069E0
2.396611094E1;7.343064308E0;1.173003674E1;-3.202934265E0
2.397802188E1;6.066638947E0;1.176893711E1;-4.877812386E0
2.398993281E1;4.963821888E0;1.130521011E1;-6.536132336E0
2.400184531E1;4.574907780E0;1.044382381E1;-6.838941574E0
2.401375625E1;5.502871513E0;1.068726635E1;-2.866098881E0
2.402566875E1;6.493352413E0;9.335949898E0;7.428058386E-1
2.403757969E1;8.159697533E0;7.380835533E0;2.156610489E0
2.404949062E1;8.512306213E0;6.273938656E0;2.958294630E0
2.406140313E1;8.602768898E0;6.768417835E0;3.741275311E0
2.407331406E1;9.388622284E0;8.392405510E0;4.800824642E0
2.408522656E1;1.067856026E1;1.083086109E1;5.514689445E0
2.409713750E1;1.010172081E1;1.113038445E1;5.118487358E0
2.410905000E1;8.746842384E0;1.031849194E1;3.730597258E0
2.412096875E1;7.575991631E0;9.798203468E0;2.028166533E0
2.413287344E1;6.842733860E0;9.989758492E0;3.618404865E-1
2.414478438E1;6.637876511E0;1.022099972E1;7.845319808E-2
2.415669688E1;6.502287865E0;1.022450542E1;6.617764831E-1
2.416860781E1;5.526689053E0;9.440183640E0;9.278585315E-1
2.418051875E1;4.038616180E0;8.615276337E0;1.351517320E0
2.419243125E1;3.037140608E0;7.748316765E0;1.049091339E0
2.420434219E1;2.213994980E0;6.774230957E0;6.336494088E-1
2.421625469E1;1.921318173E0;6.057291985E0;3.506068885E-1
2.422816563E1;1.767093301E0;5.271792412E0;2.594740093E-1
2.424007812E1;1.663826585E0;4.550965786E0;6.397306919E-2
2.425198906E1;2.116847992E0;4.192400455E0;-8.742666990E-2
2.426390000E1;2.808178186E0;4.221666813E0;-1.646253020E-1
2.427581250E1;4.111993790E0;4.978541374E0;-1.558337957E-1
2.428772969E1;5.258059502E0;5.657010078E0;-1.038796231E-1
2.429964219E1;5.377128124E0;5.925993919E0;-1.073560044E-1
2.431154688E1;4.769153595E0;5.996287823E0;3.993528336E-2
2.432345781E1;4.168850899E0;6.420061588E0;5.030313134E-1
2.433537031E1;3.937494516E0;7.006075859E0;7.171208262E-1
2.434728125E1;3.385429859E0;7.915019989E0;8.607633710E-1
2.435919219E1;2.990961075E0;8.726980209E0;5.988951921E-1
2.437110469E1;2.873693466E0;9.225395203E0;9.571061283E-2
2.438301563E1;2.787013769E0;9.261960030E0;-3.083444536E-1
2.439492812E1;2.859328032E0;9.274965286E0;-7.695059776E-1
2.440683906E1;3.076941967E0;9.451666832E0;-1.361735702E0
2.441875469E1;3.383792162E0;9.657740593E0;-2.135446072E0
2.443066875E1;3.880780697E0;1.030245113E1;-2.444336176E0
2.444257344E1;4.656396389E0;1.126691246E1;-2.235341549E0
2.445448438E1;5.262790680E0;1.250208092E1;-2.520127296E0
2.446639688E1;5.389587402E0;1.329197598E1;-2.864786863E0
2.447830938E1;5.539291859E0;1.318864155E1;-2.882590055E0
2.449021875E1;5.532837391E0;1.209212589E1;-3.321179152E0
2.450213125E1;5.629112720E0;1.136382866E1;-4.106764793E0
2.451404375E1;6.214658260E0;1.190982246E1;-3.703533173E0
2.452595469E1;6.491064072E0;1.191662216E1;-1.675864577E0
2.453787813E1;6.126111031E0;1.079104137E1;6.029557437E-2
2.454977813E1;5.626421928E0;9.512364388E0;1.118676424E0
2.456169062E1;5.991642952E0;9.071927071E0;1.749989033E0
2.457360156E1;6.694360256E0;8.952217102E0;2.078377724E0
2.458551250E1;6.969799042E0;8.793989182E0;2.364906311E0
2.459742344E1;6.728099823E0;8.365695000E0;2.709249973E0
2.460933594E1;6.952819347E0;8.392931938E0;3.318334818E0
2.462124844E1;7.383181572E0;8.722517967E0;4.079001427E0
2.463315938E1;7.739094257E0;9.103290558E0;4.103757381E0
2.464507031E1;7.730762005E0;9.117733002E0;3.465051413E0
2.465698281E1;7.040408611E0;9.010213852E0;2.816270828E0
2.466889375E1;6.178984165E0;8.679058075E0;1.802086949E0
2.468080469E1;5.551627159E0;8.024349213E0;1.050460815E0
2.469271875E1;5.144727707E0;7.252535343E0;7.717852592E-1
2.470462969E1;4.384606838E0;6.606607914E0;5.483679473E-2
2.471655000E1;3.721001148E0;6.036117554E0;-4.687751234E-1
2.472845312E1;2.919527769E0;5.215088367E0;-6.818207502E-1
2.474036406E1;2.453903675E0;4.937313080E0;-8.417725563E-1
2.475227500E1;2.057787657E0;4.750718594E0;-8.634257317E-1
2.476418750E1;1.838823438E0;4.727734566E0;-7.750701308E-1
2.477611250E1;1.635115266E0;5.015239716E0;-5.916360021E-1
2.478800938E1;1.768328667E0;5.204611301E0;-6.722439528E-1
2.479992188E1;2.120486975E0;5.561998367E0;-7.101393938E-1
2.481183281E1;2.873425007E0;5.841085911E0;-6.542108059E-1
2.482374531E1;3.609689951E0;5.805967808E0;-7.753095627E-1
2.483565625E1;4.435842991E0;5.326830387E0;-4.426591396E-1
2.484756875E1;5.487788200E0;5.162176609E0;-3.511048853E-1
2.485947969E1;6.146251202E0;5.319006443E0;-4.520061314E-1
2.487139062E1;6.214571953E0;5.783088684E0;-3.277470767E-1
2.488330312E1;6.546149731E0;6.391158581E0;-5.533574820E-1
2.489521406E1;6.671098232E0;7.327645779E0;-8.598152995E-1
2.490712500E1;6.463587761E0;8.200342178E0;-1.845373988E0
2.491903750E1;6.244393826E0;9.127300262E0;-2.552266836E0
2.493094844E1;6.023227215E0;1.046980572E1;-2.390859365E0
2.494286094E1;5.824537277E0;1.197910023E1;-2.201200247E0
2.495477344E1;6.250963688E0;1.293202114E1;-1.671143174E0
2.496668438E1;8.036741257E0;1.339210129E1;-8.651782870E-1
2.497859531E1;8.306845665E0;1.261885071E1;-1.098411918E0
2.499050625E1;7.444530964E0;1.203846741E1;-2.561958790E0
