"Time (s)";"Acceleration x (m/s^2)";"Acceleration y (m/s^2)";"Acceleration z (m/s^2)"
0.000000000E0;1.978376746E0;6.355140209E0;7.717948914E0
1.190781200E-2;1.517751455E0;6.165509701E0;7.925794125E0
2.381718700E-2;1.321560979E0;6.162071705E0;7.705958366E0
3.572968700E-2;1.402216911E0;6.317072392E0;7.435471058E0
4.764687500E-2;1.614036798E0;6.369400024E0;6.940101147E0
5.955312500E-2;1.863349676E0;6.515647411E0;6.540786743E0
7.146406200E-2;1.877236128E0;6.548764229E0;6.680875778E0
8.337656200E-2;1.830530047E0;6.313653469E0;7.237767696E0
9.528750000E-2;1.865925908E0;6.235037804E0;7.616415501E0
1.072000000E-1;2.012058258E0;6.349614143E0;7.721721649E0
1.191109370E-1;2.146315575E0;6.270883083E0;7.533211708E0
1.310218750E-1;2.045749664E0;6.337241173E0;7.339348793E0
1.429343750E-1;2.165737391E0;6.265482426E0;7.280479908E0
1.548453120E-1;2.118686438E0;6.162110329E0;7.398495197E0
1.667578120E-1;1.935788751E0;5.990838528E0;7.254536629E0
1.786687500E-1;1.937416792E0;6.054830551E0;7.162177563E0
1.905796870E-1;2.170181036E0;5.954600334E0;7.454078674E0
2.024921870E-1;2.265211582E0;5.971637249E0;7.890168667E0
2.144078120E-1;2.134488344E0;6.059552193E0;7.598123550E0
2.263156250E-1;2.096678972E0;6.021733284E0;7.335958481E0
2.382265620E-1;2.179508686E0;6.079414368E0;6.811762333E0
2.501375000E-1;3.064156771E0;6.328047276E0;6.774001122E0
2.620500000E-1;3.423296690E0;6.290439606E0;7.694504261E0
2.739609370E-1;3.295130014E0;6.361748219E0;8.148042679E0
2.858734370E-1;2.852787018E0;6.333343029E0;7.853594780E0
2.977906250E-1;2.544461966E0;6.022671700E0;7.333468914E0
3.096953120E-1;2.520424128E0;5.916580200E0;7.005932331E0
3.216078120E-1;2.692710638E0;6.122069359E0;6.991155148E0
3.335187500E-1;2.576467514E0;6.072327614E0;7.047869205E0
3.454328120E-1;2.386588097E0;5.807375431E0;7.277328968E0
3.573421870E-1;2.428084373E0;5.835100651E0;7.488564968E0
3.692531250E-1;2.841754675E0;5.922747612E0;7.499089718E0
3.811656250E-1;3.293080807E0;6.012759686E0;7.746066093E0
3.930765620E-1;3.373095036E0;5.939573765E0;8.045322418E0
4.049890620E-1;3.424196720E0;5.840473175E0;8.374372482E0
4.169000000E-1;3.406441450E0;5.690098286E0;8.362334251E0
4.288171870E-1;3.292496681E0;5.414467812E0;8.504242897E0
4.407234370E-1;3.197034836E0;5.080726147E0;8.245037079E0
4.526343750E-1;2.748112440E0;5.060193539E0;7.343581676E0
4.645453120E-1;2.051495552E0;4.788058758E0;6.329675198E0
4.764578120E-1;1.691398144E0;4.645019531E0;5.765802860E0
4.883687500E-1;1.589405179E0;4.761970997E0;6.062779427E0
5.002812500E-1;1.869584203E0;4.980111599E0;6.254354000E0
5.121937500E-1;2.288071632E0;4.860717773E0;6.306212425E0
5.241046870E-1;2.045826197E0;4.485853195E0;6.996135235E0
5.360156250E-1;2.338905334E0;4.993452549E0;8.227454185E0
5.479281250E-1;2.813445568E0;4.931059361E0;9.143925667E0
5.598390620E-1;3.169817686E0;5.104351997E0;9.314613342E0
5.717515620E-1;3.463586092E0;5.541303158E0;8.710268974E0
5.836625000E-1;3.556462049E0;5.776318073E0;8.369449615E0
5.955890620E-1;3.346529007E0;5.698975563E0;8.099843025E0
6.074859370E-1;3.188588142E0;5.477014065E0;7.708908081E0
6.193984370E-1;2.614267111E0;4.849120140E0;7.399874210E0
6.313093750E-1;2.120343208E0;4.259371281E0;7.330279350E0
6.432203120E-1;1.756175637E0;3.876834869E0;7.147036552E0
6.551312500E-1;1.505292058E0;3.821576834E0;7.247468948E0
6.670437500E-1;1.882809758E0;4.255051613E0;7.442050457E0
6.789562500E-1;2.709767103E0;5.105567932E0;7.205627918E0
6.908734370E-1;3.919767857E0;5.731632710E0;6.486543655E0
7.027781250E-1;4.787541389E0;5.224081039E0;6.641783714E0
7.146906250E-1;4.469601154E0;4.423517704E0;7.600948811E0
7.266015620E-1;3.665560961E0;3.594041586E0;8.494033813E0
7.385140620E-1;3.067556620E0;3.200894594E0;8.822010994E0
7.504250000E-1;2.793487549E0;3.144630671E0;8.679402351E0
7.623375000E-1;2.541770697E0;3.298817396E0;7.848145485E0
7.742484370E-1;2.128512383E0;3.719813824E0;6.924673080E0
7.861593750E-1;1.990347743E0;3.924881935E0;6.046096802E0
7.980703120E-1;1.889168859E0;4.078695297E0;5.420826912E0
8.099875000E-1;2.345944166E0;4.164819241E0;5.296520233E0
8.218937500E-1;2.927285194E0;3.921156406E0;6.241454124E0
8.338093750E-1;2.864738941E0;3.716672659E0;7.121016502E0
8.457171870E-1;2.821030617E0;3.535594225E0;7.547749519E0
8.576296870E-1;2.979660749E0;3.622915506E0;7.292661667E0
8.695406250E-1;3.340964794E0;4.222605705E0;6.712058067E0
8.814515620E-1;3.603446007E0;4.527894974E0;6.181005478E0
8.933640620E-1;3.861895323E0;3.992781401E0;6.385948658E0
9.052750000E-1;4.595105171E0;3.498263836E0;7.059658051E0
9.171859370E-1;4.793163300E0;3.296040058E0;7.848384857E0
9.291156250E-1;5.007348061E0;3.053334951E0;8.780381203E0
9.410125000E-1;5.590776920E0;2.610216141E0;8.848720551E0
9.529203120E-1;5.936643600E0;2.581227064E0;8.046815872E0
9.648328120E-1;5.956352711E0;3.234595299E0;7.173727512E0
9.767453120E-1;6.005251408E0;3.981863737E0;6.841641903E0
9.886765620E-1;6.609193802E0;4.150138378E0;7.033695221E0
1.000567187E0;6.870219231E0;3.955182791E0;7.683941364E0
1.012479687E0;6.385824203E0;3.616652250E0;8.131608963E0
1.024390625E0;5.853315353E0;3.234719753E0;8.185430527E0
1.036303125E0;5.455581188E0;2.842798471E0;7.894870758E0
1.048214062E0;5.276284218E0;2.456498861E0;7.564259529E0
1.060129687E0;5.383037090E0;2.160910606E0;7.146165371E0
1.072037500E0;5.728768826E0;1.800688744E0;7.310723782E0
1.083948437E0;5.748373032E0;1.178253651E0;8.045149803E0
1.095860937E0;5.308098793E0;8.187786937E-1;8.593374252E0
1.107781250E0;5.130208969E0;7.003710270E-1;8.404002190E0
1.119684375E0;5.400849819E0;4.789169729E-1;7.527197838E0
1.131595312E0;6.202236652E0;1.008265376E0;6.991356373E0
1.143506250E0;6.572562695E0;1.925254107E0;6.292345047E0
1.155418750E0;6.943788052E0;2.575988531E0;6.002120018E0
1.167329687E0;6.993740559E0;2.454420567E0;6.688891888E0
1.179242187E0;6.968975067E0;2.016291380E0;8.406233788E0
1.191153125E0;6.720112324E0;1.340963602E0;9.270300865E0
1.203065625E0;6.817183018E0;1.337831974E0;9.297471046E0
1.214976562E0;6.545536518E0;1.200615525E0;8.598134041E0
1.226887500E0;5.825360775E0;1.162375331E0;7.514144421E0
1.238801562E0;5.363213062E0;1.981000900E0;6.286149025E0
1.250710937E0;5.347871304E0;2.437938929E0;5.794360638E0
1.262623437E0;6.618444920E0;2.916922808E0;6.506444454E0
1.274534375E0;7.236608982E0;2.805745840E0;7.257447720E0
1.286446875E0;7.511846066E0;2.589731455E0;7.385441780E0
1.298357812E0;7.615821362E0;2.366486311E0;7.639323235E0
1.310268750E0;7.285192013E0;2.045807123E0;7.105569363E0
1.322185937E0;7.483019829E0;2.191460609E0;6.477723122E0
1.334092187E0;8.004850388E0;2.233790398E0;6.537367821E0
1.346004687E0;8.091836929E0;1.734149098E0;6.481343269E0
1.357915625E0;8.357793808E0;1.533553243E0;6.710238934E0
1.369826562E0;8.351204872E0;1.058304191E0;6.624009132E0
1.381739062E0;8.153041840E0;5.431198478E-1;6.440172672E0
1.393650000E0;7.675734043E0;-1.541099697E-1;6.588680267E0
1.405564062E0;7.152313709E0;-8.102169633E-1;6.090791702E0
1.417473437E0;7.948596001E0;-2.343444675E-1;5.732418060E0
1.429384375E0;8.656791687E0;9.704178572E-2;5.539752007E0
1.441296875E0;9.207056046E0;8.366969228E-1;4.994658947E0
1.453207812E0;9.591181755E0;1.398615956E0;4.167577267E0
1.465118750E0;1.011955261E1;7.610113621E-1;4.712688923E0
1.477031250E0;1.011489868E1;-5.031462908E-1;6.493754864E0
1.488942187E0;1.099842644E1;-9.828772545E-1;7.600441456E0
1.500854687E0;1.255161190E1;-5.105491281E-1;7.797225475E0
1.512767187E0;1.277274036E1;-2.141182423E-1;7.534715176E0
1.524678125E0;1.261359310E1;1.456249207E-1;6.143502235E0
1.536589062E0;1.261770153E1;5.817143917E-1;5.232853413E0
1.548501562E0;1.226415443E1;6.646591425E-1;5.217415333E0
1.560412500E0;1.137626934E1;3.838288188E-1;5.178370953E0
1.572325000E0;1.108820915E1;1.120199114E-1;5.237593651E0
1.584235937E0;1.118322086E1;7.208462805E-2;5.137573719E0
1.596148437E0;1.085839462E1;-3.060268462E-1;5.674564362E0
1.608059375E0;1.066671467E1;-7.631853223E-1;5.671001911E0
1.619971875E0;1.042854881E1;-1.035472989E0;5.233208179E0
1.631882812E0;1.004723835E1;-1.096199632E0;4.822898865E0
1.643793750E0;9.751305580E0;-9.668552876E-1;4.657296658E0
1.655706250E0;9.411798477E0;-1.261342049E0;4.453406811E0
1.667617187E0;9.228775978E0;-1.414963603E0;4.507400990E0
1.679528125E0;8.993119240E0;-1.669974804E0;4.953555584E0
1.691440625E0;8.639793396E0;-1.821077585E0;5.146624088E0
1.703357812E0;8.097573280E0;-1.617024660E0;5.246404648E0
1.715262500E0;7.375979900E0;-1.926834345E0;5.334702492E0
1.727175000E0;6.648631096E0;-2.089726210E0;5.740127563E0
1.739085937E0;6.134701252E0;-2.046678543E0;5.930657864E0
1.750998437E0;6.014541149E0;-2.020811558E0;5.987476826E0
1.762910937E0;6.177250862E0;-1.822916508E0;6.334176540E0
1.774828125E0;6.058316708E0;-1.654192209E0;6.225977898E0
1.786732812E0;5.920669556E0;-1.579196334E0;6.094459534E0
1.798643750E0;5.706761837E0;-1.692882538E0;6.375634670E0
1.810556250E0;5.239710331E0;-1.673326731E0;6.565695763E0
1.822467187E0;5.853670120E0;-1.054732084E0;6.862452507E0
1.834379687E0;7.941327572E0;-9.752061963E-2;7.460964203E0
1.846290625E0;9.066745758E0;4.123485684E-1;7.423213005E0
1.858209375E0;9.548516273E0;6.471718550E-1;7.415943623E0
1.870114062E0;9.211949348E0;4.843565822E-1;7.418405056E0
1.882026562E0;8.777401924E0;4.621671140E-1;7.130028248E0
1.893937500E0;8.314785004E0;1.329548061E-1;6.312552452E0
1.905848437E0;7.734976292E0;-3.949379325E-1;6.259017944E0
1.917764062E0;7.314525604E0;-6.551493406E-1;5.766540051E0
1.929671875E0;6.812681675E0;-8.651016951E-1;5.272213936E0
1.941604687E0;6.707365513E0;-1.092569947E0;4.461508751E0
1.953493750E0;6.445813656E0;-9.477399588E-1;2.995586872E0
1.965406250E0;5.529628754E0;-1.453701735E0;2.378849983E0
1.977317187E0;4.878981113E0;-2.219683647E0;2.616824150E0
1.989229687E0;5.495870590E0;-2.961311579E0;7.371842861E-1
2.001150000E0;5.312456131E0;-2.077851057E0;2.850306749E0
2.013053125E0;8.526700020E0;-2.315767527E0;4.420730591E0
2.024964062E0;8.864082336E0;-2.563337564E0;4.133349419E0
2.036876562E0;1.130039215E1;-1.660465121E0;4.750555515E0
2.048787500E0;1.410919380E1;-8.987929225E-1;2.751138926E0
2.060700000E0;1.609370804E1;5.333994031E-1;3.162711620E0
2.072610937E0;1.494539261E1;1.303719521E0;2.796954393E0
2.084521875E0;1.221012211E1;1.040788174E0;1.369492888E0
2.096434375E0;1.030122566E1;1.028960824E0;-1.981632859E-1
2.108345312E0;9.572937965E0;4.113046825E-1;-2.170870453E-1
2.120257812E0;9.237998009E0;-3.241174519E-1;8.989844322E-1
2.132168750E0;9.115079880E0;-1.787281156E0;1.235053658E0
2.144081250E0;9.971428871E0;-2.978032589E0;1.501614571E0
2.155992187E0;1.013588142E1;-3.822429180E0;2.852806091E0
2.167904687E0;9.999910355E0;-3.818407059E0;1.379835963E0
2.179835937E0;9.943340302E0;-2.659009933E0;1.166110396E0
2.191726562E0;7.689342976E0;-2.226674557E0;1.093288288E-1
2.203637500E0;4.435660839E0;-3.853975058E0;-5.670714855E0
2.215550000E0;4.279424667E0;-3.948287487E0;-5.475979805E0
2.227460937E0;4.352639675E0;-6.841316223E0;4.526286423E-1
2.239387500E0;4.507439137E0;-8.031914711E0;5.214848995E0
2.251287500E0;3.647805691E0;-8.367562294E0;4.707881927E0
2.263198437E0;4.522858143E0;-8.468118668E0;6.332951188E-1
2.275107812E0;8.076581001E0;-8.435835838E0;6.436303616E0
2.287018750E0;1.018235779E1;-6.349374771E0;4.090321064E0
2.298934375E0;1.057214355E1;-2.191393614E0;1.709776044E0
2.310842187E0;9.861467361E0;-9.313923120E-1;-9.215952754E-1
2.322759375E0;8.445939064E0;-5.791574121E-1;-1.792433500E0
2.334665625E0;7.223344803E0;-1.814833641E0;-1.480047584E0
2.346576562E0;6.316823006E0;-4.086021423E0;-3.163219392E-1
2.358489062E0;5.622667789E0;-7.022576809E0;-1.639242887E0
2.370401562E0;3.810889244E0;-9.341859818E0;4.106707096E0
2.382310937E0;2.930981636E0;-9.982451439E0;7.012070656E0
2.394223437E0;1.870551467E0;-9.202708244E0;8.754829764E-1
2.406134375E0;-2.957126498E-1;-1.027786732E1;-1.559879899E0
2.418068750E0;2.862124443E-1;-9.247124672E0;-2.034927845E0
2.429957812E0;1.046304464E0;-7.329427242E0;4.562390968E-2
2.441870312E0;2.489711285E0;-8.231610298E0;-1.004453778E0
2.453781250E0;4.681669712E0;-1.419309616E1;-2.721374273E0
2.465692187E0;4.285362244E0;-2.045536995E1;-5.356834888E0
2.477604687E0;4.999246597E0;-2.504413414E1;-4.379933357E0
2.489515625E0;5.287020206E0;-2.406447601E1;2.756971121E-1
2.501428125E0;2.844532013E0;-1.981746864E1;4.447737217E0
2.513339062E0;1.101869106E0;-1.461188984E1;4.667888641E0
2.525251562E0;4.299517155E0;-4.986164570E0;2.439308465E-1
2.537168750E0;1.766269684E0;-4.981663704E0;2.298730373E0
2.549075000E0;-1.119691491E0;-9.913814545E0;2.206908226E0
2.560985937E0;2.213008553E-1;-1.018217564E1;1.394354343E0
2.572896875E0;1.571793437E0;-9.162830353E0;-3.248931468E-1
2.584809375E0;1.113188863E0;-8.702041626E0;-7.773972750E-1
2.596726562E0;-7.052839398E-1;-9.173939705E0;-5.098691955E-2
2.608632812E0;-1.621583223E0;-8.788961411E0;3.450714946E-1
2.620543750E0;-1.826842904E0;-8.853710175E0;9.141637087E-1
2.632454687E0;-1.087417722E0;-8.888157845E0;1.436358213E0
2.644367187E0;-1.663203984E-1;-8.886625290E0;1.628947735E0
2.656278125E0;7.164983749E-1;-8.868993759E0;1.483935833E0
2.668192187E0;1.011693835E0;-9.027519226E0;1.377106547E0
2.680101562E0;1.344708085E0;-9.032805443E0;1.453835964E0
2.692012500E0;1.954836965E0;-8.975440025E0;1.578688741E0
2.703926562E0;2.960028172E0;-8.947237015E0;1.961416245E0
2.715835937E0;3.651981115E0;-9.178344727E0;2.454937696E0
2.727748437E0;4.328276157E0;-9.229101181E0;3.140234947E0
2.739659375E0;5.175296783E0;-9.089529037E0;3.682732344E0
2.751570312E0;5.815764904E0;-8.893301010E0;3.686563015E0
2.763482812E0;5.686851501E0;-8.908642769E0;3.101583004E0
2.775393750E0;5.289912224E0;-8.954792976E0;2.368947744E0
2.787306250E0;4.665686131E0;-9.114151001E0;1.678948402E0
2.799217187E0;3.915688276E0;-9.380022049E0;1.072123528E0
2.811129687E0;3.373746395E0;-9.490212440E0;5.629726052E-1
2.823040625E0;3.021827459E0;-9.645510674E0;3.230927289E-1
2.834951562E0;2.869680643E0;-9.860854149E0;3.412982523E-1
2.846864062E0;2.736764193E0;-9.840379715E0;6.544023156E-1
2.858775000E0;2.506030083E0;-9.629449844E0;8.624010086E-1
2.870685937E0;2.267309189E0;-9.305667877E0;6.661148071E-1
2.882598437E0;2.025121212E0;-9.391476631E0;4.302763641E-1
2.894509375E0;2.401106596E0;-9.132386208E0;5.226350427E-1
2.906432812E0;3.161600828E0;-9.339379311E0;2.901868224E-1
2.918339062E0;3.810103655E0;-8.863410950E0;1.100193143E0
2.930243750E0;4.270068169E0;-8.202937126E0;1.510817885E0
2.942156250E0;4.087084293E0;-8.114284515E0;1.311122298E0
2.954070312E0;3.531026125E0;-8.456253052E0;9.912186265E-1
2.965979687E0;2.822007418E0;-9.098560333E0;1.130321741E0
2.977890625E0;2.707334518E0;-9.300515175E0;1.577242732E0
2.989801562E0;3.079335928E0;-9.178852081E0;1.645783782E0
3.001714062E0;3.604365349E0;-8.948893547E0;9.196224213E-1
3.013625000E0;3.538352251E0;-9.317419052E0;5.845683068E-2
3.025537500E0;3.495908022E0;-9.496773720E0;2.283685356E-1
3.037448437E0;4.517245770E0;-8.599158287E0;-7.785848379E-1
3.049360937E0;4.959923744E0;-8.481698990E0;-4.740615189E-1
3.061271875E0;4.692070484E0;-9.195382118E0;7.516548634E-1
3.073184375E0;3.939496040E0;-9.770900726E0;1.192139983E0
3.085095312E0;3.186117411E0;-9.795377731E0;8.870804310E-1
3.097009375E0;2.348089457E0;-9.678407669E0;1.363105178E0
3.108918750E0;1.800975919E0;-9.261012077E0;1.648542047E0
3.120829687E0;1.817907691E0;-8.350190163E0;1.108065367E0
3.132742187E0;1.917104363E0;-7.823073387E0;1.313755989E0
3.144653125E0;2.577358246E0;-7.690779209E0;3.433572650E-1
3.156564062E0;2.533869982E0;-8.539955139E0;5.584236234E-2
3.168476562E0;2.306296110E0;-9.642561913E0;2.157750428E-1
3.180389062E0;2.601175547E0;-1.013873577E1;2.028272003E-1
3.192300000E0;3.212788820E0;-9.749371529E0;6.504088044E-1
3.204214062E0;3.571469069E0;-9.035276413E0;1.000422001E0
3.216123437E0;3.546914101E0;-9.283594131E0;1.083654046E0
3.228034375E0;3.745508194E0;-9.252392769E0;1.211121321E0
3.239945312E0;3.821806669E0;-9.598613739E0;1.046314120E0
3.251857812E0;3.882083178E0;-1.021786880E1;1.243931428E-1
3.263768750E0;4.268191338E0;-1.081559563E1;-1.401785851E0
3.275698437E0;5.025764465E0;-1.106060886E1;-2.554028988E0
3.287592187E0;6.277568340E0;-1.107417870E1;-2.719698191E0
3.299504687E0;6.858956814E0;-1.259119320E1;-2.286453009E0
3.311415625E0;7.202410221E0;-1.404678154E1;-9.813066125E-1
3.323326562E0;7.569115162E0;-1.374077320E1;1.783852696E0
3.335239062E0;7.506550312E0;-1.234657192E1;2.910611868E0
3.347150000E0;6.769299030E0;-1.127418041E1;1.931536674E0
3.359060937E0;5.618913651E0;-1.093781471E1;-5.953230858E-1
3.370992187E0;3.697806120E0;-1.097184086E1;-7.180967331E0
3.382895312E0;2.624073744E0;-1.063622189E1;-1.002103615E1
3.394796875E0;2.154321671E0;-1.064896870E1;-4.314342022E0
3.406707812E0;2.113563061E0;-1.071353531E1;5.064311028E-1
3.418618750E0;2.322720528E0;-1.057869434E1;2.975341558E0
3.430532812E0;2.185829639E0;-1.092831421E1;5.170039177E0
3.442445312E0;2.073991776E0;-1.113284683E1;6.980132103E0
3.454354687E0;2.078598261E0;-1.087775898E1;6.948672295E0
3.466265625E0;2.068820000E0;-1.044093132E1;5.048241138E0
3.478178125E0;2.413939476E0;-1.033696556E1;2.233732700E0
3.490090625E0;3.645306110E0;-9.815402985E0;-1.547200203E0
3.502001562E0;3.683757067E0;-9.838214874E0;-3.020505667E0
3.513912500E0;2.962326765E0;-9.974665642E0;-1.609985709E0
3.525823437E0;2.265776634E0;-9.430224419E0;9.178507924E-1
3.537735937E0;2.032437801E0;-8.771311760E0;1.672091365E0
3.549653125E0;1.564304352E0;-9.001413345E0;2.185733795E0
3.561559375E0;1.154704332E0;-9.301033020E0;2.584531307E0
3.573470312E0;1.087944508E0;-9.210014343E0;3.154073477E0
3.585382812E0;1.555053115E0;-8.415982246E0;2.825493097E0
3.597293750E0;1.853648424E0;-8.140697479E0;1.548885703E0
3.609212500E0;2.362071514E0;-7.821416378E0;1.345886111E0
3.621123437E0;2.393052578E0;-8.490337372E0;1.111426711E0
3.633028125E0;2.236950397E0;-8.793663025E0;1.280562758E0
3.644940625E0;1.711624384E0;-9.233410835E0;1.151974916E0
3.656851562E0;1.438781142E0;-8.596189499E0;3.747117221E-1
3.668762500E0;1.547669411E0;-7.918160915E0;-4.298358262E-1
3.680681250E0;1.345876575E0;-7.313069820E0;-1.073378086E0
3.692585937E0;7.209324241E-1;-7.399251461E0;-1.096218705E0
3.704498437E0;2.577884793E-1;-7.591515541E0;-8.697368503E-1
3.716409375E0;1.243835688E-1;-8.638135910E0;-9.346675873E-1
3.728323437E0;-4.374015033E-1;-9.966583252E0;-1.057930708E0
3.740232812E0;-5.208154917E-1;-1.042197990E1;-1.194812059E0
3.752143750E0;-2.359629422E-1;-1.033383369E1;-1.299323678E0
3.764056250E0;7.964072376E-2;-9.852121353E0;-2.531188250E0
3.775967187E0;2.757641673E-1;-8.871245384E0;-3.816750288E0
3.787885937E0;2.969863713E-1;-8.527016640E0;-4.646762371E0
3.799801562E0;6.903920323E-2;-8.961047173E0;-4.273668766E0
3.811701562E0;-1.179862581E-2;-9.338918686E0;-3.366391420E0
3.823614062E0;-3.292506188E-2;-9.292164803E0;-2.187955618E0
3.835525000E0;1.647498012E-1;-8.509232521E0;-1.719582677E0
3.847435937E0;4.648581892E-2;-8.445162773E0;-1.614534616E0
3.859351562E0;7.812758535E-2;-8.167771339E0;-1.570213199E0
3.871265625E0;4.729985073E-2;-7.886280060E0;-1.618307948E0
3.883171875E0;3.765695989E-1;-7.587837696E0;-2.219568491E0
3.895082812E0;6.981779337E-1;-7.513177395E0;-2.380880356E0
3.906993750E0;1.046754479E0;-7.615266323E0;-2.698916435E0
3.918912500E0;1.428706288E0;-7.713074207E0;-2.663769722E0
3.930817187E0;1.479300618E0;-8.673254013E0;-2.975829840E0
3.942729687E0;1.005286932E0;-9.933696747E0;-2.520107985E0
3.954640625E0;5.823655725E-1;-1.014548683E1;-1.862861276E0
3.966559375E0;7.043741643E-2;-9.883284569E0;-1.388646603E0
3.978464062E0;1.638591588E-1;-8.316383362E0;-1.227574229E0
3.990375000E0;-5.871253014E-1;-9.208003998E0;-2.273064613E0
4.002287500E0;-7.538288236E-1;-9.193676949E0;-1.872495651E0
4.014200000E0;-1.328848958E0;-9.946959496E0;-4.988845885E-1
4.026110937E0;-2.160556316E0;-1.029269218E1;1.213055730E0
4.038021875E0;-2.314091682E0;-9.373156548E0;1.953601599E0
4.049937500E0;-2.669420004E0;-9.322053909E0;2.028664589E0
4.061845312E0;-3.323534966E0;-1.050572872E1;2.444460630E0
4.073757812E0;-3.686792850E0;-1.178915405E1;3.286942244E0
4.085668750E0;-3.348616600E0;-1.248430634E1;3.170641422E0
4.097581250E0;-1.584674239E0;-1.166460800E1;1.862918854E0
4.109492187E0;1.549527347E-1;-1.146795845E1;3.095032275E-1
4.121403125E0;1.096889138E0;-1.183387756E1;-1.130044103E0
4.133315625E0;2.576046228E0;-1.055681038E1;-2.264589071E0
4.145226562E0;3.208230257E0;-9.726837158E0;-2.484549284E0
4.157137500E0;3.495543957E0;-8.773551941E0;-1.984256983E0
4.169050000E0;3.470405102E0;-8.665555000E0;-1.297446609E0
4.180962500E0;3.775857210E0;-8.863095284E0;-7.075152993E-1
4.192873437E0;4.210577011E0;-9.265407562E0;-3.382623792E-1
4.204798437E0;4.511873245E0;-9.598641396E0;-1.804653406E-1
4.216696875E0;3.907509565E0;-9.583472252E0;1.815571040E-1
4.228607812E0;2.620367765E0;-9.607663155E0;4.566891789E-1
4.240518750E0;1.043278217E0;-9.681509972E0;6.924605966E-1
4.252431250E0;-3.882437572E-2;-9.632410049E0;6.926712394E-1
4.264351562E0;-5.162664652E-1;-1.014052677E1;-4.771165177E-2
4.276254687E0;-3.021482527E-1;-1.053394127E1;-3.988261223E-1
4.288165625E0;-1.167221218E-1;-1.060029888E1;-5.806705356E-1
4.300076562E0;2.446395308E-1;-1.020560074E1;-3.933577538E-1
4.311989062E0;7.111641169E-1;-9.581996918E0;2.975513935E-1
4.323900000E0;1.367405176E0;-9.176984787E0;1.258861661E0
4.335810937E0;1.599355459E0;-9.237921715E0;1.947098851E0
4.347723437E0;1.404122710E0;-9.808096886E0;2.211514711E0
4.359634375E0;1.125274777E0;-1.020530415E1;2.379127741E0
4.371546875E0;7.905367017E-1;-1.020097542E1;2.695095539E0
4.383462500E0;2.044169456E-1;-9.993167877E0;2.901954412E0
4.395370312E0;-5.740720630E-1;-9.983543396E0;2.814815044E0
4.407289062E0;-9.742677212E-1;-9.985995293E0;2.248270273E0
4.419196875E0;-1.094188452E0;-9.772048950E0;1.338148117E0
4.431104687E0;-2.776507735E-1;-9.667461395E0;3.256114433E-4
4.443018750E0;6.848374605E-1;-9.499512672E0;-7.321181893E-1
4.454928125E0;1.319214702E0;-9.467927933E0;-8.536286354E-1
4.466839062E0;1.111857653E0;-9.624538422E0;-6.021034122E-1
4.478750000E0;1.092052817E0;-9.314862251E0;1.771709323E-2
4.490662500E0;1.581226587E0;-9.005886078E0;3.235811591E-1
4.502581250E0;2.194707394E0;-8.906114578E0;4.496693611E-1
4.514485937E0;2.555580616E0;-9.452614784E0;2.781966627E-1
4.526396875E0;2.580796242E0;-9.831444740E0;3.796150386E-1
4.538309375E0;2.368057013E0;-1.004109097E1;7.107905746E-1
4.550220312E0;2.360970259E0;-9.942678452E0;7.080036998E-1
4.562131250E0;2.542690277E0;-9.733847618E0;3.126635849E-1
4.574043750E0;2.540228844E0;-9.481183052E0;-1.291145086E-1
4.585954687E0;2.257646084E0;-9.417007446E0;-2.869881690E-1
4.597867187E0;1.757813334E0;-9.912080765E0;1.874564141E-1
4.609779687E0;1.188376307E0;-1.020712280E1;3.690614104E-1
4.621696875E0;4.944314063E-1;-1.013332462E1;2.433466613E-1
4.633601562E0;-9.461885318E-3;-9.964303970E0;-2.036986686E-2
4.645512500E0;-1.068867445E-1;-9.779040337E0;-3.134776354E-1
4.657425000E0;1.092330515E-1;-9.872155190E0;-1.478658989E-2
4.669335937E0;6.356030703E-1;-1.010627937E1;7.287663221E-1
4.681248437E0;1.294707656E0;-1.034868717E1;1.664343596E0
4.693159375E0;2.056657553E0;-1.024200153E1;2.625519753E0
4.705070312E0;2.562399149E0;-9.971725464E0;3.133607864E0
4.716982812E0;2.883404016E0;-9.924224854E0;3.362982035E0
4.728893750E0;3.009425402E0;-9.910674095E0;3.437728643E0
4.740806250E0;3.054982185E0;-9.870997429E0;3.423593521E0
4.752721875E0;2.926978588E0;-9.783751488E0;3.172202349E0
4.764629687E0;2.797088385E0;-9.554616928E0;2.998363972E0
4.776540625E0;2.697470427E0;-9.392032623E0;2.873999834E0
4.788451562E0;2.534741402E0;-9.337089539E0;2.817918062E0
4.800382812E0;2.112298727E0;-9.225510597E0;2.598427057E0
4.812275000E0;1.209742188E0;-9.171535492E0;1.981134892E0
4.824185937E0;2.937014997E-1;-8.867116928E0;1.162758470E0
4.836098437E0;-2.826690376E-1;-8.673120499E0;1.839129925E-1
4.848009375E0;-8.549215645E-2;-8.534878731E0;-4.793191850E-1
4.859921875E0;3.572531939E-1;-8.712126732E0;-1.240244389E0
4.871832812E0;8.085985184E-1;-9.259709358E0;-1.232755303E0
4.883745312E0;1.693466783E0;-9.445825577E0;-1.885960549E-1
4.895656250E0;2.224931717E0;-9.732515335E0;9.653421044E-1
4.907567187E0;2.329271078E0;-1.002747250E1;1.654872179E0
4.919479687E0;2.471974850E0;-1.012983894E1;1.899214864E0
4.931390625E0;2.457447052E0;-1.006893921E1;1.661882401E0
4.943303125E0;2.389968634E0;-9.958117485E0;1.060717583E0
4.955214062E0;2.201966524E0;-9.826646805E0;2.920064032E-1
4.967125000E0;1.883135319E0;-9.732037544E0;-3.126731515E-1
4.979037500E0;1.478103518E0;-9.802129745E0;-5.773186684E-1
4.990948437E0;1.017794371E0;-1.005227661E1;-7.523826957E-1
5.002867187E0;7.850396037E-1;-1.032187271E1;-9.512737989E-1
5.014771875E0;6.273766160E-1;-1.052839661E1;-1.435314298E0
5.026684375E0;6.422685385E-1;-1.058666229E1;-1.901034474E0
5.038595312E0;7.296856642E-1;-1.064079952E1;-1.944752574E0
5.050506250E0;7.392624617E-1;-1.051618671E1;-1.604708910E0
5.062418750E0;7.815344930E-1;-1.023915863E1;-1.293625474E0
5.074329687E0;6.431975365E-1;-9.885352135E0;-8.479783535E-1
5.086242187E0;4.591695964E-1;-9.707875252E0;-5.160270929E-1
5.098153125E0;3.468048871E-1;-9.697254181E0;-1.270076185E-1
5.110068750E0;3.993049562E-1;-9.765814781E0;3.511623442E-1
5.121976562E0;4.728931487E-1;-1.001808739E1;3.846524358E-1
5.133887500E0;5.886192918E-1;-1.032399940E1;1.837118864E-1
5.145800000E0;7.673512101E-1;-1.046284389E1;1.416409761E-1
5.157717187E0;6.682025194E-1;-1.041450024E1;8.230307698E-2
5.169623437E0;5.564603806E-1;-1.003072834E1;-1.755907536E-1
5.181534375E0;4.822880030E-1;-9.632380486E0;-4.141202569E-1
5.193446875E0;5.089881420E-1;-9.214821815E0;-5.432252288E-1
5.205365625E0;5.246653557E-1;-8.799121857E0;-4.444212914E-1
5.217270312E0;6.461471319E-1;-8.489139557E0;-4.086710811E-1
5.229181250E0;6.780954003E-1;-8.296234131E0;-5.370960832E-1
5.241092187E0;7.586267591E-1;-8.262054443E0;-5.630491972E-1
5.253006250E0;8.792083263E-1;-8.379744530E0;-5.179041028E-1
5.264915625E0;8.827038407E-1;-8.553017616E0;-5.800288916E-1
5.276831250E0;8.046337366E-1;-8.774165154E0;-8.368309140E-1
5.288739062E0;6.996623278E-1;-9.036991119E0;-1.279078364E0
5.300650000E0;5.464239120E-1;-9.319257736E0;-1.804232001E0
5.312562500E0;3.847865164E-1;-9.557662964E0;-2.228187799E0
5.324473437E0;3.854090273E-1;-9.591353416E0;-2.351556063E0
5.336389062E0;4.423239827E-1;-9.497683525E0;-2.383830070E0
5.348296875E0;5.248951912E-1;-9.282952309E0;-2.297657967E0
5.360207812E0;5.944228768E-1;-9.161028862E0;-2.216829538E0
5.372120312E0;6.743317246E-1;-9.270387650E0;-2.107960463E0
5.384031250E0;7.381036282E-1;-9.496562958E0;-1.777809739E0
5.395942187E0;8.265262842E-1;-9.605958939E0;-1.583659053E0
5.407854687E0;9.094805717E-1;-9.555296898E0;-1.516717196E0
5.419765625E0;9.569528103E-1;-9.478558540E0;-1.597995639E0
5.431678125E0;1.009347558E0;-9.407555580E0;-1.609468579E0
5.443589062E0;1.091727257E0;-9.212112427E0;-1.611383915E0
5.455501562E0;1.172459722E0;-9.200745583E0;-1.642566085E0
5.467412500E0;1.298595786E0;-9.414422989E0;-1.697680593E0
5.479323437E0;1.490237355E0;-9.467889786E0;-1.918042898E0
5.491235937E0;1.744568586E0;-9.405238152E0;-2.033673286E0
5.503146875E0;2.172163248E0;-9.179570198E0;-2.000633240E0
5.515062500E0;2.590765715E0;-8.779891968E0;-1.722857952E0
5.526975000E0;2.857738256E0;-8.574689865E0;-1.505780458E0
5.538882812E0;2.921625137E0;-8.716436386E0;-1.241393566E0
5.550793750E0;2.843976259E0;-9.050340652E0;-1.015074492E0
5.562704687E0;2.577568769E0;-9.340546608E0;-8.986684084E-1
5.574623437E0;2.140109777E0;-9.423807144E0;-8.836998343E-1
5.586535937E0;1.752383351E0;-9.336515427E0;-9.677171707E-1
5.598440625E0;1.561479211E0;-9.245803833E0;-1.167431831E0
5.610351562E0;1.419052958E0;-9.180949211E0;-1.564993858E0
5.622264062E0;1.358412623E0;-9.180576324E0;-2.024833918E0
5.634175000E0;1.230993152E0;-9.321403503E0;-2.222575665E0
5.646085937E0;9.672479033E-1;-9.532792091E0;-2.013418436E0
5.657998437E0;6.723493338E-1;-9.778120995E0;-1.621305585E0
5.669909375E0;4.781699479E-1;-1.009153080E1;-1.236049652E0
5.681821875E0;5.290132165E-1;-1.044043350E1;-9.106298089E-1
5.693735937E0;6.485509276E-1;-1.072383976E1;-6.612880826E-1
5.705643750E0;8.099967837E-1;-1.075375748E1;-4.404277503E-1
5.717556250E0;8.626979589E-1;-1.039217567E1;-2.672982514E-1
5.729467187E0;9.962273836E-1;-9.865548134E0;-1.616373509E-1
5.741379687E0;1.279442310E0;-9.313473701E0;-2.306765467E-1
5.753310937E0;1.605886817E0;-8.977289200E0;-2.654307783E-1
5.765201562E0;1.843803525E0;-8.943808556E0;-1.964202970E-1
5.777114062E0;1.886879921E0;-9.092689514E0;-8.991663903E-2
5.789025000E0;1.887655616E0;-9.353283882E0;-5.955816433E-2
5.800937500E0;1.996141672E0;-9.583616257E0;-8.345229179E-2
5.812848437E0;2.081892252E0;-9.732315063E0;-1.407216042E-1
5.824759375E0;2.140473843E0;-9.721483231E0;-8.239884675E-2
5.836671875E0;1.993843317E0;-9.544963837E0;1.542344689E-1
5.848582812E0;1.691407681E0;-9.412383080E0;5.960413218E-1
5.860495312E0;1.257339001E0;-9.458648682E0;1.042042732E0
5.872406250E0;7.977671623E-1;-9.647071838E0;1.366916776E0
5.884317187E0;3.983089626E-1;-9.924684525E0;1.419225335E0
5.896229687E0;1.595879048E-1;-1.014281559E1;1.172411919E0
5.908140625E0;1.879448444E-1;-1.024040318E1;6.862931252E-1
5.920053125E0;3.619362414E-1;-1.019032574E1;8.368213475E-2
5.931970312E0;6.392710209E-1;-1.004045773E1;-4.817229509E-1
5.943876562E0;8.905472159E-1;-9.851096153E0;-8.163366318E-1
5.955787500E0;1.025063157E0;-9.705595970E0;-7.338515520E-1
5.967698437E0;1.199696183E0;-9.734603882E0;-2.299104035E-1
5.979610937E0;1.339709163E0;-9.854466438E0;4.006169736E-1
5.991528125E0;1.449018836E0;-9.836453438E0;1.012670755E0
6.003434375E0;1.536742330E0;-9.695127487E0;1.380410552E0
6.015345312E0;1.665502429E0;-9.553832054E0;1.468134046E0
6.027256250E0;1.779274940E0;-9.529047012E0;1.283828378E0
6.039168750E0;1.893133521E0;-9.528147697E0;9.756084681E-1
6.051079687E0;1.898429513E0;-9.647359848E0;7.026599050E-1
6.062992187E0;1.765110850E0;-9.623579979E0;5.132114887E-1
6.074906250E0;1.587097168E0;-9.520964622E0;4.819719493E-1
6.086815625E0;1.409246206E0;-9.568369865E0;4.974768162E-1
6.098726562E0;1.298557520E0;-9.595270157E0;5.456768870E-1
6.110639062E0;1.220037341E0;-9.599274635E0;6.209218502E-1
6.122550000E0;1.213879347E0;-9.525388718E0;8.691048026E-1
6.134460937E0;1.232630849E0;-9.484543800E0;1.091219783E0
6.146373437E0;1.361668706E0;-9.574718475E0;1.296651721E0
6.158284375E0;1.467932940E0;-9.664175987E0;1.251966476E0
6.170203125E0;1.552725911E0;-9.674940109E0;9.706572294E-1
6.182107812E0;1.629905462E0;-9.620065689E0;5.840128064E-1
6.194018750E0;1.704920650E0;-9.644954681E0;2.545994222E-1
6.205931250E0;1.796369553E0;-9.650854111E0;1.719419807E-1
6.217842187E0;1.741149664E0;-9.512603760E0;3.869508803E-1
6.229756250E0;1.692805886E0;-9.453773499E0;7.425951362E-1
6.241665625E0;1.631466508E0;-9.448946953E0;1.088193417E0
6.253576562E0;1.512637496E0;-9.532619476E0;1.242044806E0
6.265489062E0;1.448520780E0;-9.615238190E0;1.406986237E0
6.277400000E0;1.338148117E0;-9.650663376E0;1.327738047E0
6.289312500E0;1.394038320E0;-9.566463470E0;1.175026417E0
6.301223437E0;1.435209036E0;-9.524029732E0;9.075461030E-1
6.313134375E0;1.393061519E0;-9.481287956E0;7.232691646E-1
6.325046875E0;1.353030443E0;-9.622632027E0;6.382367015E-1
6.336957812E0;1.255452394E0;-9.702751160E0;7.068257928E-1
6.348873437E0;1.199629188E0;-9.686385155E0;8.373576403E-1
6.360781250E0;1.240426302E0;-9.554302216E0;8.875209689E-1
6.372692187E0;1.344918847E0;-9.533510208E0;9.312869906E-1
6.384604687E0;1.408949375E0;-9.538940430E0;1.020092726E0
6.396518750E0;1.421332121E0;-9.512450218E0;1.117747426E0
6.408428125E0;1.452543020E0;-9.504616737E0;1.159597993E0
6.420339062E0;1.475287914E0;-9.533960342E0;1.075781822E0
6.432250000E0;1.439001441E0;-9.403840065E0;9.547501802E-1
6.444162500E0;1.402504206E0;-9.254174232E0;9.145084023E-1
6.456073437E0;1.526198268E0;-9.471318245E0;9.017809033E-1
6.467985937E0;1.598282814E0;-9.686355591E0;9.671138525E-1
6.479896875E0;1.581207395E0;-9.683224678E0;1.098881125E0
6.491809375E0;1.573469400E0;-9.566166878E0;1.130838871E0
6.503720312E0;1.518316507E0;-9.573578835E0;9.604579210E-1
6.515632812E0;1.542564988E0;-9.648479462E0;7.666425109E-1
6.527550000E0;1.577558637E0;-9.779940605E0;6.246472001E-1
6.539468750E0;1.580144405E0;-9.706878662E0;5.936471224E-1
6.551367187E0;1.651079893E0;-9.552271843E0;5.730090737E-1
6.563278125E0;1.655389428E0;-9.525015831E0;6.397785544E-1
6.575190625E0;1.670357943E0;-9.509855270E0;7.077260017E-1
6.587101562E0;1.597823143E0;-9.497759819E0;9.111086130E-1
6.599014062E0;1.521955729E0;-9.525800705E0;1.082447290E0
6.610925000E0;1.399832249E0;-9.486506462E0;1.205786943E0
6.622835937E0;1.334058762E0;-9.516712189E0;1.245147705E0
6.634748437E0;1.359925628E0;-9.604789734E0;1.197560549E0
6.646659375E0;1.365547419E0;-9.645644188E0;1.091296315E0
6.658571875E0;1.359667063E0;-9.582773209E0;1.075082779E0
6.670482812E0;1.423257232E0;-9.660354614E0;1.099685550E0
6.682393750E0;1.412033081E0;-9.755260468E0;1.194189429E0
6.694306250E0;1.302723527E0;-9.726932526E0;1.300779462E0
6.706229687E0;1.225869656E0;-9.646430969E0;1.311016917E0
6.718129687E0;1.244065523E0;-9.583376884E0;1.182869792E0
6.730040625E0;1.375574231E0;-9.624393463E0;1.106858611E0
6.741951562E0;1.597679615E0;-9.661035538E0;1.118484855E0
6.753864062E0;1.692671895E0;-9.563466072E0;1.208526015E0
6.765781250E0;1.615703106E0;-9.548306465E0;1.262931705E0
6.777687500E0;1.490122437E0;-9.501054764E0;1.290264010E0
6.789598437E0;1.360806704E0;-9.493143082E0;1.296709180E0
6.801509375E0;1.290742874E0;-9.537972450E0;1.185905576E0
6.813421875E0;1.322193146E0;-9.584708214E0;1.059386373E0
6.825332812E0;1.406823397E0;-9.602797508E0;8.157141209E-1
6.837245312E0;1.523957253E0;-9.557346344E0;6.645346284E-1
6.849156250E0;1.573124647E0;-9.470571518E0;6.152332425E-1
6.861067187E0;1.624513745E0;-9.396178246E0;6.514048576E-1
6.872979687E0;1.640861273E0;-9.339330673E0;8.313050866E-1
6.884890625E0;1.755514860E0;-9.349683762E0;9.743826389E-1
6.896803125E0;1.848141670E0;-9.324362755E0;1.077745080E0
6.908714062E0;1.821690559E0;-9.343630791E0;1.167537212E0
6.920625000E0;1.820158362E0;-9.378011703E0;1.097118974E0
6.932537500E0;1.728498697E0;-9.406310081E0;1.016731262E0
6.944448437E0;1.526906967E0;-9.432627678E0;9.635512829E-1
6.956360937E0;1.309848666E0;-9.401350975E0;9.639630914E-1
6.968271875E0;1.161590099E0;-9.451972961E0;9.218347073E-1
6.980182812E0;1.139266491E0;-9.808872223E0;8.900780082E-1
6.992095312E0;1.087360263E0;-1.009200096E1;7.986003160E-1
7.004007812E0;9.374927878E-1;-1.027578926E1;7.512717843E-1
7.015918750E0;7.670160532E-1;-1.017065525E1;6.019789577E-1
7.027831250E0;6.550248265E-1;-9.849764824E0;3.566690087E-1
7.039742187E0;7.481976151E-1;-9.666120529E0;1.437478699E-2
7.051653125E0;9.655145407E-1;-9.579525948E0;-1.027304083E-1
7.063565625E0;1.104359031E0;-9.602663994E0;7.983226329E-2
7.075476562E0;1.199437618E0;-9.623235703E0;3.428496718E-1
7.087389062E0;1.220966339E0;-9.632850647E0;7.268796563E-1
7.099300000E0;1.080982089E0;-9.637791634E0;1.101093411E0
7.111212500E0;9.627467990E-1;-9.573388100E0;1.364043713E0
7.123123437E0;9.614539146E-1;-9.541573524E0;1.383570790E0
7.135034375E0;1.060353637E0;-9.623828888E0;9.993302226E-1
7.146946875E0;1.156418562E0;-9.680130959E0;4.959157705E-1
7.158857812E0;1.280773401E0;-9.667547226E0;1.173541844E-1
7.170768750E0;1.484481692E0;-9.652894974E0;-1.145194545E-1
7.182681250E0;1.754538059E0;-9.703968048E0;-2.226320356E-1
7.194598437E0;1.829399943E0;-9.704724312E0;-2.300349027E-1
7.206504687E0;1.770110011E0;-9.649465561E0;-1.686284244E-1
7.218415625E0;1.678641796E0;-9.587991714E0;-1.233492717E-1
7.230326562E0;1.644653797E0;-9.592733383E0;-1.766058952E-1
7.242243750E0;1.586465120E0;-9.703497887E0;-2.277556211E-1
7.254150000E0;1.601682663E0;-9.795981407E0;-2.496003062E-1
7.266062500E0;1.670913339E0;-9.854141235E0;-2.944580615E-1
7.277973437E0;1.750487089E0;-9.945427895E0;-3.186107874E-1
7.289884375E0;1.877140403E0;-9.967588425E0;-4.059416950E-1
7.301796875E0;1.946169972E0;-9.881281853E0;-4.984823465E-1
7.313707812E0;1.982820392E0;-9.751937866E0;-5.813121796E-1
7.325618750E0;1.933001876E0;-9.661599159E0;-6.381792426E-1
7.337531250E0;1.813416243E0;-9.650701523E0;-5.760641098E-1
7.349442187E0;1.587643027E0;-9.721080780E0;-5.098692179E-1
7.361354687E0;1.291959047E0;-9.853528023E0;-5.264083147E-1
7.373265625E0;9.817088842E-1;-1.005307102E1;-5.534819961E-1
7.385176562E0;6.493074894E-1;-1.021877861E1;-6.494607329E-1
7.397089062E0;2.627205551E-1;-1.027130795E1;-7.798298001E-1
7.409000000E0;-4.008851200E-2;-1.022137356E1;-1.062613726E0
7.420912500E0;-1.509496272E-1;-1.018594933E1;-1.364378929E0
7.432828125E0;-1.071453169E-1;-1.021491909E1;-1.762831569E0
7.444735937E0;-4.254975170E-2;-1.031507301E1;-2.138654232E0
7.456646875E0;9.285672009E-2;-1.034886074E1;-2.426130772E0
7.468559375E0;3.098096848E-1;-1.039610291E1;-2.613108397E0
7.480489062E0;5.393274426E-1;-1.038831615E1;-2.633746386E0
7.492387500E0;7.038857341E-1;-1.030579281E1;-2.454104662E0
7.504293750E0;9.866984487E-1;-1.004245949E1;-2.090942621E0
7.516209375E0;1.183386803E0;-9.729863167E0;-1.845670938E0
7.528117187E0;1.412588596E0;-9.433538437E0;-1.703282952E0
7.540034375E0;1.536905169E0;-9.223088264E0;-1.581992626E0
7.551940625E0;1.602295518E0;-9.076160431E0;-1.466898680E0
7.563851562E0;1.460242748E0;-9.122903824E0;-1.511162639E0
7.575764062E0;1.268448114E0;-9.269467354E0;-1.599566221E0
7.587675000E0;1.239478230E0;-9.503372192E0;-1.809221506E0
7.599585937E0;1.302273273E0;-9.644495964E0;-2.013504505E0
7.611498437E0;1.267854214E0;-9.611321449E0;-1.890432954E0
7.623417187E0;1.139103770E0;-9.447376251E0;-1.334106684E0
7.635321875E0;8.528338075E-1;-9.238400459E0;-7.546140552E-1
7.647232812E0;4.458386600E-1;-9.021945000E0;-3.967479467E-1
7.659159375E0;1.718079112E-2;-8.950004578E0;-4.985398352E-1
7.671056250E0;-3.295187652E-1;-8.945120811E0;-9.978458285E-1
7.682967187E0;-5.222041011E-1;-8.980459213E0;-1.449976444E0
7.694879687E0;-5.906974673E-1;-9.053309441E0;-1.689176440E0
7.706790625E0;-4.965861440E-1;-9.274620056E0;-1.785796762E0
7.718704687E0;-2.762142718E-1;-9.448726654E0;-1.972736001E0
7.730614062E0;-5.136041716E-2;-9.414805412E0;-2.189775229E0
7.742525000E0;5.824613944E-2;-9.398840904E0;-2.223140955E0
7.754437500E0;1.459409595E-1;-9.446331978E0;-2.135426760E0
7.766348437E0;2.189449668E-1;-9.444704056E0;-2.106504917E0
7.778259375E0;3.225277066E-1;-9.402757645E0;-2.134220123E0
7.790171875E0;3.534703553E-1;-9.319142342E0;-1.992148161E0
7.802082812E0;4.205750525E-1;-9.179512978E0;-1.813464165E0
7.814000000E0;4.868082702E-1;-9.080574989E0;-1.661872745E0
7.825906250E0;4.624831676E-1;-9.022022247E0;-1.829715967E0
7.837817187E0;4.451299608E-1;-8.996739388E0;-2.222364902E0
7.849729687E0;4.379569292E-1;-9.042985916E0;-2.509525537E0
7.861640625E0;4.668022990E-1;-9.156270981E0;-2.534023285E0
7.873553125E0;3.084210455E-1;-9.222273827E0;-2.444556713E0
7.885464062E0;1.278599501E-1;-9.135095596E0;-2.307129383E0
7.897375000E0;-5.401319265E-2;-9.083993912E0;-2.186432838E0
7.909287500E0;-1.745468676E-1;-9.120337486E0;-2.022861004E0
7.921198437E0;-1.353202760E-1;-9.135708809E0;-2.005632401E0
7.933110937E0;-9.589256346E-2;-9.129445076E0;-2.091718197E0
7.945021875E0;5.975927226E-3;-9.160666466E0;-2.164971113E0
7.956934375E0;1.347744018E-1;-9.110177040E0;-2.304045677E0
7.968848437E0;1.598369032E-1;-9.012914658E0;-2.337918758E0
7.980760937E0;2.015438974E-1;-8.962310791E0;-2.293214321E0
7.992668750E0;2.076826394E-1;-8.986626625E0;-2.236548424E0
8.004579687E0;1.747958809E-1;-9.079694748E0;-2.213899136E0
8.016492187E0;1.391988844E-1;-9.209852219E0;-2.199447870E0
8.028403125E0;1.321024746E-1;-9.314364433E0;-2.259513378E0
8.040314062E0;1.285111755E-1;-9.217206955E0;-2.273677588E0
8.052226562E0;2.449172586E-1;-8.916064262E0;-2.380229235E0
8.064137500E0;3.565828204E-1;-8.721204758E0;-2.565492392E0
8.076056250E0;5.465292335E-1;-8.766924858E0;-2.881814480E0
8.087965625E0;7.374715805E-1;-9.128679276E0;-3.177048206E0
8.099873437E0;8.420407176E-1;-9.372082710E0;-3.215508461E0
8.111784375E0;7.904121876E-1;-9.504023552E0;-2.911157608E0
8.123696875E0;6.493266821E-1;-9.612749100E0;-2.503635883E0
8.135610937E0;3.930034041E-1;-9.687916756E0;-2.432748318E0
8.147518750E0;2.812612355E-1;-9.778428078E0;-2.705562830E0
8.159431250E0;2.930023968E-1;-9.950886726E0;-3.228944778E0
8.171342187E0;4.482328892E-1;-1.012155437E1;-3.746676683E0
8.183254687E0;8.125824332E-1;-1.003939533E1;-3.822170734E0
8.195171875E0;1.216924787E0;-9.709656715E0;-3.592423201E0
8.207076562E0;1.503510714E0;-9.395431519E0;-3.160164356E0
8.218989062E0;1.692968726E0;-9.252612114E0;-2.956676245E0
8.230900000E0;1.898659468E0;-9.362524986E0;-3.026520014E0
8.242812500E0;1.983586550E0;-9.619154930E0;-3.212951660E0
8.254729687E0;1.819037795E0;-9.773207664E0;-3.358030796E0
8.266634375E0;1.405396342E0;-9.677593231E0;-3.306603193E0
8.278546875E0;1.077208877E0;-9.490711212E0;-3.052827358E0
8.290457812E0;8.598918915E-1;-9.393161774E0;-2.855382442E0
8.302370312E0;7.516069412E-1;-9.425531387E0;-2.928271532E0
8.314287500E0;7.714309692E-1;-9.647215843E0;-3.287880659E0
8.326193750E0;9.786155820E-1;-9.843137741E0;-3.606721163E0
8.338104687E0;1.183865666E0;-9.804514885E0;-3.532443523E0
8.350015625E0;1.304820776E0;-9.480349541E0;-2.789330959E0
8.361928125E0;1.226922989E0;-9.063805580E0;-1.855219007E0
8.373842187E0;9.943023920E-1;-8.748020172E0;-1.359236240E0
8.385753125E0;7.937257886E-1;-8.647674561E0;-1.402628660E0
8.397673437E0;7.256921530E-1;-8.685195923E0;-1.678565145E0
8.409573437E0;8.052083254E-1;-8.757520676E0;-2.145903826E0
8.421485937E0;8.873964548E-1;-8.772565842E0;-2.494509220E0
8.433410937E0;9.478261471E-1;-8.834843636E0;-2.663635492E0
8.445307812E0;9.373491406E-1;-9.076811790E0;-2.708809376E0
8.457220312E0;9.826091528E-1;-9.390920639E0;-2.730155945E0
8.469134375E0;1.097875595E0;-9.479764938E0;-2.890682697E0
8.481043750E0;1.213084579E0;-9.334293365E0;-3.114166975E0
8.492957812E0;1.268582106E0;-8.976187706E0;-3.256171942E0
8.504867187E0;1.046668291E0;-8.591841698E0;-3.347026825E0
8.516778125E0;6.898461580E-1;-8.629383087E0;-3.340869188E0
8.528695312E0;5.104533434E-1;-8.933973312E0;-3.310644627E0
8.540601562E0;3.562476635E-1;-9.408695221E0;-3.416640759E0
8.552518750E0;3.147417605E-1;-9.823917389E0;-3.562734842E0
8.564425000E0;2.803322673E-1;-9.785618782E0;-3.962164402E0
8.576343750E0;3.068217337E-1;-9.509500504E0;-4.316401005E0
8.588248437E0;4.377271235E-1;-9.326986313E0;-4.702432632E0
8.600159375E0;5.630683303E-1;-9.395499229E0;-5.379263878E0
8.612089062E0;7.630033493E-1;-9.559165955E0;-5.112415314E0
8.623982812E0;1.055038452E0;-9.751784325E0;-3.284183741E0
8.635893750E0;1.415825605E0;-9.680762291E0;-1.633056283E0
8.647806250E0;1.693763614E0;-9.466022491E0;-1.299869537E0
8.659717187E0;1.663443446E0;-9.258799553E0;-2.027132273E0
8.671635937E0;1.587451577E0;-9.079694748E0;-2.939639091E0
8.683540625E0;1.470221758E0;-9.076590538E0;-3.802634001E0
8.695451562E0;1.504660010E0;-9.242959023E0;-4.337661743E0
8.707364062E0;1.480363607E0;-9.576911926E0;-3.956916332E0
8.719275000E0;1.465260983E0;-9.678426743E0;-3.042781353E0
8.731187500E0;1.158726573E0;-9.426383972E0;-2.118226767E0
8.743098437E0;5.869145989E-1;-9.083390236E0;-1.994245529E0
8.755010937E0;2.814048827E-1;-8.887411118E0;-2.324693203E0
8.766921875E0;6.221572161E-1;-8.788932800E0;-2.891055822E0
8.778832812E0;1.536024094E0;-8.817529678E0;-3.386923790E0
8.790745312E0;2.546568632E0;-8.847226143E0;-3.470539093E0
8.802656250E0;3.251038551E0;-8.900473595E0;-3.437987566E0
8.814570312E0;3.456518650E0;-8.977366447E0;-3.527386904E0
8.826479687E0;3.293626785E0;-8.919866562E0;-3.603656769E0
8.838390625E0;2.656462669E0;-8.901459694E0;-3.539989948E0
8.850310937E0;1.688869834E0;-8.937171936E0;-3.368804693E0
8.862214062E0;9.477016330E-1;-8.852724075E0;-3.225200415E0
8.874125000E0;7.316584587E-1;-8.801391602E0;-3.074279547E0
8.886037500E0;8.593555689E-1;-8.832880974E0;-3.020735502E0
8.897948437E0;1.230983615E0;-8.986061096E0;-3.061178446E0
8.909860937E0;1.608108640E0;-9.085028648E0;-3.158191442E0
8.921771875E0;1.763511419E0;-9.061670303E0;-3.109953165E0
8.933684375E0;1.661805749E0;-8.902379036E0;-3.118639231E0
8.945595312E0;1.353796482E0;-8.724164009E0;-2.934304953E0
8.957506250E0;1.087455988E0;-8.568340302E0;-2.695938349E0
8.969418750E0;1.044896603E0;-8.654168129E0;-2.766001940E0
8.981329687E0;1.176242590E0;-8.949879646E0;-2.844876766E0
8.993242187E0;1.383570790E0;-9.191263199E0;-3.011015177E0
9.005153125E0;1.598560572E0;-9.343802452E0;-3.187199593E0
9.017065625E0;1.732042074E0;-9.289503098E0;-3.306986332E0
9.028976562E0;1.770866513E0;-9.123029709E0;-3.437747955E0
9.040887500E0;1.751837373E0;-8.898855209E0;-3.474781513E0
9.052800000E0;1.665349245E0;-8.712557793E0;-3.435430527E0
9.064710937E0;1.574791074E0;-8.622774124E0;-3.348549604E0
9.076623437E0;1.478371739E0;-8.691248894E0;-3.215326548E0
9.088550000E0;1.494096756E0;-8.879346848E0;-3.250837326E0
9.100446875E0;1.539481282E0;-9.089338303E0;-3.382987738E0
9.112357812E0;1.601673126E0;-9.304892540E0;-3.512523651E0
9.124268750E0;1.621841788E0;-9.343668938E0;-3.488054991E0
9.136181250E0;1.623536825E0;-9.274438858E0;-3.413336754E0
9.148098437E0;1.492545247E0;-9.160264015E0;-3.493005991E0
9.160004687E0;1.277890801E0;-9.085458755E0;-3.562763691E0
9.171915625E0;1.142177820E0;-9.139386177E0;-3.772792816E0
9.183829687E0;1.103334308E0;-9.290019989E0;-4.105538368E0
9.195739062E0;1.120735407E0;-9.597214699E0;-4.143644810E0
9.207650000E0;1.102012753E0;-9.821982384E0;-4.107933044E0
9.219562500E0;9.260293841E-1;-9.720267296E0;-4.124175072E0
9.231473437E0;7.230297923E-1;-9.526155472E0;-4.052483082E0
9.243385937E0;6.358616948E-1;-9.547597885E0;-4.111907005E0
9.255296875E0;8.545863628E-1;-9.403456688E0;-4.351164341E0
9.267212500E0;1.317155600E0;-9.245822906E0;-4.483975887E0
9.279120312E0;1.461229086E0;-9.200036049E0;-4.392708778E0
9.291031250E0;1.316217184E0;-9.086186409E0;-4.322281361E0
9.302942187E0;9.901556373E-1;-8.829633713E0;-4.212339401E0
9.314854687E0;6.969138384E-1;-8.593153954E0;-4.059407234E0
9.326765625E0;6.164782047E-1;-8.359814644E0;-3.919404030E0
9.338681250E0;6.611061692E-1;-8.310312271E0;-3.583727360E0
9.350589062E0;6.552547216E-1;-8.300889015E0;-3.283072948E0
9.362500000E0;6.281619072E-1;-8.279695511E0;-3.414543390E0
9.374412500E0;5.720322132E-1;-8.366442680E0;-3.857872963E0
9.386326562E0;4.804013669E-1;-8.378604889E0;-4.077708721E0
9.398234375E0;4.177498817E-1;-8.312773705E0;-3.782963037E0
9.410146875E0;1.682357639E-1;-8.305753708E0;-3.906006098E0
9.422057812E0;-6.246950850E-2;-8.327033043E0;-4.046727657E0
9.433970312E0;-3.263105452E-1;-8.337165833E0;-3.692328453E0
9.445889062E0;-5.727888346E-1;-8.430482864E0;-3.261764765E0
9.457793750E0;-5.435987115E-1;-8.562009811E0;-3.397697687E0
9.469704687E0;-4.500428736E-1;-8.735589981E0;-3.619420052E0
9.481617187E0;-2.808590233E-1;-8.872873306E0;-3.758379698E0
9.493528125E0;-1.035923138E-1;-8.848931313E0;-3.653101444E0
9.505445312E0;3.687070310E-2;-8.685885429E0;-3.552823067E0
9.517351562E0;1.498961747E-1;-8.546639442E0;-3.634082079E0
9.529267187E0;1.675270796E-1;-8.687332153E0;-3.539415598E0
9.541175000E0;1.595400274E-1;-8.650462151E0;-3.524762869E0
9.553085937E0;1.049713790E-1;-8.727823257E0;-3.641102076E0
9.565000000E0;1.464485377E-1;-8.875937462E0;-3.744598389E0
9.576909375E0;3.810994625E-1;-8.907254219E0;-3.658321142E0
9.588821875E0;4.242238104E-1;-8.941146851E0;-3.629312992E0
9.600732812E0;3.234375119E-1;-8.953710556E0;-3.713023663E0
9.612645312E0;3.215029836E-1;-8.797609329E0;-3.746638536E0
9.624556250E0;3.150482178E-1;-8.668676376E0;-3.896898508E0
9.636467187E0;4.058938026E-1;-8.573195457E0;-4.091958523E0
9.648379687E0;6.465972662E-1;-8.426651001E0;-4.275785446E0
9.660290625E0;9.859322309E-1;-8.290804863E0;-4.247093678E0
9.672201562E0;1.265536785E0;-8.161412239E0;-4.072680473E0
9.684120312E0;1.331903934E0;-8.156776428E0;-3.899857759E0
9.696025000E0;1.327134728E0;-8.123009682E0;-3.787339926E0
9.707937500E0;1.340819955E0;-8.024492264E0;-3.704739809E0
9.719848437E0;1.286222696E0;-7.950875282E0;-3.542422533E0
9.731760937E0;1.102108479E0;-7.926914692E0;-3.496156931E0
9.743676562E0;7.583298683E-1;-8.052523613E0;-3.541685104E0
9.755582812E0;4.178743958E-1;-8.326449394E0;-3.547096014E0
9.767495312E0;1.448204666E-1;-8.566951752E0;-3.974872828E0
9.779406250E0;-2.147790492E-1;-8.696602821E0;-4.248520374E0
9.791317187E0;-4.400829971E-1;-8.768419266E0;-4.263623238E0
9.803235937E0;-4.128848612E-1;-9.046184540E0;-4.538860321E0
9.815153125E0;-3.058449030E-1;-9.314191818E0;-5.286129475E0
9.827053125E0;-2.823242545E-2;-9.442434311E0;-6.693412304E0
9.838964062E0;5.783529878E-1;-9.972175598E0;-8.490844727E0
9.850876562E0;2.063093185E0;-1.133265686E1;-8.221247673E0
9.862787500E0;3.573269606E0;-1.273359966E1;-4.522110939E0
9.874698437E0;3.342736483E0;-1.229753876E1;-1.409734726E0
9.886610937E0;1.350262642E0;-9.881856918E0;-3.992092013E-1
9.898521875E0;-9.153224230E-1;-8.817816734E0;8.044134378E-1
9.910440625E0;-2.633669615E0;-8.886490822E0;1.439307809E0
9.922351562E0;-3.527664661E0;-9.612576485E0;7.817068696E-1
9.934256250E0;-3.031566858E0;-1.054951382E1;9.060233831E-1
9.946168750E0;-8.239597082E-1;-1.084949684E1;2.122478962E0
9.958079687E0;1.305634737E0;-1.075632381E1;2.181405067E0
9.969990625E0;3.101554155E0;-1.031718922E1;1.209014416E0
9.981904687E0;4.088894367E0;-9.742389679E0;4.494491220E-1
9.993815625E0;4.311057091E0;-8.830926895E0;6.256335974E-1
1.000572656E1;3.968580723E0;-8.149622917E0;8.749274611E-1
1.001763750E1;3.543629169E0;-8.049564362E0;8.772929907E-1
1.002955000E1;3.105538130E0;-8.498381615E0;3.922755718E-1
1.004147188E1;2.736074448E0;-8.969273567E0;7.709329482E-3
1.005337188E1;2.508970261E0;-9.173814774E0;2.384816408E-1
1.006528438E1;2.248193502E0;-9.375675201E0;1.035013437E0
1.007719688E1;2.162040710E0;-9.642446518E0;1.742681980E0
1.008910781E1;2.253374815E0;-9.940132141E0;2.131327868E0
1.010101875E1;2.307062149E0;-1.014585114E1;2.329098701E0
1.011293750E1;2.537729263E0;-1.013373661E1;2.184603691E0
1.012484219E1;2.873549461E0;-9.927433014E0;1.917822599E0
1.013675469E1;3.101429701E0;-9.572334290E0;1.625471473E0
1.014866563E1;3.514027357E0;-9.190305710E0;1.296077132E0
1.016057812E1;4.350954056E0;-9.162303925E0;1.004348397E0
1.017248906E1;5.090149403E0;-9.216623306E0;5.983971953E-1
1.018440000E1;5.468002319E0;-9.078582764E0;6.387729943E-2
1.019631250E1;5.332835674E0;-8.931654930E0;-1.691264063E-1
1.020822344E1;4.814107418E0;-9.046012878E0;1.267586201E-1
1.022013594E1;4.315825939E0;-8.883580208E0;1.310653090E0
1.023204688E1;3.371725559E0;-9.279208183E0;1.872409463E0
1.024395938E1;2.701722622E0;-9.482072830E0;1.872591257E0
1.025587031E1;2.372347355E0;-9.560497284E0;1.748753667E0
1.026778125E1;2.168064356E0;-9.660633087E0;1.643025756E0
1.027971094E1;2.166656733E0;-9.786998749E0;1.572626591E0
1.029160469E1;2.175515413E0;-9.808938980E0;1.796733379E0
1.030351563E1;2.558099031E0;-9.879223824E0;2.000231028E0
1.031542656E1;2.938212156E0;-9.958452225E0;2.239651203E0
1.032733906E1;3.215728998E0;-9.907053947E0;2.406527042E0
1.033925000E1;3.377778053E0;-9.781300545E0;2.478487015E0
1.035116562E1;3.337316275E0;-9.357966423E0;2.326637268E0
1.036307344E1;3.319215775E0;-8.883819580E0;2.055948973E0
1.037498594E1;3.334050179E0;-8.349405289E0;1.642326593E0
1.038689688E1;3.347879410E0;-8.186408043E0;1.351191640E0
1.039880781E1;3.473996401E0;-8.457364082E0;1.220698118E0
1.041072031E1;3.775426388E0;-9.107811928E0;1.347456694E0
1.042263125E1;3.881633043E0;-9.718007088E0;1.616593719E0
1.043454219E1;3.910880566E0;-1.002621746E1;1.727876186E0
1.044645469E1;4.083272934E0;-9.752598763E0;1.673690677E0
1.045837188E1;4.529953957E0;-9.346005440E0;1.076797009E0
1.047028125E1;5.202944756E0;-9.451015472E0;3.442287147E-1
1.048219063E1;5.674430370E0;-9.887162209E0;-2.173935063E-3
1.049410156E1;6.008028984E0;-1.049650574E1;5.842809752E-2
1.050601250E1;6.111822128E0;-1.095919037E1;3.015066087E-1
1.051792656E1;6.125095844E0;-1.144167995E1;-4.058555067E-1
1.052983750E1;6.114101410E0;-1.158178806E1;-1.927054644E0
1.054174844E1;6.045349598E0;-1.090660381E1;-4.333093166E0
1.055365938E1;6.986242294E0;-9.404989243E0;-1.629125023E1
1.056557188E1;6.699770927E0;-8.258625984E0;-9.380578041E0
1.057748281E1;5.255540848E0;-8.550364494E0;-3.162817240E0
1.058939375E1;4.286952019E0;-9.444100380E0;-2.795853019E-1
1.060131719E1;4.552095890E0;-1.035029697E1;-5.107885599E-1
1.061321719E1;5.968840599E0;-1.158416271E1;-1.374913454E0
1.062512969E1;5.843729019E0;-1.445938873E1;-2.125964880E0
1.063705000E1;4.270030022E0;-1.770067787E1;-1.851915002E0
1.064895312E1;2.044916391E0;-2.102006721E1;-1.210489273E0
1.066086406E1;-3.939227760E-1;-2.271321678E1;4.254975170E-2
1.067277500E1;-2.826000690E0;-2.315921783E1;6.361393929E-1
1.068468750E1;-4.089746475E0;-2.119599152E1;-4.042944610E-1
1.069659844E1;-3.986977816E0;-1.767074013E1;-4.418834448E-1
1.070850938E1;-3.745288134E0;-1.372052860E1;5.492299050E-2
1.072042188E1;-2.792759657E0;-1.050684834E1;-1.570213288E-1
1.073233281E1;-1.601222873E0;-7.882114410E0;-2.373036891E-1
1.074424531E1;-5.477646589E-1;-5.713025093E0;8.404318094E-1
1.075615625E1;2.413355280E-3;-4.577435970E0;2.139171362E0
1.076807500E1;5.461748838E-1;-3.882514238E0;3.410635948E0
1.077997969E1;1.370910287E0;-3.507812023E0;3.609843254E0
1.079189062E1;2.206553698E0;-3.451787710E0;2.957844734E0
1.080380312E1;3.458098650E0;-3.833298922E0;1.219692469E0
1.081572031E1;4.234270096E0;-4.546368599E0;-5.451405644E-1
1.082763281E1;3.717275858E0;-5.490603447E0;-1.185972691E0
1.083953750E1;2.408940315E0;-6.024280548E0;-7.978916764E-1
1.085144844E1;1.052146316E0;-6.020440578E0;-4.500811696E-1
1.086335938E1;3.272394836E-2;-5.616251469E0;1.547133178E-1
1.087527188E1;-4.990761280E-1;-4.764279366E0;3.546578884E-1
1.088718281E1;5.824613944E-2;-3.847664118E0;-5.115068555E-1
1.089909531E1;1.227832794E0;-3.680108309E0;-5.779123902E-1
1.091100625E1;2.572301626E0;-3.527722120E0;-3.658340275E-1
1.092291875E1;3.455886364E0;-3.819278240E0;-5.194364190E-1
1.093483750E1;4.572379589E0;-4.710591793E0;-2.362521648E0
1.094674062E1;6.776299477E0;-6.066648483E0;-5.997916222E0
1.095865313E1;9.249539375E0;-7.607508659E0;-8.722862244E0
1.097056406E1;1.130084324E1;-1.021233273E1;-1.156943321E1
1.098247656E1;1.268227863E1;-1.270667934E1;-1.115513229E1
1.099438750E1;1.242078304E1;-1.481617260E1;-9.348955154E0
1.100630000E1;1.181531811E1;-1.537173271E1;-1.033098984E1
1.101821094E1;1.101579857E1;-1.278003788E1;-1.182722282E1
1.103012344E1;8.811275482E0;-1.038962936E1;-9.773811340E0
1.104203438E1;6.408349037E0;-8.494685173E0;-6.998893261E0
1.105394844E1;4.426199436E0;-8.709464073E0;-1.510080457E0
1.106586719E1;2.581418753E0;-1.009660721E1;3.632530689E0
1.107776875E1;6.088646054E-1;-1.196528149E1;5.422492981E0
1.108968125E1;-6.909474730E-1;-1.373509502E1;5.976233959E0
1.110159219E1;-1.844291925E0;-1.547066116E1;6.287326813E0
1.111350469E1;-2.707880259E0;-1.505219269E1;5.868686676E0
1.112541562E1;-3.488428354E0;-1.221280384E1;2.304189205E0
1.113732656E1;-4.130476475E0;-1.021554184E1;-1.150413990E0
1.114923906E1;-4.315184593E0;-8.919186592E0;-1.664793849E0
1.116115000E1;-1.872639298E0;-8.140093803E0;1.722867601E-2
1.117306406E1;3.516220450E-1;-6.968295574E0;1.803839445E0
1.118497344E1;1.487910151E0;-6.869903088E0;3.001084089E0
1.119688438E1;1.710513473E0;-7.951823711E0;3.839159966E0
1.120879688E1;1.871585846E0;-8.174484253E0;4.094372272E0
1.122070781E1;2.805381775E0;-8.844458580E0;4.262167454E0
1.123262656E1;4.057760239E0;-9.064198494E0;5.173419952E0
1.124453750E1;4.957089424E0;-9.149470329E0;6.450803280E0
1.125644219E1;5.928417206E0;-9.058481216E0;4.258528233E0
1.126835469E1;6.576469898E0;-8.967779160E0;6.544790268E-1
1.128026562E1;6.594598770E0;-8.322169304E0;-1.908341527E0
1.129217813E1;5.971646309E0;-8.331275940E0;-3.334682465E0
1.130409062E1;5.310684204E0;-8.129876137E0;-4.204677582E0
1.131600000E1;4.332786560E0;-8.419938087E0;-3.941095352E0
1.132791250E1;3.752077818E0;-8.882219315E0;-2.893919468E0
1.133982344E1;3.361171961E0;-9.020805359E0;-1.162902117E0
1.135173594E1;2.997712851E0;-9.056509018E0;2.141469717E-1
1.136365000E1;2.697202444E0;-9.211662292E0;9.988896847E-1
1.137555781E1;2.423755646E0;-9.282137871E0;1.386223674E0
1.138747031E1;2.091047764E0;-9.208894730E0;1.264531136E0
1.139938125E1;1.696253538E0;-8.640318871E0;1.158592582E0
1.141129375E1;1.625672460E0;-8.520657539E0;1.093853235E0
1.142320469E1;1.927897334E0;-8.929798126E0;8.773791790E-1
1.143511562E1;1.883978128E0;-9.354778290E0;8.542511463E-1
1.144702813E1;1.617130041E0;-9.634946823E0;1.041372418E0
1.145893906E1;1.279480577E0;-9.694898605E0;1.327824235E0
1.147085469E1;8.993770480E-1;-9.666570663E0;1.565424800E0
1.148277031E1;5.419993997E-1;-9.623436928E0;1.532557249E0
1.149467500E1;9.404041171E-1;-9.558209419E0;8.829528689E-1
1.150658594E1;2.277805090E0;-9.356539726E0;1.627003700E-1
1.151849844E1;3.731956959E0;-9.180901527E0;-2.619926929E-1
1.153041250E1;4.884746075E0;-8.895627975E0;-8.237011731E-2
1.154232656E1;5.659864426E0;-8.576519012E0;1.870446205E-1
1.155423281E1;6.639025211E0;-8.553515434E0;-1.563030630E-1
1.156614375E1;7.808018684E0;-8.743001938E0;-3.683527112E-1
1.157805625E1;9.035697937E0;-8.792361259E0;6.621978879E-1
1.158998906E1;9.510813713E0;-8.470503807E0;1.106351018E0
1.160187969E1;9.359872818E0;-7.583423138E0;-1.867908359E0
1.161379062E1;8.688519478E0;-7.050914764E0;-4.974509239E0
1.162570156E1;9.348189354E0;-6.872479439E0;-4.616700649E0
1.163761406E1;1.063617420E1;-7.588958263E0;-1.017152667E-1
1.164952500E1;9.859523773E0;-8.901670456E0;2.343454123E0
1.166143750E1;9.527926445E0;-1.159664154E1;2.544049978E0
1.167334844E1;8.992794037E0;-1.473038387E1;2.698370695E0
1.168525938E1;7.025133610E0;-1.845196915E1;2.294583797E0
1.169717188E1;3.887350321E0;-2.273449516E1;-5.884565115E-1
1.170908281E1;-6.436092854E-1;-2.881209183E1;-1.201941013E1
1.172099531E1;-3.820341587E0;-3.166517639E1;-1.449857712E1
1.173290625E1;-4.420931816E0;-2.986027336E1;-6.658753872E0
1.174481719E1;-3.367913961E0;-2.455795860E1;-1.954607010E0
1.175672969E1;-1.733258367E0;-1.871170044E1;3.141767383E-1
1.176864063E1;-5.259486437E-1;-1.494848537E1;1.205720007E-1
1.178055156E1;4.588343799E-1;-1.220585060E1;4.248271510E-2
1.179246406E1;2.390322924E0;-1.046162701E1;-4.482328892E-1
1.180437969E1;3.852931499E0;-9.340920448E0;-9.634363651E-1
1.181628750E1;4.631927967E0;-9.526557922E0;-1.405185699E0
1.182821250E1;3.590555668E0;-1.053469849E1;-5.839936733E-1
1.184011094E1;3.888327122E0;-1.081461906E1;-5.539895892E-1
1.185202188E1;5.418691635E0;-1.043604755E1;-2.528947353E0
1.186393438E1;7.253942966E0;-9.369000435E0;-3.743669510E0
1.187584531E1;8.143149376E0;-8.869291306E0;-3.585671425E0
1.188777812E1;7.631201744E0;-9.033266068E0;-1.700793028E0
1.189966875E1;6.475836754E0;-8.636115074E0;3.332728520E-2
1.191157969E1;4.952961922E0;-7.733472824E0;7.896077037E-1
1.192349063E1;3.446338415E0;-6.430997849E0;1.239746332E0
1.193540312E1;1.886429787E0;-5.114493847E0;9.375406504E-1
1.194734062E1;1.106121205E-2;-4.087735653E0;3.761194944E-1
1.195923594E1;-1.009060264E0;-3.190187454E0;-3.733039647E-2
1.197113750E1;-1.704537511E0;-2.387220144E0;1.673068292E-2
1.198305000E1;-2.140598297E0;-1.545074105E0;-6.306135654E-1
1.199496094E1;-2.186614752E0;-8.929414749E-1;-1.592460155E0
1.200687344E1;-1.661116362E0;-2.662831247E-1;-1.643025756E0
1.201878750E1;-7.290056944E-1;4.801810980E-1;-2.550150394E0
1.203069531E1;4.091499150E-1;3.448799849E-1;-3.975926161E0
1.204260781E1;2.366247177E0;-5.997474790E-1;-5.161927700E0
1.205451875E1;4.465511799E0;-1.882158518E0;-5.883156776E0
1.206643750E1;5.422205925E0;-3.827859402E0;-6.397077084E0
1.207834219E1;5.706675529E0;-6.324034691E0;-6.171141148E0
1.209025469E1;6.097169876E0;-7.843950748E0;-5.292124748E0
1.210216563E1;6.430088520E0;-8.055051804E0;-4.645450115E0
1.211407812E1;6.321659565E0;-7.056430817E0;-5.123706341E0
1.212598906E1;5.465559959E0;-5.582560062E0;-6.086750507E0
1.213790000E1;4.924413204E0;-4.831412792E0;-5.953651905E0
1.214981250E1;2.000709772E0;-4.608751774E0;-6.550928593E0
1.216172344E1;-2.069883108E0;-4.163038254E0;-8.279790878E0
1.217363438E1;-1.653368711E0;-4.607334614E0;-5.609652996E0
1.218555938E1;-1.150653288E-1;-7.966055393E0;-7.719643593E0
1.219745781E1;6.900491714E0;-1.264124107E1;-1.211284041E0
1.220937031E1;1.075051212E1;-1.578800774E1;2.850842953E0
1.222128125E1;8.711196899E0;-1.755080986E1;-9.349070549E0
1.223319219E1;7.146098137E0;-1.506054401E1;-1.442496014E1
1.224510469E1;5.739686966E0;-1.144310665E1;-3.111274719E0
1.225702031E1;4.425193310E0;-8.526987076E0;2.124135733E0
1.226892812E1;4.107588291E0;-7.164772987E0;-2.670090437E0
1.228083906E1;4.030725002E0;-7.275864124E0;-3.041239500E0
1.229275156E1;3.463471413E0;-8.385739326E0;-1.063312814E-1
1.230466250E1;2.709996939E0;-9.730993271E0;6.578021049E-1
1.231657656E1;2.409218073E0;-1.066061401E1;-3.174232543E-1
1.232848594E1;3.027908802E0;-1.075680351E1;-9.693356156E-1
1.234039688E1;3.634819508E0;-1.046473026E1;-5.469123125E-1
1.235230938E1;3.984765530E0;-1.014648342E1;-1.870350540E-2
1.236422656E1;4.678710461E0;-9.860222816E0;5.787838697E-1
1.237613125E1;5.540565968E0;-9.770603180E0;9.326947927E-1
1.238804375E1;6.475137711E0;-9.829989433E0;6.259975433E-1
1.239995469E1;7.659472466E0;-9.602204323E0;5.514325202E-2
1.241186719E1;8.353800774E0;-9.267495155E0;-2.079028934E-1
1.242378594E1;8.473817825E0;-8.911093712E0;-2.576161027E-1
1.243568906E1;7.885619164E0;-8.741402626E0;-3.284844756E-1
1.244760156E1;7.730752945E0;-8.499751091E0;-3.634398282E-1
1.245951250E1;7.762854099E0;-8.275653839E0;-4.234864190E-2
1.247142344E1;6.945157528E0;-8.306040764E0;-2.723260820E-1
1.248333750E1;5.838672638E0;-8.398112297E0;-1.046649218E0
1.249524844E1;5.152140141E0;-8.141922951E0;-1.936363339E0
1.250715938E1;4.686851025E0;-8.246138573E0;-2.593514204E0
1.251907031E1;4.355484009E0;-8.505085945E0;-2.221100807E0
1.253098281E1;4.594157219E0;-8.900617599E0;-9.326564670E-1
1.254289375E1;4.874536991E0;-8.875306129E0;-1.189439371E-1
1.255480625E1;5.244748116E0;-8.891327858E0;5.131827593E-1
1.256671719E1;5.899848938E0;-8.754829407E0;1.079076290E0
1.257862969E1;6.685597420E0;-9.038533211E0;1.011760950E0
1.259054063E1;7.654320240E0;-9.782353401E0;5.195896626E-1
1.260245156E1;8.700088501E0;-1.037670994E1;-4.530116916E-1
1.261436406E1;9.312142372E0;-1.068768787E1;-1.714009047E0
1.262627500E1;9.596870422E0;-1.069979286E1;-2.587164879E0
1.263818750E1;9.981034279E0;-1.057024670E1;-3.519237041E0
1.265009844E1;1.008359146E1;-1.023257923E1;-4.803774357E0
1.266200938E1;8.995840073E0;-9.639822006E0;-5.962424278E0
1.267392813E1;7.384397984E0;-9.278431892E0;-4.580921650E0
1.268584375E1;5.590058804E0;-1.010165405E1;-2.669985056E0
1.269774531E1;3.959214926E0;-1.117226505E1;-2.960325003E0
1.270965625E1;3.557659149E0;-1.188435745E1;-6.199612617E0
1.272157500E1;5.324034214E0;-1.147241116E1;-7.114427567E0
1.273348438E1;5.548974037E0;-1.095897961E1;-1.381186247E0
1.274539062E1;5.511825562E0;-1.106550217E1;2.302360058E0
1.275730312E1;5.249497890E0;-1.211990833E1;2.557620287E0
1.276921406E1;5.669019699E0;-1.309095860E1;1.772092342E0
1.278112969E1;5.551569462E0;-1.387511730E1;1.972439051E0
1.279303750E1;4.451634884E0;-1.447484589E1;1.800027847E0
1.280494844E1;3.669698238E0;-1.430555630E1;-2.853888553E-3
1.281686094E1;2.931833982E0;-1.255655384E1;-3.410664797E0
1.282877188E1;2.155547619E0;-1.071761513E1;-5.842407703E0
1.284069062E1;1.996496081E0;-9.296522141E0;-5.609250546E0
1.285259531E1;3.457686901E0;-7.477101326E0;-1.922505617E0
1.286450625E1;5.471009254E0;-6.726232052E0;8.246587962E-2
1.287641875E1;7.460753918E0;-6.654664516E0;-6.604453325E-1
1.288832969E1;8.442184448E0;-6.999161243E0;1.659785151E0
1.290024219E1;8.305974007E0;-7.392049789E0;5.189384460E0
1.291215313E1;6.646552563E0;-8.233046532E0;1.867285728E0
1.292406406E1;4.634849072E0;-8.307554245E0;-2.881278038E0
1.293597656E1;3.044658422E0;-7.873322964E0;-6.055577755E0
1.294788750E1;9.464470744E-1;-7.803124428E0;-4.216945648E0
1.295981250E1;-9.882211089E-1;-7.605890751E0;-5.438668281E-2
1.297171094E1;-1.977610588E0;-6.863678455E0;2.402791977E0
1.298362344E1;-1.870436549E0;-5.189978123E0;1.707199812E0
1.299553438E1;-1.429079890E0;-4.157751560E0;-4.940100014E-1
1.300744688E1;-7.332195044E-1;-3.760132074E0;-1.289363742E0
1.301935781E1;2.670971453E-1;-3.010909557E0;3.092638254E-1
1.303126875E1;1.623192191E0;-1.913398027E0;2.581859112E0
1.304317969E1;2.143097878E0;-1.783814311E0;3.480805397E0
1.305509219E1;2.076864719E0;-2.727714062E0;4.143118382E0
1.306700469E1;1.163792729E0;-3.886804342E0;3.929277658E0
1.307893594E1;2.306669652E-1;-4.630309582E0;3.926969469E-1
1.309082813E1;4.007893801E-2;-5.236540318E0;-7.246195078E-1
1.310275625E1;5.295974016E-1;-7.266919613E0;-4.446702898E-1
1.311465000E1;3.841333628E0;-1.119201183E1;3.943614006E0
1.312656250E1;5.241491795E0;-1.466016579E1;8.044805527E0
1.313847188E1;9.881292343E0;-1.734699631E1;2.541052580E0
1.315038438E1;1.382083607E1;-1.863810349E1;-4.065048218E0
1.316229688E1;1.174405766E1;-1.744153976E1;-3.957452536E0
1.317420781E1;1.061425304E1;-1.477520275E1;-8.359001160E0
1.318612031E1;8.939230919E0;-1.219879341E1;-7.798758030E0
1.319803125E1;6.906304836E0;-9.825794220E0;-3.298424482E0
1.320994688E1;5.209198952E0;-7.913554668E0;-9.528444409E-1
1.322185469E1;4.291031837E0;-6.428297520E0;1.969566047E-1
1.323377344E1;3.901026011E0;-5.767114639E0;8.216229677E-1
1.324567813E1;3.833739519E0;-6.706857681E0;2.622991502E-1
1.325759531E1;3.952338696E0;-8.459346771E0;-3.632865846E-1
1.326950000E1;3.696733713E0;-9.288889885E0;-5.360138789E-2
1.328141250E1;3.294048071E0;-9.299232483E0;4.221265018E-1
1.329332500E1;3.032179832E0;-8.668025017E0;7.671884298E-1
1.330523594E1;3.230477333E0;-8.063422203E0;9.463512897E-1
1.331717656E1;3.880991459E0;-7.665544510E0;1.017104745E0
1.332905781E1;4.673366547E0;-7.632130623E0;9.860280156E-1
1.334097031E1;5.286005020E0;-7.739611149E0;1.246785283E0
1.335288125E1;5.299843311E0;-7.896958351E0;1.225793004E0
1.336479375E1;4.959301949E0;-7.786107063E0;4.759960473E-1
1.337670469E1;4.173687458E0;-7.715601921E0;-7.232499719E-1
1.338861563E1;3.132918119E0;-7.536094666E0;-1.872141242E0
1.340052813E1;2.822533846E0;-7.454299450E0;-1.527462363E0
1.341243906E1;2.610512972E0;-7.751965523E0;-5.471708179E-1
1.342435156E1;1.980694294E0;-8.615784645E0;-4.948335886E-2
1.343626250E1;1.621286392E0;-9.117656708E0;5.578393936E-1
1.344817500E1;1.857450485E0;-9.662614822E0;9.030449986E-1
1.346009844E1;2.326991796E0;-1.024368763E1;8.493957520E-1
1.347199844E1;3.445792437E0;-1.050379372E1;1.735106707E0
1.348391406E1;4.593496323E0;-1.098114109E1;3.029651642E0
1.349582031E1;5.208891869E0;-1.152681732E1;3.389394760E0
1.350773750E1;5.727677345E0;-1.162176132E1;2.738679409E0
1.351964375E1;6.564508438E0;-1.160264683E1;2.076222897E0
1.353155625E1;6.899169922E0;-1.218163109E1;1.442918301E0
1.354346719E1;7.224589825E0;-1.312787724E1;-1.291624010E-1
1.355537969E1;8.057638168E0;-1.365994549E1;-2.838354826E0
1.356729062E1;8.366203308E0;-1.349213123E1;-7.896747589E0
1.357920156E1;6.909101009E0;-1.290092564E1;-1.170239830E1
1.359111406E1;5.225565434E0;-1.174418163E1;-7.900357723E0
1.360302500E1;4.434252739E0;-1.192639923E1;-2.694913387E0
1.361494063E1;4.029920578E0;-1.278000832E1;9.531795233E-2
1.362685156E1;3.605600834E0;-1.291609573E1;3.394116163E-1
1.363876094E1;3.723529577E0;-1.188489342E1;-2.965180397E0
1.365067188E1;4.698304653E0;-9.861333847E0;-3.656539679E0
1.366258281E1;6.381734848E0;-8.289386749E0;-2.745277882E0
1.367449531E1;6.470368385E0;-8.141693115E0;-1.007891893E0
1.368640625E1;6.648669243E0;-8.909131050E0;2.679877877E-1
1.369831875E1;6.717421532E0;-9.965003014E0;2.100758791E0
1.371022969E1;6.028360367E0;-1.107023335E1;2.924124718E0
1.372214063E1;4.110662460E0;-1.188896370E1;1.176367044E0
1.373405312E1;1.959788203E0;-1.214998913E1;-2.093576193E0
1.374596406E1;1.670032382E0;-1.154773235E1;-3.539712429E0
1.375787656E1;2.466602325E0;-1.081090355E1;-4.024720192E0
1.376978750E1;3.110556364E0;-1.059274292E1;-3.299803734E0
1.378169844E1;3.762688875E0;-1.007995319E1;-2.196996212E0
1.379361094E1;4.570588589E0;-9.146080017E0;-1.285916090E0
1.380552188E1;5.665706158E0;-8.695922852E0;-2.042072058E0
1.381743281E1;7.072347164E0;-8.971925735E0;-4.785147309E-1
1.382934531E1;8.741575241E0;-9.298418999E0;1.700544119E0
1.384125625E1;7.895004272E0;-9.457671165E0;2.163544178E0
1.385317969E1;4.765620232E0;-9.591277122E0;-1.584683895E0
1.386507969E1;2.532682419E0;-9.172483444E0;-4.790223122E0
1.387699063E1;1.054818273E0;-8.502279282E0;-3.427912712E0
1.388890312E1;-2.250358164E-1;-7.662288189E0;1.513135433E-2
1.390081406E1;-1.427116632E0;-6.662393093E0;2.178618193E0
1.391272656E1;-1.835213065E0;-5.426745415E0;1.594614983E0
1.392465625E1;-1.117938995E0;-4.444941044E0;-4.849311709E-1
1.393655000E1;-1.436138004E-1;-4.536523819E0;-1.148843288E0
1.394846094E1;5.023035407E-1;-4.794723988E0;-6.183839440E-1
1.396037188E1;1.063810945E0;-4.362542152E0;5.962424278E-1
1.397228438E1;1.174537897E0;-3.617179155E0;2.245675087E0
1.398419688E1;6.315233707E-1;-3.464907885E0;3.217692137E0
1.399610781E1;2.688018084E-1;-3.863178492E0;2.453319311E0
1.400801875E1;-8.794668913E-1;-4.632847309E0;3.746159673E-1
1.401994844E1;-1.928826332E0;-4.723089218E0;-5.013295174E0
1.403184688E1;8.612710238E-1;-5.427721977E0;-5.450926781E0
1.404375469E1;3.893958569E0;-9.191819191E0;6.369725704E0
1.405568750E1;5.434943199E0;-1.233479309E1;1.072048855E1
1.406757812E1;9.087622643E0;-1.362887764E1;7.928303242E0
1.407948906E1;1.304920387E1;-1.515797806E1;3.645603061E-1
1.409140000E1;1.378072834E1;-1.575558090E1;-1.999503136E0
1.410331250E1;1.085366344E1;-1.670099449E1;-7.213289261E0
1.411522344E1;9.201539993E0;-1.402541542E1;-1.138207340E1
1.412713438E1;6.916341305E0;-1.000471783E1;-6.860288143E0
1.413904688E1;4.935398102E0;-7.404039860E0;-3.399737835E0
1.415095781E1;3.682914257E0;-6.284482479E0;-2.782636881E-1
1.416287031E1;2.806272507E0;-6.132738113E0;1.898592353E0
1.417478125E1;2.844100714E0;-6.529457569E0;2.477002621E0
1.418669219E1;4.100233555E0;-7.212743282E0;2.361640692E0
1.419860469E1;4.692127705E0;-8.074895859E0;2.198365450E0
1.421051875E1;4.619257927E0;-8.816245079E0;1.833719134E0
1.422242812E1;4.800652504E0;-9.056509018E0;1.318410277E0
1.423433906E1;4.846553802E0;-8.911505699E0;1.067564964E0
1.424625156E1;4.651598454E0;-8.526566505E0;7.492989302E-1
1.425816250E1;4.600927830E0;-8.208107948E0;4.059799910E-1
1.427008594E1;5.057100296E0;-8.021580696E0;1.476839483E-1
1.428198594E1;5.085428238E0;-8.345679283E0;3.143107891E-1
1.429389688E1;4.495094776E0;-8.725496292E0;5.560293794E-2
1.430580938E1;3.619592428E0;-8.943713188E0;-4.155855477E-1
1.431772031E1;3.454555511E0;-9.097381592E0;-5.873072743E-1
1.432963438E1;2.989840746E0;-9.282626152E0;8.425674587E-2
1.434154375E1;2.468249559E0;-9.518301964E0;5.962710977E-1
1.435345469E1;2.430967093E0;-1.031420231E1;8.800223470E-1
1.436536719E1;2.788086176E0;-1.146691418E1;9.935650229E-1
1.437727812E1;4.090254307E0;-1.230691528E1;1.038968682E0
1.438918906E1;5.092514992E0;-1.280476570E1;2.074901342E0
1.440110156E1;6.264438629E0;-1.312111664E1;4.135198116E0
1.441301250E1;7.022414207E0;-1.355492592E1;3.670541048E0
1.442492500E1;6.878100872E0;-1.352497959E1;1.142762065E0
1.443683594E1;6.859780788E0;-1.322571373E1;-4.759768546E-1
1.444874688E1;6.619584560E0;-1.248283100E1;-4.458702564E0
1.446065781E1;6.521700382E0;-1.068747616E1;-9.732008934E0
1.447257188E1;6.042457581E0;-8.954458237E0;-8.189031601E0
1.448448281E1;4.605332851E0;-8.030228615E0;-4.891947746E0
1.449639375E1;3.761166334E0;-8.097985268E0;-3.087275028E0
1.450830625E1;3.810352802E0;-8.435059547E0;-5.357686996E0
1.452022656E1;5.691285610E0;-8.122281075E0;-2.303748846E0
1.453212969E1;5.676345825E0;-8.068047523E0;5.079155564E-1
1.454404063E1;5.994123459E0;-7.211297512E0;1.083338022E0
1.455595312E1;6.347459316E0;-5.873359680E0;1.822600484E0
1.456786406E1;9.204537392E0;-5.001525879E0;-2.570242643E0
1.457977500E1;9.373003006E0;-6.722420216E0;-2.340543032E0
1.459168750E1;9.195314407E0;-8.825802803E0;-3.286759928E-2
1.460359844E1;7.825831413E0;-1.199405098E1;5.927660465E-1
1.461551094E1;4.921224117E0;-1.456753922E1;-1.278676152E0
1.462742813E1;1.603684187E0;-1.615827560E1;-5.113267899E0
1.463933906E1;-1.037656665E0;-1.695991135E1;-8.114428520E0
1.465124531E1;-7.989355326E-1;-1.519673538E1;-5.794590950E0
1.466315625E1;2.033548594E0;-1.195557976E1;-1.836304784E0
1.467506875E1;6.006783485E0;-9.580053329E0;8.001422137E-2
1.468697969E1;6.950654984E0;-9.809886932E0;1.414408207E0
1.469889062E1;6.482837200E0;-1.049779892E1;2.429224014E0
1.471080313E1;6.090954781E0;-1.116987038E1;9.477016330E-1
1.472271406E1;7.445268154E0;-1.096448612E1;-2.123360157E0
1.473462656E1;7.709741116E0;-1.079977417E1;-3.919672012E0
1.474653750E1;6.116754532E0;-1.034594917E1;-4.928272247E0
1.475844844E1;4.675358772E0;-9.616425514E0;-4.752950191E0
1.477037188E1;3.324215174E0;-9.143916130E0;-2.976279974E0
1.478227188E1;1.859997749E0;-8.753507614E0;-1.289066911E0
1.479418438E1;4.968256056E-1;-7.696305275E0;2.719047070E-1
1.480610625E1;-2.547239065E-1;-6.137239456E0;7.959763408E-1
1.481801094E1;-3.444777429E-1;-4.451185226E0;1.178378224E0
1.482991719E1;-5.638440847E-1;-3.495476961E0;1.797719836E0
1.484182969E1;-9.320052266E-1;-2.844273090E0;2.546549559E0
1.485374219E1;-1.003553629E0;-2.228973150E0;2.523287535E0
1.486565938E1;-1.328408480E0;-2.461076736E0;2.292285442E0
1.487757969E1;-1.244697690E0;-3.418881893E0;9.969168901E-1
1.488947656E1;-2.621363401E-1;-4.374522686E0;1.017267585E0
1.490138750E1;1.381837368E0;-5.337700367E0;1.910592198E0
1.491329844E1;2.261026621E0;-6.123314381E0;2.452716082E-1
1.492520938E1;3.954684734E0;-5.873397827E0;-2.702622890E0
1.493712500E1;4.465875626E0;-6.904015541E0;7.241502404E-1
1.494903438E1;4.751561642E0;-8.273536682E0;5.046775818E0
1.496094531E1;6.265415192E0;-8.690846443E0;5.194297314E0
1.497285781E1;8.815872192E0;-8.932613373E0;2.702910185E0
1.498478906E1;1.088111973E1;-9.641967773E0;-1.248011112E0
1.499668125E1;8.991107941E0;-1.215515137E1;-1.991018176E0
1.500859219E1;6.701945305E0;-1.472434044E1;-3.514439106E0
1.502050313E1;5.501463890E0;-1.552689648E1;-4.278572559E0
1.503241562E1;5.145752430E0;-1.335649490E1;-3.923636913E0
1.504432656E1;4.352869034E0;-1.007808590E1;-1.958093047E0
1.505623906E1;3.658244371E0;-7.527035236E0;4.389146566E-1
1.506815000E1;3.430134535E0;-6.031635761E0;1.788717628E0
1.508006250E1;3.559124470E0;-6.011065006E0;1.878691792E0
1.509197344E1;3.776929617E0;-7.525272846E0;9.138188958E-1
1.510389219E1;4.179691792E0;-9.109564781E0;3.219913840E-1
1.511579688E1;4.683547020E0;-1.005394268E1;1.006522402E-1
1.512771250E1;5.293455601E0;-1.026234341E1;9.929233789E-2
1.513962031E1;5.824949265E0;-1.014668465E1;2.653541565E-1
1.515153125E1;6.238513470E0;-9.698546410E0;6.734123826E-1
1.516344375E1;6.377952099E0;-9.170884132E0;8.661264181E-1
1.517535469E1;6.132460594E0;-9.050426483E0;8.569422364E-1
1.518726562E1;5.686688900E0;-9.210570335E0;5.614690781E-1
1.519917813E1;4.813264847E0;-9.426422119E0;1.445523202E-1
1.521108906E1;3.850613832E0;-9.603507042E0;-1.168657765E-1
1.522300156E1;3.064884424E0;-9.899152756E0;5.273947492E-2
1.523491250E1;3.018370152E0;-1.055924320E1;7.678300738E-1
1.524682344E1;3.006896973E0;-1.149413204E1;1.521993995E0
1.525873594E1;3.039199591E0;-1.286437130E1;1.742768168E0
1.527064688E1;3.853544235E0;-1.362749863E1;1.774630070E0
1.528256562E1;4.260568142E0;-1.360897732E1;1.475929618E0
1.529447500E1;4.714509010E0;-1.321596527E1;1.811826587E0
1.530638281E1;4.678365707E0;-1.268309212E1;5.829018950E-1
1.531829375E1;4.692127705E0;-1.192570019E1;-1.090645075E0
1.533020469E1;4.952348709E0;-1.085783863E1;-1.440303802E0
1.534211563E1;5.598725796E0;-9.708008766E0;-1.176051021E0
1.535403281E1;5.780704021E0;-8.319429398E0;-9.581978321E-1
1.536593906E1;5.292220116E0;-6.954494953E0;-1.226951838E0
1.537785156E1;4.915420532E0;-5.834727287E0;-1.702191114E0
1.538976250E1;4.755392075E0;-5.300781727E0;-2.288569689E0
1.540168125E1;4.222509861E0;-5.325614452E0;-2.573268890E0
1.541358594E1;3.474513531E0;-6.528978348E0;-3.095089912E0
1.542549688E1;2.923483133E0;-7.841460228E0;-4.314208031E0
1.543741250E1;3.515071392E0;-8.418185234E0;-6.700930119E0
1.544932031E1;5.617132187E0;-7.982268333E0;-4.897301197E0
1.546124688E1;6.458071709E0;-8.009437561E0;-2.207683802E0
1.547314375E1;6.872096062E0;-8.097994804E0;-1.259283066E0
1.548505625E1;7.588594913E0;-8.287576675E0;-1.475623131E0
1.549696719E1;7.470982075E0;-9.192987442E0;3.424953222E-1
1.550887969E1;7.566089153E0;-1.071373653E1;2.155614853E0
1.552079063E1;6.942629337E0;-1.292652416E1;1.265278220E0
1.553270156E1;3.670397520E0;-1.516772747E1;-3.501567841E0
1.554461406E1;1.846408397E-1;-1.702697945E1;-1.177195454E1
1.555652500E1;-2.346298695E0;-1.718024635E1;-1.196217918E1
1.556843750E1;-1.541712642E0;-1.555022526E1;-6.312820435E0
1.558034844E1;1.779121757E0;-1.255032921E1;-1.104828358E0
1.559226875E1;5.198941708E0;-1.040821648E1;6.521901488E-1
1.560417188E1;5.724076748E0;-9.786041260E0;3.098087311E0
1.561608281E1;5.104792595E0;-9.899918556E0;3.846371412E0
1.562799531E1;6.521728992E0;-9.585186958E0;1.811146617E0
1.563991094E1;9.136206627E0;-9.525475502E0;-1.702334881E0
1.565181875E1;1.011051273E1;-9.892372131E0;-4.992274284E0
1.566372969E1;8.898845673E0;-1.042637539E1;-6.191175938E0
1.567564063E1;6.265893936E0;-1.073932648E1;-5.505256176E0
1.568755312E1;4.197035789E0;-1.040665627E1;-3.476553202E0
1.569946875E1;2.023952723E0;-9.353513718E0;-4.007127285E-1
1.571138750E1;7.260177284E-2;-7.658198833E0;2.213822603E0
1.572328750E1;-1.198240519E0;-5.921674728E0;2.329184771E0
1.573519844E1;-1.718347311E0;-4.455015659E0;1.723700643E0
1.574711094E1;-1.316264987E0;-3.209829569E0;1.335562348E0
1.575902188E1;-4.068035781E-1;-2.546741009E0;8.350592852E-1
1.577094063E1;2.597229928E-2;-3.020046234E0;1.274203777E0
1.578284531E1;-1.968704164E-1;-3.663425446E0;1.737414718E0
1.579475625E1;-8.610507101E-2;-3.948393106E0;2.679877996E0
1.580666875E1;7.498927116E-1;-3.900978327E0;3.416956902E0
1.581857969E1;1.644797325E0;-3.907471180E0;3.561509132E0
1.583050000E1;2.404927731E0;-4.393513203E0;2.072842360E0
1.584240312E1;2.836343765E0;-5.275106430E0;-1.221425891E0
1.585431406E1;4.396051407E0;-6.350504875E0;-2.753102064E0
1.586622656E1;4.570291519E0;-7.873380184E0;1.555474520E0
1.587813750E1;5.913975239E0;-9.055052757E0;4.665112019E0
1.589005000E1;9.332521439E0;-9.888809204E0;3.391425133E0
1.590196094E1;1.181574917E1;-1.202561569E1;-1.394191504E0
1.591387188E1;1.015438366E1;-1.423940945E1;-3.665216208E0
1.592578438E1;7.690357685E0;-1.614855576E1;-5.195379257E0
1.593769531E1;6.822766304E0;-1.376868057E1;-6.535864353E0
1.594960781E1;5.887600422E0;-9.061085701E0;-5.049735546E0
1.596151875E1;4.732781410E0;-6.242976665E0;-3.148298502E0
1.597343281E1;3.932026148E0;-4.919672966E0;-1.077457786E0
1.598534219E1;3.398406506E0;-5.061342239E0;1.039916754E0
1.599725625E1;3.005795717E0;-6.333419800E0;2.375823736E0
1.600916562E1;3.098805666E0;-7.880763531E0;2.135407686E0
1.602107656E1;3.680740118E0;-8.825057030E0;1.668471336E0
1.603298906E1;4.328476906E0;-9.247690201E0;1.159885406E0
1.604490000E1;4.809175491E0;-9.364507675E0;8.641918898E-1
1.605681250E1;5.292555332E0;-9.373375893E0;9.078429341E-1
1.606872344E1;5.850634098E0;-9.485195160E0;7.221965790E-1
1.608063594E1;6.303320408E0;-9.659550667E0;3.433476985E-1
1.609254688E1;6.065336227E0;-1.006398869E1;3.681037426E-1
1.610445781E1;4.855134964E0;-1.048537827E1;5.281991959E-1
1.611636875E1;3.729811907E0;-1.098001003E1;4.298262298E-1
1.612828125E1;3.057711601E0;-1.161937714E1;6.874231994E-2
1.614019375E1;2.382977724E0;-1.235235786E1;-2.639272213E-1
1.615210469E1;1.823586822E0;-1.309267330E1;-3.442095816E-1
1.616401562E1;1.684138894E0;-1.353627014E1;2.571372688E-1
1.617592813E1;2.417348862E0;-1.363900089E1;8.982565999E-1
1.618783906E1;3.178618908E0;-1.364412498E1;1.271704197E0
1.619975156E1;4.193060875E0;-1.364762974E1;1.295167327E0
1.621166250E1;5.551569462E0;-1.358235455E1;9.470599890E-1
1.622357344E1;6.370874882E0;-1.327832890E1;5.611146688E-1
1.623548594E1;6.255647182E0;-1.210619450E1;4.098969102E-1
1.624740312E1;5.295773029E0;-1.044983768E1;-2.050202787E-1
1.625930938E1;4.694588661E0;-8.635224342E0;-1.338847160E0
1.627122031E1;4.368105888E0;-7.077710629E0;-2.702335358E0
1.628313125E1;4.378248215E0;-5.468758583E0;-3.921242714E0
1.629505156E1;4.796744823E0;-4.580739975E0;-4.384405613E0
1.630696094E1;5.373795509E0;-4.697854519E0;-3.877448082E0
1.631886719E1;5.263901234E0;-5.531113148E0;-3.223917007E0
1.633077813E1;4.861761570E0;-6.796391487E0;-3.247447252E0
1.634268906E1;5.820313931E0;-7.295189857E0;-4.344853401E0
1.635460156E1;6.481314659E0;-7.531737328E0;-2.092474937E0
1.636651250E1;6.054974556E0;-8.259985924E0;9.952218086E-2
1.637842344E1;5.873187542E0;-9.083974838E0;3.123954535E-1
1.639033438E1;6.212944031E0;-9.872921944E0;-2.464591265E-1
1.640224688E1;6.702692509E0;-1.091193867E1;1.696722806E-1
1.641416563E1;6.543295860E0;-1.235352516E1;1.363555312E0
1.642607031E1;5.682838917E0;-1.382331657E1;1.407905459E0
1.643798281E1;3.368220568E0;-1.502775288E1;-1.085128784E0
1.644989375E1;4.731038213E-1;-1.600592804E1;-7.121801853E0
1.646180625E1;-1.500570655E0;-1.573771000E1;-9.773725510E0
1.647371719E1;-1.108343005E0;-1.466408348E1;-6.154151917E0
1.648562812E1;1.520174384E0;-1.262233734E1;-4.815697193E0
1.649754063E1;4.238474846E0;-1.046886730E1;-1.789024115E0
1.650945156E1;5.800709724E0;-9.224198341E0;1.443406701E0
1.652136406E1;6.977661610E0;-9.355860710E0;1.317854881E0
1.653327500E1;9.165033340E0;-1.008116913E1;-1.590688467E0
1.654519531E1;8.695165634E0;-1.047284222E1;-8.931138515E-1
1.655709844E1;7.224704742E0;-1.018411064E1;-2.061244965E0
1.656901094E1;6.058785915E0;-9.657817841E0;-4.084287643E0
1.658092188E1;5.137966156E0;-8.853393555E0;-3.223897934E0
1.659283750E1;4.096852303E0;-8.189548492E0;-1.001513720E0
1.660474531E1;2.516880512E0;-7.651322842E0;8.763927817E-1
1.661665625E1;5.660755038E-1;-6.749819756E0;1.376292467E0
1.662856875E1;-3.455503583E-1;-5.427329540E0;1.029181123E0
1.664047969E1;-5.287163854E-1;-4.141710281E0;5.055692196E-1
1.665239219E1;-9.232807755E-1;-3.844427347E0;2.656127214E-1
1.666430312E1;-1.338119388E0;-4.444461823E0;1.085827827E0
1.667621406E1;-7.431123257E-1;-4.678873539E0;2.757900238E0
1.668812656E1;1.782722622E-1;-4.779774666E0;4.500467300E0
1.670003750E1;9.133975506E-1;-5.046402454E0;5.312178135E0
1.671195469E1;1.574618518E-1;-5.764557838E0;3.710668087E0
1.672386719E1;-1.135272980E0;-5.381725311E0;7.467802167E-1
1.673577188E1;-1.561689973E-1;-3.787215233E0;5.833137035E-1
1.674768438E1;2.457092524E0;-1.440466642E0;-2.276694328E-1
1.675959531E1;6.338677883E0;-2.751952887E0;2.272451639E0
1.677150625E1;6.672103882E0;-6.413903236E0;5.290860176E0
1.678341875E1;8.825620651E0;-9.540328979E0;5.563961983E0
1.679532969E1;1.139700413E1;-1.338402843E1;5.027287006E0
1.680724063E1;1.144914913E1;-1.640517616E1;1.186097026E0
1.681915312E1;8.647789001E0;-1.796491241E1;-3.729495764E0
1.683106406E1;6.960824966E0;-1.481967735E1;-9.993934631E0
1.684297813E1;5.428182125E0;-1.006945705E1;-1.137888336E1
1.685488750E1;4.412666798E0;-6.697329044E0;-5.981271267E0
1.686679844E1;3.879229307E0;-5.312034607E0;-1.108103633E0
1.687871094E1;4.012164593E0;-5.524045944E0;2.350617647E0
1.689062188E1;4.882102966E0;-6.437711239E0;3.516229868E0
1.690253438E1;4.508051872E0;-7.869970798E0;2.531226635E0
1.691444531E1;4.120325089E0;-9.025038719E0;1.512742758E0
1.692635781E1;4.243617058E0;-9.703039169E0;7.791402340E-1
1.693826875E1;4.236990452E0;-9.907445908E0;2.317299992E-1
1.695017969E1;4.055231571E0;-9.579048157E0;-3.278524280E-1
1.696209219E1;4.019270897E0;-8.882641792E0;-6.379973292E-1
1.697400469E1;4.106966019E0;-8.412353516E0;-1.799481921E-2
1.698591562E1;4.013860226E0;-8.462458611E0;5.964531302E-1
1.699782812E1;3.873684406E0;-8.979807854E0;5.709692240E-1
1.700973906E1;3.586600304E0;-9.576021194E0;4.167826176E-1
1.702165156E1;3.120315075E0;-1.029016399E1;7.424323559E-1
1.703356094E1;2.678776503E0;-1.120904922E1;9.813928604E-1
1.704547344E1;2.411458969E0;-1.240212822E1;6.414545178E-1
1.705738750E1;2.431685209E0;-1.326049709E1;3.823348582E-1
1.706929688E1;2.853265762E0;-1.397806740E1;3.487106860E-1
1.708120781E1;3.427491188E0;-1.400293827E1;6.388975382E-1
1.709312031E1;3.793890476E0;-1.363458633E1;8.193436861E-1
1.710503125E1;4.188062191E0;-1.314694405E1;7.299154401E-1
1.711694375E1;4.433735847E0;-1.253395176E1;9.193063974E-1
1.712885625E1;4.540507793E0;-1.220630074E1;1.308776021E0
1.714077188E1;4.898172855E0;-1.212467766E1;1.423956275E0
1.715267812E1;4.940578938E0;-1.164555073E1;1.461966515E0
1.716458906E1;4.777294636E0;-1.062375259E1;6.893098354E-1
1.717650156E1;4.853036880E0;-9.327033997E0;-6.980342865E-1
1.718842500E1;4.826950073E0;-7.965499401E0;-2.202617645E0
1.720032656E1;4.423948288E0;-6.508062363E0;-3.159953594E0
1.721223594E1;4.506012440E0;-5.753783703E0;-3.673337460E0
1.722414688E1;4.996986389E0;-6.124817848E0;-3.374962330E0
1.723605938E1;5.205013752E0;-6.987103939E0;-2.885099173E0
1.724797031E1;5.538554668E0;-7.454394817E0;-3.504737854E0
1.725988438E1;5.882879257E0;-7.592904091E0;-1.840710163E0
1.727179375E1;5.699655533E0;-8.037344933E0;6.193512678E-1
1.728370469E1;5.845050812E0;-8.380692482E0;8.831252456E-1
1.729561719E1;6.973188877E0;-8.524612427E0;-1.984927297E0
1.730754062E1;7.733405590E0;-8.945838928E0;-3.638382196E0
1.731944063E1;7.456712246E0;-1.021896935E1;-1.711538196E0
1.733135156E1;6.947102070E0;-1.160891914E1;-1.109022975E0
1.734326250E1;5.397392750E0;-1.277494335E1;-2.296058655E0
1.735517500E1;2.889351368E0;-1.328891087E1;-3.100433826E0
1.736708594E1;8.741517663E-1;-1.317329979E1;-3.290102243E0
1.737899688E1;1.336539149E0;-1.248864460E1;-3.780722141E0
1.739090938E1;2.640881062E0;-1.138375854E1;-4.882850170E0
1.740282031E1;3.440831900E0;-1.031673050E1;-2.497947216E0
1.741473281E1;3.875666857E0;-9.673063278E0;2.413834184E-1
1.742664531E1;5.328248024E0;-9.018880844E0;-2.284116268E0
1.743855469E1;6.683758736E0;-8.926531792E0;-2.270402431E0
1.745046719E1;7.924098969E0;-9.108425140E0;-7.948271036E-1
1.746237969E1;7.707998753E0;-9.401062965E0;-4.436072707E-1
1.747429063E1;6.468807697E0;-9.544082642E0;-2.082878828E0
1.748620312E1;5.882994175E0;-9.298303604E0;-3.406699896E0
1.749811875E1;5.773167610E0;-9.105503082E0;-2.699510336E0
1.751002500E1;5.199794292E0;-9.065022469E0;-9.940438271E-1
1.752193750E1;3.407140732E0;-8.867060661E0;5.988760591E-1
1.753384844E1;1.753216386E0;-7.866168976E0;3.336942494E-1
1.754576094E1;1.107021332E0;-6.360148907E0;-3.518423140E-1
1.755767188E1;1.004463434E0;-5.200330734E0;-1.070361376E0
1.756958281E1;1.200739980E0;-4.914261818E0;-1.468507528E0
1.758149531E1;1.226616621E0;-5.149248123E0;-1.096314549E0
1.759340625E1;1.269147158E0;-5.268795490E0;9.879434109E-2
1.760531875E1;1.344890118E0;-4.900950432E0;9.798988700E-1
1.761722969E1;1.422443092E-1;-4.659125805E0;3.182956934E0
1.762914062E1;-3.983951807E-1;-4.276015759E0;4.504613876E0
1.764105313E1;-8.205407858E-2;-4.258288860E0;4.841162205E0
1.765296406E1;3.244813681E-1;-4.683920383E0;3.518020868E0
1.766487656E1;6.781911850E-1;-4.306402683E0;-5.796936750E-1
1.767678750E1;5.373555660E0;-3.009846687E0;-4.990435600E0
1.768869844E1;9.980910301E0;-5.172816277E0;1.451748163E-1
1.770061094E1;7.445076466E0;-9.502164841E0;4.528996468E0
1.771252188E1;7.701390266E0;-1.163184547E1;3.479186773E0
1.772443438E1;1.142503548E1;-1.214087200E1;1.107634306E0
1.773634531E1;1.134169769E1;-1.366660118E1;-1.522808075E0
1.774825625E1;8.621941566E0;-1.542383957E1;-4.697749615E0
1.776016875E1;6.584054470E0;-1.466103840E1;-6.796439648E0
1.777207969E1;4.632684708E0;-1.065045357E1;-4.688153267E0
1.778399531E1;3.653302670E0;-6.649445534E0;-1.905219436E0
1.779590313E1;3.157118797E0;-4.316027164E0;-7.457554936E-1
1.780781406E1;3.463346958E0;-3.992589951E0;-1.324376613E-1
1.781972656E1;3.976606131E0;-5.602681160E0;5.311488509E-1
1.783163750E1;4.618740559E0;-8.061277390E0;1.129613042E0
1.784355625E1;4.931873322E0;-9.672488213E0;6.858813763E-1
1.785546094E1;4.816999435E0;-1.019676208E1;6.603208184E-2
1.786737188E1;4.629380226E0;-9.875612259E0;-2.126912922E-1
1.787928438E1;4.633029461E0;-9.178325653E0;6.985322386E-2
1.789119531E1;4.343483925E0;-8.800865173E0;2.002893388E-1
1.790311406E1;3.944839954E0;-8.604981422E0;1.270842254E-1
1.791501875E1;3.840797663E0;-8.579832077E0;4.874977767E-1
1.792692969E1;4.176110268E0;-8.881320000E0;1.064280152E0
1.793884219E1;4.358395100E0;-9.518157959E0;1.390887618E0
1.795075313E1;4.305080891E0;-1.010995674E1;1.202425480E0
1.796266562E1;3.891736507E0;-1.058655643E1;9.957963824E-1
1.797457812E1;3.347017288E0;-1.088710594E1;5.938386321E-1
1.798649063E1;3.142600298E0;-1.125969124E1;5.107694268E-1
1.799840000E1;3.048288107E0;-1.215230656E1;6.363596916E-1
1.801031250E1;3.100079298E0;-1.334323025E1;5.264562368E-1
1.802222969E1;3.044639111E0;-1.436380291E1;8.781740069E-1
1.803413594E1;3.836775064E0;-1.489478779E1;9.340738654E-1
1.804604688E1;4.087380886E0;-1.527719021E1;1.742500067E-1
1.805795938E1;4.582540512E0;-1.467018318E1;-3.823156953E-1
1.806987031E1;4.961322308E0;-1.362705898E1;-6.061735749E-1
1.808179062E1;4.947177410E0;-1.211383724E1;-2.722973228E-1
1.809369531E1;4.566451073E0;-1.053021622E1;-7.839573920E-2
1.810560469E1;4.620617867E0;-9.101950645E0;-1.826392859E-1
1.811751563E1;5.237699032E0;-7.911543846E0;-8.093263507E-1
1.812942812E1;5.891574860E0;-6.597394943E0;-1.228196740E0
1.814135938E1;6.423470497E0;-5.258663177E0;-1.520978928E0
1.815325313E1;6.849772930E0;-4.556280613E0;-2.312559366E0
1.816516250E1;7.027958870E0;-4.649856091E0;-2.809020996E0
1.817707344E1;6.950530052E0;-4.910995960E0;-3.799444914E0
1.818898594E1;7.092123508E0;-4.822678566E0;-5.560380459E0
1.820091719E1;7.291598797E0;-5.065029144E0;-3.906389236E0
1.821281250E1;7.099287033E0;-6.646744728E0;-1.317845225E0
1.822472031E1;7.148090363E0;-8.276477814E0;-1.596166342E-1
1.823663281E1;7.005070210E0;-9.587206841E0;-1.987790823E0
1.824854375E1;6.174521446E0;-1.039909077E1;-2.945145845E0
1.826045469E1;5.760851383E0;-1.173874187E1;-2.041756153E0
1.827236719E1;5.572284222E0;-1.397853756E1;-1.428917050E0
1.828427812E1;4.035244942E0;-1.606977654E1;-4.790606201E-1
1.829619062E1;1.578545094E0;-1.714513588E1;9.731951356E-1
1.830810156E1;1.747001112E-1;-1.665453720E1;5.861771703E-1
1.832002188E1;1.613979220E0;-1.490638542E1;-2.148336411E0
1.833192500E1;4.286617279E0;-1.379308224E1;-5.903871536E0
1.834383594E1;5.114599228E0;-1.314358330E1;-5.366507530E0
1.835574688E1;5.984345436E0;-1.202478218E1;-3.665043831E0
1.836765938E1;6.252352715E0;-1.147316837E1;-3.201086044E0
1.837957656E1;7.095456123E0;-1.092828655E1;-2.621938229E0
1.839148281E1;8.282386780E0;-1.029510593E1;-5.037974715E-1
1.840339375E1;8.101816177E0;-9.979032516E0;2.534741402E0
1.841530469E1;6.330087185E0;-9.809302330E0;1.430746198E0
1.842721719E1;5.195915699E0;-9.443123817E0;-3.230295181E0
1.843912812E1;4.841219902E0;-8.786461830E0;-4.971090317E0
1.845104062E1;4.032448292E0;-8.667651176E0;-1.405655026E0
1.846295156E1;2.166292906E0;-8.357411385E0;2.600045681E0
1.847486406E1;2.391232848E-1;-7.235249043E0;3.664162874E0
1.848677500E1;-1.085789680E0;-5.695307732E0;2.778126240E0
1.849868750E1;-2.025188208E0;-4.412102222E0;1.640305877E0
1.851059844E1;-2.142417908E0;-3.159283161E0;4.182670414E-1
1.852252031E1;-1.762161136E0;-2.471045971E0;5.063353777E-1
1.853442188E1;-1.350435019E0;-2.254227161E0;8.733952045E-1
1.854634063E1;-5.299422145E-1;-2.299755096E0;3.442957699E-1
1.855825156E1;4.451778531E-1;-2.680653572E0;-1.787319481E-1
1.857016094E1;1.796848416E0;-2.969279289E0;-7.234128714E-1
1.858206875E1;2.876413107E0;-2.978750706E0;-1.836506009E0
1.859398125E1;4.103498936E0;-2.746896267E0;-1.758387923E0
1.860589062E1;5.610275269E0;-2.089314461E0;-9.068565965E-1
1.861780313E1;6.547193527E0;-1.812295794E0;-7.445105314E-1
1.862972188E1;6.923351765E0;-2.198365450E0;-1.075580716E0
1.864162500E1;7.410973549E0;-3.249104023E0;-1.789186835E0
1.865353750E1;8.122406006E0;-4.381504059E0;-2.611624002E0
1.866545000E1;9.027232170E0;-5.366364002E0;-2.605992794E0
1.867736719E1;1.061917496E1;-6.602863312E0;1.609478146E-1
1.868927188E1;1.099733543E1;-8.169226646E0;3.254543781E0
1.870118438E1;7.255541801E0;-8.459403992E0;2.685710192E0
1.871309531E1;4.219694138E0;-7.107532501E0;-4.093031287E-1
1.872500781E1;9.382474899E0;-8.550901413E0;-8.293275833E0
1.873692188E1;1.117227459E1;-1.521472073E1;-1.960199952E0
1.874882969E1;5.403828144E0;-1.901730728E1;9.766044021E-1
1.876074219E1;6.899380207E0;-1.375124168E1;-3.547297001E0
1.877265312E1;4.017757893E0;-6.185257435E0;-4.721087933E0
1.878456563E1;2.974747896E0;-3.298213959E0;-8.218815327E-1
1.879647656E1;4.895893574E0;-4.971358776E0;2.038605452E0
1.880838750E1;5.768063068E0;-9.171237946E0;-7.686345279E-2
1.882030000E1;5.638248920E0;-1.103095913E1;-1.932963490E0
1.883221094E1;5.208901882E0;-1.154166126E1;-2.040788889E0
1.884412344E1;4.852156162E0;-1.089877033E1;-2.074719429E0
1.885604063E1;4.249228954E0;-9.900550842E0;-2.360376358E0
1.886794844E1;3.460100412E0;-9.306060791E0;-2.128129482E0
1.887985781E1;3.062318087E0;-8.919817924E0;-1.108888865E0
1.889176875E1;2.925321817E0;-8.724575996E0;-2.290006131E-1
1.890368125E1;2.822170019E0;-8.688901901E0;4.211496711E-1
1.891559219E1;2.734312534E0;-8.650213242E0;8.948951364E-1
1.892750312E1;2.940769196E0;-8.578530312E0;1.535210013E0
1.893941406E1;3.315854549E0;-8.489733696E0;2.283876896E0
1.895132812E1;3.508932352E0;-8.505066872E0;2.824391842E0
1.896323906E1;3.769153357E0;-8.653745651E0;3.223687172E0
1.897515625E1;4.059685230E0;-8.827756882E0;3.479129314E0
1.898706250E1;4.258911133E0;-8.911276817E0;3.426083565E0
1.899897344E1;4.418959141E0;-8.812826157E0;3.090962172E0
1.901088438E1;4.670177937E0;-8.828292847E0;2.250904083E0
1.902279688E1;4.780435562E0;-8.938531876E0;1.055852532E0
1.903471406E1;4.264226437E0;-8.741518021E0;-3.303806782E-1
1.904662031E1;3.352619886E0;-8.426862717E0;-1.485707521E0
1.905853125E1;2.483361721E0;-8.396177292E0;-1.773615003E0
1.907044219E1;1.925694704E0;-8.683645248E0;-1.200376153E0
1.908235469E1;1.778412938E0;-9.211365700E0;-3.572914898E-1
1.909428906E1;1.975570798E0;-9.693250656E0;3.105854094E-1
1.910617812E1;2.183052301E0;-9.887698174E0;6.631268263E-1
1.911808906E1;2.273332834E0;-9.731586456E0;7.980065942E-1
1.913000156E1;2.314647198E0;-9.312975883E0;9.302909970E-1
1.914191250E1;2.396634340E0;-8.908230782E0;1.054846883E0
1.915382500E1;2.535066843E0;-8.651466370E0;1.173455715E0
1.916574062E1;2.743142366E0;-8.474544525E0;1.311945915E0
1.917764688E1;2.960995436E0;-8.444339752E0;1.375918984E0
1.918955938E1;3.277374744E0;-8.601524353E0;1.438254356E0
1.920147031E1;3.433907747E0;-8.680657387E0;1.461861253E0
1.921340313E1;3.397736073E0;-8.644840240E0;1.458356023E0
1.922529375E1;3.407925844E0;-8.400382042E0;1.522166371E0
1.923720469E1;3.469322681E0;-8.111325264E0;1.827245116E0
1.924911719E1;3.397084951E0;-7.888003826E0;1.908504367E0
1.926102813E1;3.379789352E0;-7.735052586E0;1.437651157E0
1.927293906E1;3.335419893E0;-7.748278141E0;6.811503768E-1
1.928485156E1;3.032476902E0;-8.261997223E0;-7.465120405E-2
1.929676250E1;2.615579128E0;-8.887516975E0;-5.566518903E-1
1.930867344E1;2.250099659E0;-9.484275818E0;-7.073525190E-1
1.932058594E1;2.106514454E0;-9.836415291E0;-1.186259866E0
1.933251719E1;2.613491535E0;-9.824644089E0;-1.368257523E0
1.934441094E1;3.066139221E0;-9.765555382E0;-9.616837502E-1
1.935632031E1;3.377413988E0;-9.994068146E0;-7.900866121E-2
1.936823281E1;4.526554108E0;-1.039833355E1;1.400177002E0
1.938014375E1;6.245859146E0;-1.057884789E1;3.549308300E0
1.939206250E1;8.038991928E0;-1.030775642E1;3.280267000E0
1.940397344E1;9.147689819E0;-1.031101227E1;3.054330945E-1
1.941587813E1;8.695289612E0;-1.092841053E1;-1.468967319E0
1.942779531E1;7.370588303E0;-1.175476456E1;-2.144476891E0
1.943970312E1;5.072710037E0;-1.153403854E1;-3.278993368E0
1.945161250E1;4.159752846E0;-9.888005257E0;-1.993115425E0
1.946353125E1;3.653522968E0;-9.250926971E0;5.599080324E-1
1.947543750E1;3.663712978E0;-1.044363213E1;2.074681044E0
1.948734844E1;4.347180843E0;-1.211025524E1;1.695114017E0
1.949925938E1;4.795499802E0;-1.409028912E1;-1.141038179E0
1.951117344E1;4.546694279E0;-1.518515682E1;-2.584464073E0
1.952308281E1;3.806024075E0;-1.534387398E1;-2.717974424E0
1.953499531E1;3.588448763E0;-1.530593109E1;-6.163853168E0
1.954690625E1;3.476687193E0;-1.485815716E1;-1.224139023E1
1.955881875E1;2.780031919E0;-1.409465599E1;-1.024647427E1
1.957073906E1;1.755390406E0;-1.324726200E1;-6.152705669E0
1.958264531E1;1.846408397E-1;-1.296577072E1;-2.454305649E0
1.959455312E1;-6.404201984E-1;-1.256647587E1;-5.745892525E-1
1.960646406E1;-3.843555748E-1;-1.184457493E1;-7.040868700E-2
1.961837656E1;-5.723099783E-2;-1.079909515E1;-1.105000734E0
1.963028750E1;6.839851141E-1;-1.039978027E1;-3.219023466E0
1.964220000E1;2.087925673E0;-1.067478848E1;-2.712582827E0
1.965411094E1;4.448369026E0;-1.075001335E1;-1.923750639E0
1.966602188E1;7.297957420E0;-1.069825077E1;-1.514399648E0
1.967793438E1;9.804131508E0;-1.050566101E1;-1.890069008E0
1.968984531E1;9.844220161E0;-1.048277283E1;-1.929209471E0
1.970175781E1;8.004381180E0;-1.035260487E1;-1.751368165E0
1.971366875E1;5.976435184E0;-9.874291420E0;-1.241470218E0
1.972557969E1;4.487049580E0;-8.919953346E0;-1.255615115E0
1.973749219E1;2.958266020E0;-7.901134014E0;-1.217968702E0
1.974942188E1;1.605772018E0;-7.018104553E0;-1.479176164E0
1.976131562E1;6.868293881E-1;-5.628423214E0;-1.695468307E0
1.977322656E1;8.834221363E-1;-4.244450092E0;-1.581667066E0
1.978513750E1;1.277000070E0;-3.407494783E0;-1.237898111E0
1.979705000E1;1.117938995E0;-3.321102619E0;-8.245438933E-1
1.980896094E1;9.666541815E-1;-3.038625002E0;-9.643940330E-1
1.982087188E1;9.923200011E-1;-2.581016302E0;-1.364206553E0
1.983278438E1;1.141775608E0;-2.187524557E0;-1.516832113E0
1.984469531E1;2.029564857E0;-2.232257843E0;-1.520260572E0
1.985660781E1;4.041948795E0;-2.662017107E0;-1.174384594E0
1.986854219E1;6.755460262E0;-3.018408537E0;-2.256018162E0
1.988042969E1;9.310600281E0;-3.778864145E0;-4.536283970E0
1.989234219E1;1.000024509E1;-4.892407894E0;-4.141700745E0
1.990425312E1;9.551140785E0;-5.987524986E0;-1.912612796E0
1.991616562E1;8.492012978E0;-6.479246140E0;-2.657630920E0
1.992807813E1;6.439876080E0;-6.413951874E0;-5.232268810E0
1.993998906E1;3.553933859E0;-5.773339748E0;-6.456233025E0
1.995190000E1;4.723951519E-1;-5.317512035E0;-6.666568279E0
1.996381250E1;-1.404783487E0;-5.813830376E0;-6.869472027E0
1.997572344E1;-1.640803814E0;-6.970277786E0;-4.934497356E0
1.998763438E1;1.073406816E0;-8.227348328E0;-1.433427691E0
1.999954688E1;9.544015884E0;-9.720066071E0;3.158660650E0
2.001145781E1;1.478938580E1;-1.201347160E1;6.058182716E0
2.002337031E1;1.711478806E1;-1.455406475E1;3.915333748E0
2.003528125E1;1.754947090E1;-1.507191086E1;4.192630351E-1
2.004721094E1;1.256633091E1;-1.302831650E1;-5.580932140E0
2.005910469E1;6.808286190E0;-9.533510208E0;-7.835551739E0
2.007101719E1;3.058506489E0;-7.213691235E0;-5.502211094E0
2.008292813E1;1.299055576E0;-5.633642673E0;-8.509950638E-1
2.009483906E1;2.955019474E-1;-5.948030472E0;2.359658241E0
2.010676250E1;7.504960299E-1;-7.871139050E0;2.896898031E0
2.011866250E1;1.465136528E0;-1.011141300E1;2.363641977E0
2.013057500E1;2.288454533E0;-1.151211643E1;2.149408817E0
2.014248750E1;3.071770191E0;-1.213982773E1;2.115823030E0
2.015439688E1;3.366439104E0;-1.204114914E1;1.804337382E0
2.016634062E1;3.623691320E0;-1.106129742E1;1.711538196E0
2.017822031E1;4.138655186E0;-1.031014156E1;1.255433202E0
2.019013125E1;4.774765968E0;-9.753058434E0;7.224264145E-1
2.020204375E1;5.421468735E0;-9.223825455E0;1.103056669E-1
2.021395469E1;5.814644337E0;-8.858373642E0;-5.998241305E-1
2.022587031E1;6.134873390E0;-8.516481400E0;-8.712787628E-1
2.023777813E1;6.202456951E0;-8.164859772E0;-5.990388393E-1
2.024969219E1;6.121026039E0;-8.004132271E0;1.525298059E-1
2.026160156E1;6.126838684E0;-7.913286686E0;8.327608109E-1
2.027351250E1;5.934747219E0;-8.124005318E0;1.611383915E0
2.028544219E1;5.725570679E0;-8.046519279E0;1.884648561E0
2.029733750E1;5.390516758E0;-7.797713757E0;1.969087243E0
2.030924844E1;5.414180756E0;-7.335067749E0;2.109569311E0
2.032115938E1;5.116916656E0;-6.863409996E0;1.957144976E0
2.033307031E1;4.422712803E0;-6.531612396E0;1.448357940E0
2.034498281E1;3.748228073E0;-6.774297714E0;1.394469261E0
2.035689375E1;3.697595358E0;-7.869271278E0;1.194304466E0
2.036880625E1;4.008861065E0;-8.520321846E0;8.975382894E-2
2.038071719E1;3.908084154E0;-8.575303078E0;2.059587985E-1
2.039262812E1;3.376973629E0;-8.707615852E0;4.636515081E-1
2.040454063E1;2.907939911E0;-8.634860039E0;8.208472729E-1
2.041645156E1;3.200042009E0;-8.481813431E0;1.123627543E0
2.042836250E1;3.574945211E0;-8.716235161E0;1.296728373E0
2.044027500E1;4.034766197E0;-8.925861359E0;1.674667478E0
2.045218750E1;4.112424374E0;-9.082854271E0;2.022669315E0
2.046410469E1;4.003545761E0;-9.316987991E0;1.690181851E0
2.047601406E1;4.224712372E0;-9.338803291E0;9.943885207E-1
2.048792500E1;3.927295208E0;-9.467046738E0;4.380814433E-1
2.049983281E1;3.450676680E0;-9.988599777E0;1.321982443E-1
2.051174531E1;3.575405121E0;-1.071089268E1;-1.174882650E-1
2.052370000E1;4.149620533E0;-1.142625141E1;-4.450533688E-1
2.053556875E1;4.700794697E0;-1.195242023E1;-6.424026489E-1
2.054747969E1;5.134729385E0;-1.243427753E1;-5.334281325E-1
2.055939219E1;5.413088799E0;-1.313495445E1;-3.597048521E-1
2.057130312E1;5.624659538E0;-1.376595116E1;-6.053978205E-1
2.058321562E1;5.560351372E0;-1.364893150E1;-1.220238447E0
2.059512656E1;4.976951599E0;-1.290275478E1;-1.837444425E0
2.060703750E1;4.528507710E0;-1.215747833E1;-2.362042665E0
2.061894844E1;4.380393028E0;-1.212119198E1;-2.518594742E0
2.063086094E1;3.818062305E0;-1.275732231E1;-2.105470419E0
2.064277188E1;3.002271414E0;-1.382818127E1;-2.057567358E0
2.065468438E1;2.216781855E0;-1.440368938E1;-3.571124315E0
2.066659531E1;3.322903156E0;-1.287079811E1;-5.880216599E0
2.067850625E1;3.743899345E0;-1.112536716E1;6.045168042E-1
2.069041875E1;4.485824108E0;-9.881340027E0;2.974201918E0
2.070232969E1;5.737283230E0;-8.803239822E0;2.891860247E0
2.071424219E1;6.295563221E0;-8.613600731E0;3.161859274E0
2.072615312E1;5.775590420E0;-9.301712990E0;3.263296843E0
2.073806562E1;7.476823807E0;-1.001046371E1;-4.901888371E-1
2.074997656E1;5.771471977E0;-1.112159348E1;-7.114800811E-1
2.076189219E1;3.066598892E0;-1.272308540E1;-2.077065706E0
2.077380156E1;1.354514718E0;-1.354925728E1;-3.923866749E0
2.078571094E1;1.131241083E0;-1.364585876E1;-5.046517372E0
2.079762188E1;2.309715033E0;-1.201802158E1;-3.903123379E0
2.080953594E1;4.075007915E0;-1.015780258E1;-2.262989998E0
2.082146563E1;5.321937084E0;-9.441706657E0;-1.101169944E0
2.083335625E1;6.782466888E0;-9.194873810E0;1.642048836E0
2.084526875E1;7.305169106E0;-8.529965401E0;4.926223278E0
2.085718125E1;6.529256344E0;-7.887218952E0;5.507266998E0
2.086909219E1;4.864998341E0;-7.975880623E0;3.336884975E0
2.088101719E1;2.829209089E0;-8.112464905E0;-6.889459491E-1
2.089291562E1;1.191718578E0;-7.571442604E0;-4.257111073E0
2.090482656E1;4.540555775E-1;-7.137182236E0;-5.061572075E0
2.091673906E1;2.874478400E-1;-6.693335533E0;-2.558463097E0
2.092865000E1;4.435210824E-1;-6.316813946E0;-2.891046405E-1
2.094056094E1;1.063715100E0;-5.515953541E0;1.160507798E0
2.095247344E1;1.797039866E0;-5.601168156E0;1.253508329E0
2.096438594E1;1.457197428E0;-5.727284431E0;2.368459225E0
2.097629688E1;3.259274662E-1;-5.183293343E0;1.877839446E0
2.098820781E1;-6.957358122E-1;-4.201258659E0;1.175620079E0
2.100012031E1;-1.183923244E0;-3.181262016E0;5.616797209E-1
2.101203125E1;-4.616308212E-1;-3.283886909E0;6.971245408E-1
2.102394219E1;5.192257166E-1;-4.131424904E0;1.610751867E0
2.103585469E1;9.769108891E-1;-5.275498867E0;2.119107962E0
2.104776719E1;1.268352270E0;-6.451645374E0;2.054799557E0
2.105970313E1;1.741887093E0;-7.285449982E0;1.777713895E0
2.107158906E1;4.370098114E0;-8.241560936E0;3.663205385E0
2.108350156E1;4.896784306E0;-1.030713367E1;4.381015778E0
2.109541250E1;5.369284630E0;-1.215348530E1;4.184806347E0
2.110732500E1;8.620993614E0;-1.351063347E1;3.069874287E0
2.111925781E1;1.269184494E1;-1.549555111E1;2.183990777E-1
2.113114688E1;1.371564484E1;-1.513147926E1;-2.287065983E0
2.114305938E1;9.702033043E0;-1.378564072E1;-4.282163620E0
2.115497031E1;4.882725716E0;-1.229908085E1;-3.999791861E0
2.116688281E1;3.019586325E0;-1.074199772E1;-2.168514729E0
2.117879375E1;2.279040575E0;-9.552271843E0;-5.910134912E-1
2.119070469E1;2.204437256E0;-8.807559967E0;6.950654984E-1
2.120261719E1;2.362770557E0;-8.690013885E0;1.346795917E0
2.121452812E1;2.832359791E0;-9.259881973E0;1.500082254E0
2.122645313E1;3.068227053E0;-1.039495277E1;1.058534026E0
2.123836719E1;2.987504244E0;-1.119025993E1;1.125562117E-1
2.125026250E1;2.703503847E0;-1.128912067E1;-7.133380175E-1
2.126217500E1;2.713760614E0;-1.071640778E1;-9.422045946E-1
2.127408594E1;2.905478716E0;-9.924148560E0;-5.277969837E-1
2.128599844E1;3.472971439E0;-8.871561050E0;2.213678956E-1
2.129790938E1;4.113362789E0;-7.918582439E0;1.120179892E0
2.130982031E1;4.444643974E0;-7.201414108E0;1.603128791E0
2.132173281E1;4.772611141E0;-6.793920994E0;1.716307402E0
2.133364375E1;5.457582951E0;-6.411643505E0;2.108726501E0
2.134555625E1;5.782734394E0;-6.216506481E0;2.292093754E0
2.135747344E1;5.713139534E0;-6.107924938E0;1.933576465E0
2.136937812E1;5.058325768E0;-6.029021263E0;1.254983068E0
2.138129063E1;4.306469917E0;-6.070220470E0;6.790722013E-1
2.139320313E1;3.766625166E0;-6.270998478E0;5.439339280E-1
2.140511406E1;2.730970144E0;-7.064264774E0;6.352678537E-1
2.141702656E1;2.002261400E0;-7.860710144E0;2.347179502E-1
2.142893906E1;1.772810578E0;-8.122808456E0;2.462963164E-1
2.144084844E1;1.676573277E0;-8.583194733E0;2.693094015E-1
2.145276094E1;1.561412096E0;-9.250267029E0;-5.917413235E-1
2.146467188E1;1.656902432E0;-9.862712860E0;-5.236597657E-1
2.147658906E1;1.727445364E0;-1.050733662E1;5.171475559E-2
2.148849531E1;1.705064178E0;-1.065554810E1;4.986164570E-1
2.150040625E1;2.177277327E0;-9.922414780E0;1.132677555E0
2.151231719E1;2.688659668E0;-9.101059914E0;1.437277555E0
2.152423125E1;2.433169603E0;-8.486363411E0;1.515117884E0
2.153614062E1;2.650218487E0;-8.712308884E0;1.522434592E0
2.154805313E1;3.862833738E0;-1.003120708E1;1.184957504E0
2.155996562E1;4.597154617E0;-1.186357594E1;7.112311125E-1
2.157187656E1;5.189192772E0;-1.361867905E1;2.128253728E-1
2.158378750E1;5.607603550E0;-1.484218216E1;-1.631600708E-1
2.159570625E1;5.458961964E0;-1.465365410E1;-6.962338090E-1
2.160761094E1;5.174808502E0;-1.332278442E1;-1.681304216E0
2.161952188E1;4.845892906E0;-1.224587250E1;-2.246077061E0
2.163143438E1;4.709979057E0;-1.133226490E1;-1.230428100E0
2.164334531E1;4.643774509E0;-1.121269798E1;3.878606716E-3
2.165526406E1;3.627675295E0;-1.258015060E1;4.406384528E-1
2.166716875E1;2.211246252E0;-1.382351780E1;2.945155203E-1
2.167907969E1;1.246766090E0;-1.387927341E1;-2.180025816E0
2.169099219E1;2.904453754E0;-1.225816917E1;-8.512124062E0
2.170290313E1;3.718109131E0;-1.190202618E1;-3.300340176E0
2.171481562E1;3.726345301E0;-1.175850868E1;3.650678694E-2
2.172672656E1;3.239623070E0;-1.144568253E1;2.003602028E0
2.173863750E1;3.173725128E0;-1.118771172E1;3.916693687E0
2.175055000E1;2.890261173E0;-1.102770233E1;5.011954784E0
2.176246094E1;3.153470278E0;-1.078723812E1;4.354430199E0
2.177437344E1;3.646072149E0;-1.076168728E1;1.591310859E0
2.178628438E1;4.588880539E0;-1.043908310E1;-2.658741951E0
2.179819531E1;4.780512333E0;-1.036950779E1;-8.995742798E0
2.181010781E1;3.410128355E0;-1.058059978E1;-1.016588593E1
2.182201875E1;2.504430771E0;-1.098003864E1;-5.976827621E0
2.183393281E1;2.304850101E0;-1.102131462E1;-1.361122847E0
2.184584219E1;5.375432968E0;-1.038423729E1;-2.924766302E0
2.185775313E1;6.726854324E0;-1.004145432E1;-6.786603928E-1
2.186966562E1;5.803190231E0;-9.800463676E0;2.699519873E0
2.188157656E1;3.631103754E0;-9.150524139E0;4.670120239E0
2.189348906E1;2.686572075E0;-8.139654160E0;2.114453554E0
2.190540000E1;2.295378685E0;-7.255676270E0;-2.090818167E0
2.191731094E1;1.658051729E0;-6.989029408E0;-3.432950020E0
2.192922344E1;1.037934303E0;-7.026905060E0;-3.054465055E0
2.194113438E1;3.922564387E-1;-6.857338428E0;-2.065085173E0
2.195304688E1;-1.221617535E-1;-6.350907326E0;-9.197852612E-1
2.196495781E1;-3.118782938E-1;-5.453253746E0;-5.090456009E-1
2.197687031E1;8.811619878E-2;-4.521852016E0;-1.478620648E0
2.198878125E1;7.263433337E-1;-3.977056503E0;-8.953739405E-1
2.200069375E1;1.586752415E0;-3.461106062E0;7.325586677E-1
2.201260469E1;2.005536556E0;-3.086873055E0;2.397026777E0
2.202451563E1;1.115889549E0;-2.632290840E0;3.444901943E0
2.203642812E1;-2.972640842E-2;-2.462944031E0;3.417310953E0
2.204833906E1;-8.637130857E-1;-2.990750551E0;2.118581295E0
2.206025156E1;-1.571458280E-1;-3.986987591E0;4.072728455E-1
2.207216562E1;9.158396125E-1;-5.001296043E0;-1.917755604E-1
2.208407500E1;1.167096734E0;-6.189222336E0;2.865572274E-1
2.209598594E1;2.055939198E0;-7.021551609E0;3.212444186E-1
2.210789688E1;4.958947182E0;-1.009115791E1;2.380343914E0
2.211980938E1;5.119023323E0;-1.343477535E1;5.663187027E0
2.213172031E1;7.602126598E0;-1.656590271E1;4.164321423E0
2.214363281E1;1.267458820E1;-2.048370743E1;1.666938961E-1
2.215554375E1;1.399950123E1;-2.066726494E1;-2.486426353E0
2.216745469E1;1.230026817E1;-1.650647926E1;-6.213643074E0
2.217936719E1;7.734104633E0;-1.265785789E1;-7.578673363E0
2.219127812E1;5.149343967E0;-1.016097260E1;-6.078974247E0
2.220319219E1;3.164310932E0;-8.724537849E0;-2.330774307E0
2.221510156E1;1.422481418E0;-8.248953819E0;3.742903471E-1
2.222701250E1;4.382825494E-1;-8.054419518E0;1.601787925E0
2.223892500E1;3.676631749E-1;-8.393447876E0;2.369828701E0
2.225084531E1;1.196028233E0;-9.343047142E0;2.931671143E0
2.226274688E1;2.251919270E0;-1.057123375E1;2.757478714E0
2.227465938E1;2.555341005E0;-1.078409767E1;2.041181326E0
2.228657031E1;2.951476097E0;-1.018489552E1;1.794971347E0
2.229848281E1;3.661356926E0;-9.413914680E0;1.886353254E0
2.231039375E1;4.483544827E0;-8.960002899E0;1.868846774E0
2.232230625E1;5.185735226E0;-8.692111015E0;1.731390834E0
2.233421719E1;5.606444836E0;-8.488891602E0;1.410768986E0
2.234613125E1;5.601905346E0;-8.107522964E0;1.022793412E0
2.235804062E1;5.480902195E0;-7.537559986E0;8.647856712E-1
2.236995156E1;4.960307121E0;-7.161507130E0;7.732121944E-1
2.238186250E1;4.353070259E0;-6.917624474E0;6.076579690E-1
2.239377500E1;3.357580662E0;-6.824844360E0;5.080495775E-2
2.240568750E1;2.513116837E0;-6.882602215E0;-5.892513394E-1
2.241759844E1;2.473325253E0;-6.952407360E0;-9.487838149E-1
2.242952656E1;2.747461319E0;-7.416413307E0;-8.749849200E-1
2.244142031E1;2.466755629E0;-8.391265869E0;-3.732656240E-1
2.245333281E1;2.806061745E0;-8.652233124E0;5.915114880E-1
2.246524531E1;3.381244898E0;-8.575178146E0;8.002475500E-1
2.247715625E1;4.100367069E0;-8.270567894E0;1.192791224E0
2.248906719E1;4.820878506E0;-8.423290253E0;1.511957526E0
2.250097969E1;5.937121868E0;-9.239501953E0;2.016521215E0
2.251289688E1;6.210884571E0;-1.028174591E1;2.193366528E0
2.252480313E1;5.926961422E0;-1.146947098E1;1.903687239E0
2.253671406E1;6.271505833E0;-1.242344570E1;1.282229185E0
2.254864062E1;6.878695011E0;-1.318086529E1;9.353092909E-1
2.256053750E1;7.423959732E0;-1.429933071E1;6.191692948E-1
2.257244844E1;7.281389713E0;-1.508129692E1;-7.293504477E-1
2.258436250E1;5.885560513E0;-1.461836338E1;-3.681698084E0
2.259627188E1;3.782321453E0;-1.325866795E1;-7.199087143E0
2.260818906E1;1.869344831E0;-1.221008396E1;-9.890198708E0
2.262009531E1;2.084401608E0;-1.158867359E1;-5.496349812E0
2.263200781E1;2.478525400E0;-1.283670425E1;-1.788085580E0
2.264391875E1;2.604747772E0;-1.398873615E1;2.458270639E-1
2.265583125E1;2.312319994E0;-1.313810539E1;1.256132364E0
2.266774219E1;3.615953445E0;-1.078664494E1;9.637140632E-1
2.267965469E1;5.561529160E0;-9.664597511E0;-8.628894687E-1
2.269156563E1;5.350140572E0;-9.330549240E0;-3.572819233E-1
2.270347656E1;5.064426422E0;-8.908489227E0;1.044369936E0
2.271538750E1;5.322703362E0;-9.268577576E0;4.750191867E-1
2.272730625E1;4.698161125E0;-1.034563255E1;2.004243612E0
2.273921094E1;3.493590355E0;-1.169490910E1;3.285811901E0
2.275112344E1;2.928645134E0;-1.292620945E1;8.217857480E-1
2.276303750E1;3.249017715E0;-1.298148632E1;-7.212589741E0
2.277494531E1;3.027391434E0;-1.184056282E1;-1.004387665E1
2.278685781E1;1.879659057E0;-1.099799538E1;-8.137451172E0
2.279876875E1;1.978204370E0;-9.960434914E0;-4.228112221E0
2.281067969E1;3.088922262E0;-9.871236801E0;-2.508069873E-1
2.282259219E1;4.637856007E0;-9.520064354E0;2.615186453E0
2.283450312E1;6.646179199E0;-8.561885834E0;5.068601608E0
2.284641563E1;6.012845993E0;-7.919329643E0;6.398293495E0
2.285833750E1;5.316459179E0;-7.695940971E0;2.377183676E0
2.287023750E1;4.195771694E0;-7.756772995E0;-2.012929916E0
2.288215000E1;2.704796553E0;-7.375195026E0;-5.013410568E0
2.289406094E1;9.915538430E-1;-6.723004341E0;-5.639695168E0
2.290599219E1;-1.053831801E-1;-6.149411201E0;-3.773079872E0
2.291788438E1;-7.700806260E-1;-5.859406471E0;-7.879700661E-1
2.292979688E1;-9.718543887E-1;-5.462170124E0;6.517878771E-1
2.294170781E1;-3.480594754E-1;-4.722141743E0;1.209167615E-1
2.295362031E1;1.123397708E0;-3.790749073E0;-6.252697110E-1
2.296553125E1;1.764555454E0;-3.686955929E0;3.007021546E-1
2.297744219E1;7.321468592E-1;-3.964539528E0;1.245904326E0
2.298935469E1;-9.527007490E-2;-3.018657446E0;5.841756463E-1
2.300126563E1;2.986048348E-2;-1.688410163E0;2.928108871E-1
2.301317813E1;7.566251755E-1;-1.039188862E0;3.543227017E-1
2.302509375E1;1.688352823E0;-2.318717241E0;1.478409886E0
2.303700313E1;3.018695831E0;-4.417972565E0;1.277814150E0
2.304891250E1;4.207751751E0;-5.781077862E0;-9.494925141E-1
2.306082500E1;5.414286137E0;-7.005558491E0;-1.835854769E0
2.307273594E1;6.067223072E0;-8.627850533E0;9.030258060E-1
2.308464688E1;6.245313644E0;-1.003186798E1;4.075046062E0
2.309655938E1;5.086060047E0;-1.090116405E1;4.656396389E0
2.310847031E1;4.412149906E0;-1.073803329E1;3.920706272E0
2.312038281E1;6.574937344E0;-1.121279430E1;2.452668190E0
2.313229375E1;8.694964409E0;-1.257522869E1;1.777014732E0
2.314421094E1;1.057697964E1;-1.516960430E1;8.888521791E-1
2.315611719E1;1.501128960E1;-1.701988983E1;-1.981288075E0
2.316802813E1;1.550793362E1;-1.506836796E1;-4.965019226E0
2.317993906E1;1.134236813E1;-1.087376499E1;-7.157648087E0
2.319185156E1;6.336111546E0;-8.121352196E0;-5.735310078E0
2.320376406E1;3.140876770E0;-6.851008415E0;-2.565827608E0
2.321567500E1;1.608558893E0;-6.858152390E0;-9.403275251E-1
2.322758594E1;1.271656275E0;-8.112063408E0;5.983588845E-2
2.323949844E1;1.634262919E0;-9.628952026E0;7.735474110E-1
2.325140938E1;2.173216820E0;-1.082838058E1;1.328925490E0
2.326332031E1;2.590363503E0;-1.156506634E1;1.750391245E0
2.327523281E1;2.579321384E0;-1.156695271E1;1.802345514E0
2.328714375E1;2.485516548E0;-1.075860310E1;1.128645897E0
2.329905625E1;2.583391666E0;-9.802292824E0;5.194076896E-1
2.331096875E1;3.188798904E0;-8.866092682E0;4.929661155E-1
2.332288438E1;4.067039967E0;-8.250448227E0;7.140658498E-1
2.333479062E1;4.797788620E0;-8.079261780E0;7.708371878E-1
2.334670156E1;5.248703003E0;-8.014331818E0;1.033471584E0
2.335861406E1;5.409277439E0;-7.843107700E0;1.344507098E0
2.337052500E1;5.472781181E0;-7.568080902E0;1.602391362E0
2.338243594E1;5.555505753E0;-7.347000599E0;1.956685305E0
2.339435625E1;5.589273453E0;-7.254746914E0;1.799280882E0
2.340625938E1;5.280057430E0;-7.451311111E0;1.376005173E0
2.341817188E1;4.575711727E0;-7.825610638E0;1.016999483E0
2.343008281E1;3.769593954E0;-8.038187027E0;6.156449914E-1
2.344199688E1;2.638841391E0;-8.065251350E0;4.536341727E-1
2.345390625E1;1.749816656E0;-8.105771065E0;-9.011775255E-3
2.346581875E1;1.200452805E0;-8.335020065E0;-6.312935352E-1
2.347772969E1;1.091554761E0;-8.425043106E0;-9.280213118E-1
2.348964062E1;1.336682916E0;-8.508015633E0;-5.141308308E-1
2.350155312E1;1.556106567E0;-8.929673195E0;3.400149643E-1
2.351346406E1;2.026911974E0;-9.412727356E0;1.093604207E0
2.352537500E1;2.715436459E0;-9.744601250E0;1.677186131E0
2.353728750E1;3.788507938E0;-9.812291145E0;1.827388763E0
2.354920000E1;4.930408001E0;-9.861630440E0;1.716910720E0
2.356111094E1;5.629342556E0;-9.809915543E0;1.027677655E0
2.357302188E1;5.464660168E0;-9.536767006E0;6.702806950E-1
2.358493438E1;5.926214218E0;-9.488259315E0;1.369263053E0
2.359684531E1;6.645470619E0;-9.912560463E0;1.717341661E0
2.360875781E1;6.757231712E0;-1.082110214E1;5.613732934E-1
2.362066875E1;5.534312248E0;-1.191658401E1;-1.507073402E0
2.363258125E1;3.718971014E0;-1.257500744E1;-3.128781080E0
2.364449219E1;2.120553970E0;-1.269286060E1;-4.082612038E0
2.365640312E1;9.592991471E-1;-1.257088947E1;-4.416966915E0
2.366831562E1;8.718724847E-1;-1.258905792E1;-3.232718229E0
2.368023281E1;1.284393430E0;-1.290060043E1;-1.344650745E0
2.369213750E1;1.978415012E0;-1.355966663E1;-6.038176641E-2
2.370405000E1;2.307627439E0;-1.400131035E1;4.659116268E-2
2.371596250E1;2.159014463E0;-1.330375481E1;-3.744914532E-1
2.372787344E1;3.685653210E0;-1.175835514E1;-1.303432107E0
2.373979062E1;6.613522530E0;-1.041824436E1;-4.814126492E0
2.375169531E1;6.930879116E0;-1.006759834E1;-3.758944511E0
2.376360781E1;5.560073853E0;-9.508926392E0;-5.030313134E-1
2.377551875E1;3.969165087E0;-9.782584190E0;1.317634463E0
2.378743125E1;2.594778299E0;-1.065466690E1;2.453951359E0
2.379934219E1;1.785011530E0;-1.177521133E1;3.744349718E0
2.381125312E1;2.653809786E0;-1.220507526E1;3.906896830E0
2.382316562E1;4.004350185E0;-1.218944645E1;1.358968019E0
2.383507656E1;5.517399311E0;-1.221090698E1;-5.478728294E0
2.384698906E1;5.544732094E0;-1.156693459E1;-8.548985481E0
2.385890156E1;4.124692440E0;-1.110852146E1;-7.302937508E0
2.387081406E1;2.966186047E0;-1.039637089E1;-3.723922014E0
2.388272344E1;3.674888849E0;-9.873869896E0;-3.109493494E0
2.389463438E1;4.085667133E0;-1.001396847E1;1.418554902E0
2.390654688E1;5.596542358E0;-9.420704842E0;4.300359726E0
2.391845781E1;6.413980007E0;-8.424774170E0;5.016025066E0
2.393037031E1;4.563769817E0;-7.804255009E0;2.487403154E0
2.394228125E1;3.339739084E0;-7.165347576E0;-1.631466508E0
2.395419219E1;2.832541704E0;-6.355418205E0;-3.693266869E0
2.396610469E1;2.047961712E0;-5.935331345E0;-2.991430521E0
2.397802031E1;1.366303802E0;-5.574726105E0;-1.795871615E0
2.398992969E1;5.024375916E-1;-5.457123280E0;-1.008389950E0
2.400183906E1;-2.537279129E-1;-5.417666435E0;-5.923829079E-1
2.401375156E1;-3.790979087E-1;-5.052158356E0;-2.451662570E-1
2.402566250E1;7.697837353E-1;-3.970496178E0;-6.211324930E-1
2.403758125E1;2.175975084E0;-3.354937553E0;-7.278851867E-1
2.404948594E1;2.263957024E0;-3.930570602E0;8.170069456E-1
2.406139844E1;1.347782373E0;-4.184192657E0;1.254963875E0
2.407330938E1;1.055929184E0;-3.462427378E0;8.649389148E-1
2.408522031E1;1.634741783E0;-3.065497637E0;9.048358798E-1
2.409713750E1;2.931403160E0;-3.901294231E0;8.665190339E-1
2.410904531E1;4.386282921E0;-5.460139751E0;2.905603349E-1
2.412095469E1;5.223314762E0;-6.320606232E0;-1.836745381E0
2.413286719E1;4.828424931E0;-6.842427254E0;-2.949924469E0
2.414477813E1;4.563137531E0;-7.119991779E0;-1.840374947E0
2.415669219E1;5.183274269E0;-7.742618561E0;2.196249068E-1
2.416860156E1;5.286282063E0;-9.603660583E0;3.138444185E0
2.418051250E1;3.750239372E0;-1.247324467E1;5.309189796E0
2.419242500E1;5.158068180E0;-1.394907951E1;5.855489731E0
2.420433594E1;8.050952911E0;-1.500535297E1;4.583938599E0
2.421624844E1;1.164560699E1;-1.703369141E1;2.811386585E0
2.422815938E1;1.311632729E1;-1.621735573E1;-1.275860429E0
2.424007031E1;1.067554379E1;-1.183369637E1;-4.662947178E0
2.425198594E1;7.109993458E0;-7.609586716E0;-5.713436604E0
2.426389375E1;4.618223667E0;-6.023275375E0;-4.691514492E0
2.427580625E1;3.070372105E0;-7.254641533E0;-2.324827433E0
2.428771719E1;2.115430355E0;-9.964792252E0;-1.120007560E-1
2.429962812E1;2.354572773E0;-1.169804096E1;7.004572153E-1
2.431154063E1;3.038357019E0;-1.220467281E1;1.235628247E0
2.432345156E1;2.976423502E0;-1.182711697E1;1.252378225E0
2.433536875E1;2.387986422E0;-1.121913338E1;3.163506389E-1
2.434727813E1;1.988011003E0;-1.020046806E1;-5.869337916E-1
2.435918594E1;1.710772038E0;-9.251156807E0;-6.338217854E-1
2.437109844E1;1.687500358E0;-8.483987808E0;-3.788968027E-1
2.438300938E1;1.940098286E0;-8.049785614E0;-1.336443275E-1
2.439492188E1;2.628297091E0;-7.718829632E0;4.228256047E-1
2.440683281E1;3.534291744E0;-7.669681549E0;1.329481125E0
2.441874844E1;4.106429100E0;-7.788165569E0;2.070811987E0
2.443065625E1;4.656789780E0;-7.756849766E0;2.317137241E0
2.444256875E1;5.049179554E0;-7.489043713E0;2.404697895E0
2.445447969E1;4.849235535E0;-6.831701279E0;2.259599686E0
2.446639219E1;4.423354626E0;-6.202141285E0;1.378600478E0
2.447830312E1;3.904770613E0;-5.901649952E0;2.748160362E-1
2.449021406E1;3.464869738E0;-5.846870422E0;-3.816070259E-1
2.450212656E1;2.971788645E0;-6.050645351E0;-4.936077893E-1
2.451403750E1;2.657966137E0;-6.706359863E0;-8.564442992E-1
2.452595000E1;2.383782148E0;-7.362610817E0;-1.120247006E0
2.453786094E1;2.252665997E0;-8.223603249E0;-9.208099842E-1
2.454977188E1;2.441415310E0;-9.308924675E0;-6.342910528E-1
2.456168438E1;2.657496929E0;-1.006460190E1;-5.598792434E-1
2.457359844E1;3.040693521E0;-1.036342716E1;9.193734732E-4
2.458550781E1;3.477654457E0;-1.040248013E1;3.855430782E-1
2.459742812E1;4.002501965E0;-1.034568024E1;1.121606946E0
