"Time (s)";"Gyroscope x (rad/s)";"Gyroscope y (rad/s)";"Gyroscope z (rad/s)"
1.407193700E-2;-1.011418328E-1;4.482180178E-1;1.213701963E-1
2.598443700E-2;-1.266934574E-1;4.727049768E-1;1.479864717E-1
3.789693700E-2;-2.352878302E-1;5.238082409E-1;1.479864717E-1
4.980631200E-2;-3.630459309E-1;4.652524292E-1;1.256287992E-1
6.171881200E-2;-5.014505386E-1;2.991668880E-1;8.623671532E-2
7.362975000E-2;-5.695881844E-1;1.873785406E-1;5.110324174E-2
8.554225000E-2;-4.684463739E-1;2.565808594E-1;4.684463516E-2
9.745318700E-2;-3.971147537E-1;1.096590385E-1;-1.809906401E-2
1.093641250E-1;-4.205370843E-1;3.726277873E-2;-8.730136603E-2
1.212828750E-1;-3.726277947E-1;1.714087874E-1;-6.068509817E-2
1.331875620E-1;-2.831971347E-1;2.778738737E-1;-8.517206647E-3
1.451000620E-1;-1.522450745E-1;1.746027321E-1;6.387905218E-3
1.570203750E-1;-4.045673087E-2;-4.258603230E-2;-2.448697016E-2
1.689297500E-1;3.513347730E-2;-2.459343374E-1;-5.429719388E-2
1.808375620E-1;7.346090674E-2;-4.354421794E-1;-8.517206460E-2
1.927469370E-1;4.258603230E-2;-5.344547033E-1;-1.234994978E-1
2.046578750E-1;-2.874557301E-2;-4.535412490E-1;-1.394692659E-1
2.165781870E-1;-1.266934574E-1;-3.108780384E-1;-1.224348471E-1
2.284797500E-1;-2.853264213E-1;-1.330813617E-1;-7.026695460E-2
2.403922500E-1;-4.045673311E-1;1.064650831E-3;-2.981022373E-2
2.523031870E-1;-4.822868407E-1;4.897394031E-2;-4.045673087E-2
2.642156870E-1;-4.780282378E-1;-5.962044746E-2;-1.000771821E-1
2.761266250E-1;-4.237310290E-1;-1.948311031E-1;-1.330813617E-1
2.880375620E-1;-3.055547774E-1;-3.044901490E-1;-1.373399645E-1
2.999500620E-1;-1.969604045E-1;-3.343003690E-1;-1.213701963E-1
3.118610000E-1;-1.330813617E-1;-3.140719831E-1;-7.878416032E-2
3.237735000E-1;-1.309520602E-1;-2.981022298E-1;-1.703441329E-2
3.356844370E-1;-1.724734306E-1;-2.608394623E-1;5.003859103E-2
3.475953750E-1;-2.512575984E-1;-2.544515431E-1;1.309520602E-1
3.595125620E-1;-3.087487519E-1;-3.215245605E-1;2.288999259E-1
3.714203750E-1;-3.321710527E-1;-4.226663709E-1;2.927789688E-1
3.833328750E-1;-3.098133802E-1;-5.791700482E-1;2.906496823E-1
3.952547500E-1;-2.661627233E-1;-6.888290644E-1;3.108780384E-1
4.071547500E-1;-1.980250627E-1;-7.197039723E-1;3.673045337E-1
4.190656870E-1;-8.836601675E-2;-7.175746560E-1;4.269249737E-1
4.309781870E-1;1.384046115E-2;-7.090574503E-1;4.790928662E-1
4.428891250E-1;1.032711342E-1;-7.079927921E-1;5.749114752E-1
4.548000620E-1;1.362753063E-1;-7.431262732E-1;6.654067636E-1
4.667219370E-1;2.022836544E-2;-7.750658393E-1;7.165099978E-1
4.786235000E-1;-2.118655145E-1;-8.155225515E-1;7.079927921E-1
4.905360000E-1;-4.514119625E-1;-8.655611277E-1;6.803118587E-1
5.024469370E-1;-6.174975038E-1;-9.443452954E-1;7.101221085E-1
5.143594370E-1;-6.089802980E-1;-9.879959822E-1;7.782597542E-1
5.262813120E-1;-4.982565939E-1;-1.040163875E0;8.538499475E-1
5.381828750E-1;-3.044901490E-1;-1.183891773E0;9.198583364E-1
5.500938120E-1;-1.852492392E-1;-1.294615388E0;9.092118144E-1
5.620047500E-1;-2.853264213E-1;-1.279710293E0;8.304276466E-1
5.739172500E-1;-4.588645101E-1;-1.166857362E0;7.559021115E-1
5.858281870E-1;-6.164328456E-1;-1.001836419E0;7.282211781E-1
5.977391250E-1;-7.122514248E-1;-8.165872097E-1;7.463202477E-1
6.096516250E-1;-7.090574503E-1;-6.313379407E-1;7.622900009E-1
6.215625620E-1;-5.749114752E-1;-5.770407319E-1;7.676132321E-1
6.334750620E-1;-3.715631366E-1;-7.101221085E-1;8.527853489E-1
6.453860000E-1;-1.394692659E-1;-1.102978230E0;1.023129463E0
6.572985000E-1;-6.813765317E-2;-1.466024160E0;1.214766622E0
6.692094370E-1;-1.809906363E-1;-1.583135843E0;1.414920926E0
6.811203750E-1;-3.843389452E-1;-1.420244217E0;1.497963786E0
6.930328750E-1;-5.419072509E-1;-1.120012641E0;1.495834470E0
7.049438120E-1;-5.812993646E-1;-7.729365230E-1;1.542679071E0
7.168547500E-1;-5.280668139E-1;-5.908812284E-1;1.621463180E0
7.287672500E-1;-5.089030862E-1;-4.375714958E-1;1.638497591E0
7.406781870E-1;-5.962044597E-1;-1.511804163E-1;1.487317204E0
7.525938120E-1;-6.739239693E-1;3.832742944E-2;1.312714458E0
7.645016250E-1;-6.686007380E-1;1.309520602E-1;1.179633141E0
7.764125620E-1;-5.461658835E-1;8.304276317E-2;1.139176369E0
7.883250620E-1;-3.577226698E-1;-4.790928960E-2;1.133853197E0
8.002360000E-1;-8.943066746E-2;-2.108008713E-1;1.173245192E0
8.121516250E-1;2.086715698E-1;-4.439594150E-1;1.245641470E0
8.240594370E-1;4.428947568E-1;-7.441909313E-1;1.353171229E0
8.359735000E-1;4.971919358E-1;-1.007159710E0;1.472412109E0
8.478828750E-1;3.428175747E-1;-1.105107546E0;1.551196218E0
8.597953750E-1;6.174974889E-2;-1.083814502E0;1.559713483E0
8.717063120E-1;-1.139176413E-1;-9.965131879E-1;1.566101432E0
8.836172500E-1;-1.756673902E-1;-9.464746118E-1;1.565036774E0
8.955297500E-1;-8.943066746E-2;-9.997071624E-1;1.608687401E0
9.074406870E-1;1.533097178E-1;-1.263740540E0;1.769449711E0
9.193531870E-1;4.599291682E-1;-1.665113926E0;1.947246432E0
9.312719370E-1;7.718718648E-1;-1.804583192E0;2.085650921E0
9.431860000E-1;1.157275438E0;-1.720475793E0;2.250671864E0
9.550875620E-1;1.384046078E0;-1.578877211E0;2.198503971E0
9.670000620E-1;1.440472603E0;-1.448989749E0;2.027095318E0
9.789110000E-1;1.412791610E0;-1.553325534E0;1.978121281E0
9.908235000E-1;1.402145147E0;-1.859945059E0;2.067551851E0
1.002736000E0;1.447925091E0;-2.208085775E0;2.198503971E0
1.014645375E0;1.551196218E0;-2.379494667E0;2.235766649E0
1.026557875E0;1.652338147E0;-2.251736641E0;2.150594711E0
1.038468812E0;1.717281818E0;-1.751350641E0;1.957892895E0
1.050381312E0;1.788613439E0;-1.178568482E0;1.741768718E0
1.062292250E0;1.928082705E0;-7.026695609E-1;1.496899128E0
1.074203187E0;2.064357996E0;-7.090574503E-1;1.288227558E0
1.086115687E0;2.158047199E0;-1.007159710E0;1.122141957E0
1.098026625E0;2.231508255E0;-1.170051217E0;9.645736814E-1
1.109939125E0;2.268770933E0;-1.010353684E0;8.581085801E-1
1.121851625E0;2.261318445E0;-7.218332887E-1;7.580313683E-1
1.133762562E0;2.235766649E0;-4.077612758E-1;5.898165703E-1
1.145673500E0;2.155917883E0;-2.629687488E-1;4.609938264E-1
1.157584437E0;2.005802155E0;-2.863910794E-1;4.418300986E-1
1.169501625E0;1.876979470E0;-4.567352235E-1;5.717175007E-1
1.181407875E0;1.805647850E0;-8.070053458E-1;7.239625454E-1
1.193321937E0;1.704506040E0;-1.201990843E0;8.964360356E-1
1.205231312E0;1.615075350E0;-1.423438191E0;1.002901077E0
1.217142250E0;1.484123230E0;-1.593782306E0;9.571211338E-1
1.229054750E0;1.116818786E0;-1.561842799E0;7.090574503E-1
1.240965687E0;-6.281439960E-2;-7.356737256E-1;6.920230389E-2
1.252878187E0;-1.186021090E0;3.406882659E-2;-7.292858362E-1
1.264789125E0;-1.017806172E0;-2.949082851E-1;-9.134704471E-1
1.276700062E0;-5.461658835E-1;-7.324797511E-1;-8.708843589E-1
1.288612562E0;-2.991668880E-1;-6.025923491E-1;-6.249500513E-1
1.300523500E0;-9.581857920E-2;-6.558248997E-1;-3.502701223E-1
1.312434437E0;1.767320335E-1;-8.953713775E-1;2.555162087E-2
1.324346937E0;4.269249737E-1;-1.229671717E0;4.908040464E-1
1.336257875E0;5.568124056E-1;-1.542679071E0;8.261690736E-1
1.348190687E0;6.654067636E-1;-1.809906483E0;8.453327417E-1
1.360081312E0;6.228207350E-1;-1.852492452E0;7.314151525E-1
1.371995375E0;6.505016685E-1;-1.690665483E0;7.995527983E-1
1.383904750E0;8.187164664E-1;-1.412791610E0;1.110430837E0
1.395817250E0;1.054004312E0;-1.480929375E0;1.431955338E0
1.407728187E0;1.298874021E0;-2.016448736E0;1.747092009E0
1.419639125E0;1.376593590E0;-2.434856415E0;1.759867787E0
1.431573500E0;1.049745679E0;-2.398658276E0;1.468153477E0
1.443462562E0;8.016820550E-1;-2.054776192E0;1.189214945E0
1.455375062E0;1.048681021E0;-1.727928281E0;1.062521577E0
1.467303187E0;1.194538236E0;-1.797130585E0;8.517206460E-2
1.479198500E0;1.014612198E0;-1.795001268E0;-6.185621619E-1
1.491109437E0;9.336987734E-1;-1.297809362E0;-2.959729433E-1
1.503025062E0;5.184849501E-1;-7.484495640E-1;-1.171115935E-1
1.514932875E0;6.057863235E-1;6.707300246E-2;5.301961303E-1
1.526843812E0;2.161241174E-1;-6.313379407E-1;6.174975038E-1
1.538767250E0;-1.682148278E-1;-1.226477742E0;1.055068970E0
1.550667250E0;-2.480636388E-1;-1.417050242E0;1.377658129E0
1.562579750E0;1.171115879E-2;-1.191344261E0;1.389369369E0
1.574490687E0;7.058635354E-1;-9.539271593E-1;1.295680046E0
1.586401625E0;1.159404755E0;-2.512575984E-1;1.249900103E0
1.598315687E0;1.431955338E0;8.133932352E-1;1.224348426E0
1.610225062E0;1.751350641E0;8.964360356E-1;1.412791610E0
1.622137562E0;2.064357996E0;1.543743759E-1;1.866332889E0
1.634048500E0;2.008996248E0;-5.908812284E-1;2.525351763E0
1.645959437E0;1.579941869E0;-9.517978430E-1;2.823454142E0
1.657871937E0;1.320167065E0;-1.920630097E0;3.041707516E0
1.669782875E0;1.002901077E0;-3.049160004E0;3.604907751E0
1.681693812E0;8.038113713E-1;-4.474727631E0;4.188336372E0
1.693606312E0;1.006095052E0;-6.046152115E0;4.474727631E0
1.705518812E0;1.552260876E0;-7.040535927E0;4.400201797E0
1.717429750E0;2.257059813E0;-7.992333889E0;4.474727631E0
1.729340687E0;2.876686573E0;-8.394771576E0;4.444917202E0
1.741251625E0;3.681562662E0;-7.371642590E0;4.267120361E0
1.753164125E0;5.477628708E0;-2.079262972E0;4.099970341E0
1.765078187E0;6.378323078E0;1.117883325E0;4.211758614E0
1.776987562E0;5.938622475E0;2.918207884E0;4.713209152E0
1.788900062E0;4.225599289E0;4.690851688E0;5.205078125E0
1.800809437E0;2.327326775E0;5.650102139E0;5.378615856E0
1.812721937E0;9.592503905E-1;5.834286690E0;5.309413910E0
1.824646937E0;3.939208016E-2;5.619226933E0;4.833514690E0
1.836548500E0;-4.077612758E-1;5.131617069E0;3.749700308E0
1.848456312E0;-7.037342191E-1;4.487503529E0;2.374171257E0
1.860367250E0;-8.272337317E-1;3.873199701E0;1.030582070E0
1.872279750E0;-4.801575243E-1;2.228314161E0;-2.555162087E-2
1.884193812E0;2.725506127E-1;-3.758217394E-1;1.128529906E-1
1.896112562E0;4.609938264E-1;-1.386175394E0;8.410741389E-2
1.908014125E0;2.171887755E-1;-1.377658129E0;-3.523994386E-1
1.919926625E0;-1.575683206E-1;-8.975006342E-1;-5.866225958E-1
1.931837562E0;-4.833514690E-1;-3.012961745E-1;-6.132388711E-1
1.943756312E0;-5.738468170E-1;1.011418328E-1;-4.524766207E-1
1.955661000E0;-5.206142664E-1;3.343003690E-1;-1.937664598E-1
1.967573500E0;-3.917915225E-1;5.589416623E-1;3.832742944E-2
1.979484437E0;-2.363524884E-1;7.665486336E-1;1.405339092E-1
1.991396937E0;-7.239625603E-2;8.634318113E-1;2.001543641E-1
2.003307875E0;8.943066746E-2;7.825183868E-1;2.842617631E-1
2.015218812E0;2.406110913E-1;5.844933391E-1;3.811450005E-1
2.027131312E0;3.098133802E-1;4.024380147E-1;4.450240433E-1
2.039042250E0;3.012961745E-1;2.810678184E-1;4.567352235E-1
2.050954750E0;1.980250627E-1;3.598519862E-1;4.184077680E-1
2.062867250E0;6.387905031E-2;5.706528425E-1;2.991668880E-1
2.074781312E0;-8.836601675E-2;8.772723079E-1;1.703441329E-2
2.086689125E0;-6.281439960E-2;8.251044154E-1;-3.002315462E-1
2.098600062E0;9.901253134E-2;4.503473043E-1;-6.377258301E-1
2.110512562E0;3.066194355E-1;-2.129301615E-2;-9.092118144E-1
2.122423500E0;3.843389452E-1;-2.086715698E-1;-9.219876528E-1
2.134336000E0;3.523994386E-1;-2.193180770E-1;-7.761304379E-1
2.146246937E0;2.278352827E-1;-1.831199378E-1;-5.823640227E-1
2.158157875E0;7.026695460E-2;-1.213701963E-1;-3.534640670E-1
2.170070375E0;-7.346090674E-2;8.197811246E-2;-2.118655145E-1
2.181981312E0;-1.426632106E-1;3.673045337E-1;-1.788613349E-1
2.193893812E0;-1.394692659E-1;6.579542160E-1;-1.628915817E-1
2.205803187E0;-6.920230389E-2;8.016820550E-1;-1.277581006E-1
2.217715687E0;1.490511186E-2;6.920230389E-1;-1.128529906E-1
2.229628187E0;8.517206460E-2;3.502701223E-1;-7.878416032E-2
2.241539125E0;1.128529906E-1;-6.174974889E-2;-2.768092230E-2
2.253450062E0;9.901253134E-2;-3.715631366E-1;-2.129301662E-3
2.265361000E0;6.494370103E-2;-5.632002950E-1;-1.916371472E-2
2.277273500E0;5.429719388E-2;-5.930105448E-1;-3.087487444E-2
2.289186000E0;6.920230389E-2;-5.291314721E-1;-4.045673087E-2
2.301103187E0;1.064650863E-1;-3.609166443E-1;-4.790928960E-2
2.313009437E0;1.501157731E-1;-1.809906363E-1;-5.003859103E-2
2.324918812E0;1.799259931E-1;-2.235766686E-2;-4.790928960E-2
2.336831312E0;1.841845959E-1;5.110324174E-2;-4.471533373E-2
2.348742250E0;1.554390192E-1;4.684463516E-2;-3.406882659E-2
2.360654750E0;1.266934574E-1;5.323254038E-3;-1.490511186E-2
2.372567250E0;1.011418328E-1;-2.555162087E-2;1.277581044E-2
2.384478187E0;9.794788063E-2;-1.809906401E-2;4.365068302E-2
2.396390687E0;1.128529906E-1;3.300417587E-2;8.304276317E-2
2.408300062E0;1.362753063E-1;1.128529906E-1;1.139176413E-1
2.420212562E0;1.554390192E-1;1.905725002E-1;1.309520602E-1
2.432125062E0;1.735380888E-1;2.438050359E-1;1.288227588E-1
2.444036000E0;1.895078421E-1;2.778738737E-1;1.224348471E-1
2.455946937E0;2.001543641E-1;2.927789688E-1;1.032711342E-1
2.467859437E0;2.044129670E-1;3.119426966E-1;8.410741389E-2
2.479773500E0;1.990897059E-1;3.545287251E-1;7.559020817E-2
2.491693812E0;1.777966917E-1;4.184077680E-1;7.452555746E-2
2.503593812E0;1.533097178E-1;4.684463739E-1;8.410741389E-2
2.515504750E0;1.203055456E-1;4.971919358E-1;1.075297371E-1
2.527417250E0;8.304276317E-2;4.876100719E-1;1.203055456E-1
2.539328187E0;5.536184460E-2;4.524766207E-1;1.309520602E-1
2.551239125E0;3.832742944E-2;4.141491652E-1;1.384046078E-1
2.563151625E0;4.471533373E-2;4.066966176E-1;1.447925121E-1
2.575062562E0;6.174974889E-2;4.418300986E-1;1.437278688E-1
2.586975062E0;7.984881103E-2;5.206142664E-1;1.384046078E-1
2.598887562E0;9.368927032E-2;6.100449562E-1;1.352106631E-1
2.610798500E0;9.688322991E-2;6.973463297E-1;1.490511149E-1
2.622718812E0;1.149822921E-1;7.878416181E-1;1.692794859E-1
2.634620375E0;1.245641485E-1;8.432034850E-1;1.831199378E-1
2.646532875E0;9.049531817E-2;8.389448524E-1;2.225120217E-1
2.658445375E0;3.726277873E-2;7.793244123E-1;2.448696941E-1
2.670357875E0;3.193952609E-3;7.122514248E-1;2.523222566E-1
2.682267250E0;0.000000000E0;7.324797511E-1;2.512575984E-1
2.694179750E0;1.277581044E-2;8.080700040E-1;2.448696941E-1
2.706090687E0;3.300417587E-2;9.539271593E-1;2.438050359E-1
2.718003187E0;4.897394031E-2;1.120012641E0;2.406110913E-1
2.729912562E0;7.665485889E-2;1.286098242E0;2.384817898E-1
2.741825062E0;8.304276317E-2;1.405339122E0;2.406110913E-1
2.753737562E0;1.064650808E-2;1.355300546E0;2.448696941E-1
2.765648500E0;-1.107236892E-1;1.189214945E0;2.257059813E-1
2.777578187E0;-2.033483088E-1;1.027388096E0;1.777966917E-1
2.789471937E0;-2.693566680E-1;8.687551022E-1;6.174974889E-2
2.801384437E0;-2.842617631E-1;7.974234819E-1;-1.075297371E-1
2.813295375E0;-2.480636388E-1;8.304276466E-1;-3.438822329E-1
2.825206312E0;-1.916371584E-1;8.368155360E-1;-5.493598580E-1
2.837121937E0;-2.033483088E-1;6.473076940E-1;-6.462430358E-1
2.849029750E0;-3.108780384E-1;2.938436270E-1;-5.791700482E-1
2.860942250E0;-4.854807854E-1;5.429719388E-2;-3.896622062E-1
2.872853187E0;-7.761304379E-1;3.193952609E-3;-2.587101460E-1
2.884764125E0;-1.094461083E0;-6.281439960E-2;-3.364296556E-1
2.896676625E0;-1.390434027E0;-3.215245605E-1;-3.162012994E-1
2.908587562E0;-1.563972116E0;-6.526309848E-1;-1.863138974E-1
2.920500062E0;-1.621463180E0;-9.752201438E-1;-1.107236892E-1
2.932411000E0;-1.553325534E0;-1.158340096E0;-1.746027321E-1
2.944323500E0;-1.385110736E0;-1.077426672E0;-3.332357109E-1
2.956234437E0;-1.228607059E0;-6.888290644E-1;-4.801575243E-1
2.968145375E0;-1.157275438E0;-1.809906363E-1;-5.610709786E-1
2.980057875E0;-1.158340096E0;3.140719831E-1;-6.164328456E-1
2.991968812E0;-1.203055501E0;5.674588680E-1;-6.686007380E-1
3.003879750E0;-1.271193147E0;6.728593111E-1;-6.824411750E-1
3.015800062E0;-1.334007502E0;6.483723521E-1;-6.292086244E-1
3.027704750E0;-1.335072160E0;5.174202919E-1;-5.610709786E-1
3.039618812E0;-1.217960596E0;3.193952441E-1;-4.758989215E-1
3.051526625E0;-1.017806172E0;1.660855263E-1;-3.726277947E-1
3.063442250E0;-7.782597542E-1;1.203055456E-1;-3.247185051E-1
3.075356312E0;-6.632774472E-1;2.480636388E-1;-3.641105890E-1
3.087262562E0;-5.940751433E-1;4.790928662E-1;-4.535412490E-1
3.099173500E0;-5.259374976E-1;6.473076940E-1;-5.099677444E-1
3.111084437E0;-4.663170576E-1;7.835830450E-1;-5.206142664E-1
3.122996937E0;-4.620584548E-1;8.719490170E-1;-4.908040464E-1
3.134909437E0;-4.673817158E-1;7.952941656E-1;-4.152138233E-1
3.146818812E0;-4.705756605E-1;5.823640227E-1;-3.034254909E-1
3.158732875E0;-4.844161272E-1;4.066966176E-1;-2.161241174E-1
3.170642250E0;-4.993212521E-1;2.512575984E-1;-1.234994978E-1
3.182554750E0;-4.982565939E-1;2.257059813E-1;-5.216789246E-2
3.194465687E0;-4.833514690E-1;3.704984784E-1;-1.384046115E-2
3.206376625E0;-4.631231129E-1;6.473076940E-1;-1.596976258E-2
3.218289125E0;-4.482180178E-1;1.002901077E0;-6.600835174E-2
3.230200062E0;-4.247956872E-1;1.229671717E0;-1.000771821E-1
3.242114125E0;-3.662398756E-1;1.226477742E0;-9.581857920E-2
3.254026625E0;-3.002315462E-1;1.093396425E0;-1.171115935E-1
3.265942250E0;-1.884431988E-1;8.730136752E-1;-1.352106631E-1
3.277846937E0;-8.304276317E-2;7.143807411E-1;-1.330813617E-1
3.289757875E0;8.517206647E-3;6.803118587E-1;-1.075297371E-1
3.301670375E0;8.517206460E-2;6.941523552E-1;-1.384046078E-1
3.313587562E0;1.341460049E-1;6.611481905E-1;-1.958957613E-1
3.325493812E0;1.533097178E-1;5.887519121E-1;-2.235766798E-1
3.337404750E0;2.001543641E-1;5.131617188E-1;-2.214473784E-1
3.349315687E0;3.311064243E-1;5.078384280E-1;-2.022836655E-1
3.361228187E0;5.387133360E-1;5.333900452E-1;-1.522450745E-1
3.373140687E0;7.143807411E-1;4.748342633E-1;-9.262461960E-2
3.385050062E0;7.612253428E-1;3.885975480E-1;-3.939208016E-2
3.396962562E0;7.207686305E-1;3.023608327E-1;6.068509817E-2
3.408873500E0;6.409198046E-1;2.821324766E-1;1.554390192E-1
3.420786000E0;5.120970607E-1;3.673045337E-1;1.980250627E-1
3.432696937E0;4.130845368E-1;6.153681874E-1;2.139948159E-1
3.444631312E0;3.428175747E-1;9.124057889E-1;2.118655145E-1
3.456520375E0;3.183306158E-1;1.175374508E0;2.001543641E-1
3.468431312E0;4.375714958E-1;1.245641470E0;2.235766798E-1
3.480343812E0;6.164328456E-1;1.154081464E0;2.704213262E-1
3.492256312E0;7.197039723E-1;9.006946087E-1;3.034254909E-1
3.504167250E0;7.239625454E-1;4.471533597E-1;3.108780384E-1
3.516078187E0;7.026695609E-1;-9.688322991E-2;3.225892186E-1
3.527990687E0;7.175746560E-1;-7.282211781E-1;3.534640670E-1
3.539901625E0;7.090574503E-1;-9.326341152E-1;3.523994386E-1
3.551818812E0;7.346090674E-1;-5.930105448E-1;3.523994386E-1
3.563725062E0;9.816080928E-1;5.376486778E-1;3.545287251E-1
3.575637562E0;1.113624811E0;1.879108787E0;3.641105890E-1
3.587548500E0;7.047988772E-1;2.339037895E0;3.502701223E-1
3.599459437E0;4.577998444E-2;1.999414325E0;2.246413231E-1
3.611371937E0;-4.109552205E-1;1.698118091E0;6.813765317E-2
3.623282875E0;-6.419844627E-1;1.357429862E0;-8.517206647E-3
3.635193812E0;-6.036570072E-1;9.517978430E-1;-3.406882659E-2
3.647106312E0;-3.619812727E-1;5.238082409E-1;-3.619812801E-2
3.659017250E0;-5.110324174E-2;5.876872540E-1;-5.749114603E-2
3.670943812E0;1.958957613E-1;1.356365204E0;-1.394692659E-1
3.682851625E0;1.895078421E-1;2.111202717E0;-2.299645841E-1
3.694753187E0;-1.384046078E-1;2.198503971E0;-3.577226698E-1
3.706664125E0;-5.653296113E-1;1.439407945E0;-4.439594150E-1
3.718575062E0;-9.400866628E-1;1.054004356E-1;-3.949854672E-1
3.730504750E0;-1.045487165E0;-5.323254466E-1;-3.162012994E-1
3.742398500E0;-9.965131879E-1;-4.322482347E-1;-2.917143404E-1
3.754314125E0;-7.569667697E-1;2.725506127E-1;-2.267706245E-1
3.766221937E0;-5.344547033E-1;8.591732383E-1;-1.341460049E-1
3.778132875E0;-4.737696350E-1;1.056133628E0;-1.256287992E-1
3.790051625E0;-5.600063205E-1;8.879188299E-1;-8.304276317E-2
3.801956312E0;-7.420616150E-1;6.728593111E-1;-1.171115879E-2
3.813868812E0;-9.102764726E-1;3.949854672E-1;5.216789246E-2
3.825779750E0;-8.783369660E-1;5.536184460E-2;1.277581006E-1
3.837690687E0;-5.568124056E-1;-5.120970607E-1;2.427403927E-1
3.849604750E0;-1.884431988E-1;-9.326341152E-1;3.151366413E-1
3.861518812E0;1.000771821E-1;-1.057198286E0;3.076840937E-1
3.873426625E0;2.171887755E-1;-4.152138233E-1;2.246413231E-1
3.885337562E0;1.650208831E-1;1.079555988E0;4.471533373E-2
3.897250062E0;-1.384046115E-2;2.474248648E0;-1.096590385E-1
3.909165687E0;-2.938436270E-1;2.710601091E0;-1.384046078E-1
3.921084437E0;-6.015277505E-1;1.776902199E0;-1.171115879E-2
3.932993812E0;-6.270793676E-1;5.152910352E-1;1.171115935E-1
3.944895375E0;-3.076840937E-1;-3.768863976E-1;1.671501845E-1
3.956807875E0;4.971919358E-1;9.709615707E-1;2.193180770E-1
3.968718812E0;1.308455825E0;3.719890118E0;-7.665485889E-2
3.980631312E0;5.440365672E-1;5.248728752E0;-5.195496082E-1
3.992542250E0;-6.760532856E-1;5.739532471E0;-5.695881844E-1
4.004454750E0;-1.062521577E0;5.725692272E0;-3.704984784E-1
4.016365687E0;-8.644964695E-1;4.489632607E0;-1.181762442E-1
4.028278187E0;1.054004356E-1;2.911819935E0;-4.258603323E-3
4.040189125E0;5.568124056E-1;1.427696824E0;2.278352827E-1
4.052100062E0;3.662398756E-1;-7.984881103E-2;6.281439662E-1
4.064012562E0;1.682148278E-1;-1.306326628E0;8.868541718E-1
4.075923500E0;2.789385319E-1;-2.417822123E0;1.019935489E0
4.087839125E0;5.387133360E-1;-2.736152649E0;8.921774030E-1
4.099745375E0;7.505788207E-1;-2.847940922E0;6.100449562E-1
4.111657875E0;9.454099536E-1;-3.176918030E0;3.555933833E-1
4.123570375E0;1.098719716E0;-3.664528131E0;4.301189482E-1
4.135481312E0;9.464746118E-1;-4.770700455E0;7.292858362E-1
4.147392250E0;4.961272776E-1;-5.421202183E0;8.634318113E-1
4.159304750E0;5.216789246E-2;-5.489339828E0;9.539271593E-1
4.171215687E0;-2.427403927E-1;-4.068030834E0;1.010353684E0
4.183128187E0;1.011418328E-1;-1.501157731E-1;9.336987734E-1
4.195039125E0;4.833514690E-1;3.766734600E0;7.388677001E-1
4.206957875E0;2.629687488E-1;4.245827675E0;5.120970607E-1
4.218862562E0;3.619812801E-2;3.761411428E0;2.225120217E-1
4.230773500E0;-6.068509817E-2;2.993798256E0;-5.003859103E-2
4.242684437E0;2.448697016E-2;2.358201504E0;-1.916371584E-1
4.254596937E0;8.836601675E-2;1.967474699E0;-1.054004356E-1
4.266507875E0;2.981022373E-2;1.851427794E0;-4.471533373E-2
4.278429750E0;-1.362753063E-1;1.883367300E0;-2.129301727E-1
4.290331312E0;-3.034254909E-1;1.964280844E0;-4.514119625E-1
4.302243812E0;-4.141491652E-1;1.874850154E0;-6.941523552E-1
4.314154750E0;-5.440365672E-1;1.561842799E0;-8.847248554E-1
4.326068812E0;-6.930876970E-1;1.397886515E0;-1.017806172E0
4.337978187E0;-8.506560326E-1;1.592717648E0;-1.009289026E0
4.349889125E0;-9.177290201E-1;1.837587357E0;-9.251815677E-1
4.361801625E0;-7.910355926E-1;1.942987800E0;-8.187164664E-1
4.373712562E0;-5.110324025E-1;2.117590427E0;-7.846476436E-1
4.385625062E0;-2.214473784E-1;2.492347717E0;-7.590960264E-1
4.397536000E0;2.768092230E-2;2.816001415E0;-7.079927921E-1
4.409448500E0;2.246413231E-1;2.938436270E0;-6.462430358E-1
4.421359437E0;2.970375717E-1;2.777673960E0;-6.068509817E-1
4.433270375E0;3.236538470E-1;2.241090059E0;-5.461658835E-1
4.445184437E0;2.863910794E-1;9.954485297E-1;-4.322482347E-1
4.457101625E0;1.128529906E-1;-5.802347064E-1;-3.673045337E-1
4.469014125E0;-1.788613349E-1;-1.210507989E0;-3.832743168E-1
4.480917250E0;-4.567352235E-1;-4.961272776E-1;-3.619812727E-1
4.492829750E0;-7.207686305E-1;1.028452754E0;-2.895850241E-1
4.504746937E0;-7.516434789E-1;1.864203572E0;-2.565808594E-1
4.516657875E0;-5.898165703E-1;1.962151527E0;-2.171887755E-1
4.528564125E0;-3.928561509E-1;1.670437217E0;-1.107236892E-1
4.540475062E0;-2.831971347E-1;1.314843774E0;2.555162087E-2
4.552387562E0;-2.374171317E-1;7.548374534E-1;2.012190074E-1
4.564298500E0;-2.565808594E-1;2.001543641E-1;2.959729433E-1
4.576209437E0;-4.141491652E-1;-1.533097178E-1;3.673045337E-1
4.588121937E0;-7.346090674E-1;1.809906401E-2;4.035026729E-1
4.600032875E0;-1.050810337E0;6.036570072E-1;3.130073547E-1
4.611943812E0;-1.198796868E0;1.168986678E0;1.692794859E-1
4.623865687E0;-1.180697799E0;1.407468438E0;4.258603230E-2
4.635767250E0;-1.043357849E0;1.434084654E0;-1.937664598E-1
4.647678187E0;-8.261690736E-1;1.378722787E0;-4.695110321E-1
4.659590687E0;-4.844161272E-1;1.171115875E0;-6.866998076E-1
4.671503187E0;-7.133160532E-2;7.143807411E-1;-7.250272036E-1
4.683420375E0;3.406882584E-1;3.832742944E-2;-6.632774472E-1
4.695325062E0;7.356737256E-1;-7.058635354E-1;-5.951398015E-1
4.707240687E0;8.421388268E-1;-8.794015646E-1;-5.749114752E-1
4.719148500E0;6.632774472E-1;-3.193952516E-2;-6.441137791E-1
4.731059437E0;1.756673902E-1;1.732186913E0;-6.238853931E-1
4.742971937E0;-4.247956872E-1;2.605200529E0;-5.504244566E-1
4.754882875E0;-6.025923491E-1;2.299645901E0;-4.577998519E-1
4.766795375E0;-5.589416623E-1;1.480929375E0;-2.587101460E-1
4.778706312E0;-4.077612758E-1;4.652524292E-1;-1.117883399E-1
4.790618812E0;-2.235766798E-1;-6.324025989E-1;-1.618269235E-1
4.802529750E0;-8.943066746E-2;-1.200926185E0;-1.767320335E-1
4.814451625E0;8.091346174E-2;-1.916371465E0;-5.855579674E-2
4.826353187E0;4.205370843E-1;-2.682920218E0;1.469218135E-1
4.838264125E0;7.016049027E-1;-2.760639668E0;2.778738737E-1
4.850176625E0;8.868541718E-1;-2.047323465E0;3.907268643E-1
4.862087562E0;1.054004312E0;-1.392563343E0;4.652524292E-1
4.874011000E0;1.270128489E0;-6.281439662E-1;4.620584548E-1
4.885911000E0;1.552260876E0;2.938436270E-1;4.482180178E-1
4.897823500E0;1.944052458E0;2.400787592E0;4.546059072E-1
4.909734437E0;1.944052458E0;6.120677471E0;2.267706245E-1
4.921645375E0;1.353171229E0;6.907454491E0;-1.075297371E-1
4.933556312E0;4.556705654E-1;5.575576305E0;-3.885975480E-1
4.945468812E0;-7.282211781E-1;2.324132681E0;-4.237310290E-1
4.957381312E0;-1.217960596E0;-1.038034558E0;-1.628915817E-1
4.969292250E0;-1.063586235E0;-3.100263357E0;1.054004356E-1
4.981204750E0;-5.812993646E-1;-4.294801712E0;3.002315462E-1
4.993115687E0;-9.155996889E-2;-4.638683796E0;3.896622062E-1
5.005028187E0;4.492826462E-1;-4.310771465E0;3.364296556E-1
5.016937562E0;1.147693634E0;-3.111974478E0;1.969604045E-1
5.028850062E0;1.619333982E0;-1.413856268E0;1.043357849E-1
5.040762562E0;1.457507014E0;8.517206647E-3;1.511804163E-1
5.052673500E0;8.432034850E-1;1.310585141E0;1.809906363E-1
5.064584437E0;1.437278688E-1;2.449761629E0;7.984881103E-2
5.076495375E0;-4.631231129E-1;3.055547953E0;-5.323254317E-2
5.088407875E0;-7.644193172E-1;3.085358143E0;-1.415985674E-1
5.100326625E0;-7.622900009E-1;2.912884712E0;-1.139176413E-1
5.112231312E0;-5.749114752E-1;2.451890945E0;2.342231758E-2
5.124142250E0;-3.598519862E-1;1.633174419E0;1.032711342E-1
5.136053187E0;-2.661627233E-1;8.836601973E-1;6.920230389E-2
5.147965687E0;-3.523994386E-1;3.385589719E-1;-7.452555746E-2
5.159901625E0;-5.993984342E-1;3.555933833E-1;-2.331585288E-1
5.171789125E0;-8.570439219E-1;9.241169095E-1;-2.246413231E-1
5.183700062E0;-1.011418343E0;2.150594711E0;-8.517206460E-2
5.195611000E0;-1.001836419E0;3.093875408E0;5.749114603E-2
5.207523500E0;-1.050810337E0;3.223762751E0;1.650208831E-1
5.219436000E0;-1.159404755E0;2.638204813E0;2.203827202E-1
5.231346937E0;-1.200926185E0;1.940858483E0;2.438050359E-1
5.243257875E0;-1.107236862E0;1.342524767E0;1.948311031E-1
5.255170375E0;-9.145350456E-1;1.084879160E0;1.128529906E-1
5.267081312E0;-6.792472601E-1;9.305048585E-1;2.874557301E-2
5.278993812E0;-5.834286809E-1;8.282983303E-1;9.581857361E-3
5.290904750E0;-5.695881844E-1;8.581085801E-1;7.346090674E-2
5.302815687E0;-5.663942695E-1;1.000771761E0;5.749114603E-2
5.314728187E0;-5.812993646E-1;1.012483001E0;-6.494370103E-2
5.326639125E0;-6.590188742E-1;7.995527983E-1;-9.794788063E-2
5.338554750E0;-7.303504944E-1;5.621356368E-1;-7.771950960E-2
5.350462562E0;-7.814537287E-1;3.917915225E-1;-7.452555932E-3
5.362373500E0;-7.889062762E-1;4.035026729E-1;6.600835174E-2
5.374286000E0;-7.516434789E-1;6.249500513E-1;1.054004356E-1
5.386196937E0;-6.835058331E-1;9.038885832E-1;1.266934574E-1
5.398115687E0;-6.185621619E-1;1.116818786E0;1.362753063E-1
5.410020375E0;-9.006946087E-1;2.644592762E0;2.097362131E-1
5.421934437E0;-1.007159710E0;7.123578548E0;2.917143404E-1
5.433843812E0;-9.698969126E-1;8.242527008E0;1.841845959E-1
5.445756312E0;-1.252029419E0;3.493119478E0;-8.943066746E-2
5.457667250E0;-4.365068376E-1;4.066966176E-1;-4.684463739E-1
5.469579750E0;7.026695460E-2;-5.408426523E-1;-7.548374534E-1
5.481490687E0;8.517206460E-2;-2.661627159E-2;-9.017592669E-1
5.493403187E0;4.897394031E-2;2.427403927E-1;-9.752201438E-1
5.505314125E0;1.809906401E-2;-1.809906401E-2;-9.177290201E-1
5.517226625E0;1.809906401E-2;-2.874557301E-2;-7.452555895E-1
5.529140687E0;6.494370103E-2;2.086715698E-1;-6.366612315E-1
5.541048500E0;1.522450745E-1;4.769635797E-1;-6.196267605E-1
5.552965687E0;2.214473784E-1;5.110324025E-1;-6.345319152E-1
5.564870375E0;2.661627233E-1;3.854036033E-1;-6.398551464E-1
5.576795375E0;2.608394623E-1;1.309520602E-1;-5.440365672E-1
5.588695375E0;2.342231870E-1;-1.831199378E-1;-3.928561509E-1
5.600606312E0;2.012190074E-1;-4.737696350E-1;-1.809906363E-1
5.612517250E0;1.511804163E-1;-5.323254466E-1;4.258603323E-3
5.624428187E0;8.517206460E-2;-3.193952441E-1;2.257059813E-1
5.636340687E0;4.684463516E-2;-6.281439960E-2;3.715631366E-1
5.648251625E0;2.555162087E-2;1.054004356E-1;4.247956872E-1
5.660164125E0;-1.171115879E-2;1.586329788E-1;4.311835766E-1
5.672075062E0;-2.448697016E-2;1.032711342E-1;3.225892186E-1
5.683986000E0;1.596976258E-2;2.129301615E-2;1.352106631E-1
5.695898500E0;2.448697016E-2;-1.277581006E-1;-1.064650831E-3
5.707818812E0;1.916371472E-2;-4.812221825E-1;-9.368927032E-2
5.719720375E0;6.600835174E-2;-9.475392699E-1;-1.565036774E-1
5.731634437E0;1.309520602E-1;-1.410662413E0;-2.033483088E-1
5.743543812E0;1.309520602E-1;-1.573553920E0;-1.660855263E-1
5.755456312E0;3.726277873E-2;-1.286098242E0;-3.193952516E-2
5.767367250E0;-6.813765317E-2;-7.729365230E-1;8.304276317E-2
5.779279750E0;-1.011418328E-1;-3.992440701E-1;6.281439960E-2
5.791190687E0;-1.064650863E-1;-8.623671532E-2;-2.129301662E-3
5.803101625E0;-1.373399645E-1;8.943066746E-2;-4.045673087E-2
5.815015687E0;-2.182534188E-1;3.044901490E-1;3.619812801E-2
5.826925062E0;-3.545287251E-1;6.089802980E-1;1.714087874E-1
5.838840687E0;-4.695110321E-1;8.314923048E-1;2.895850241E-1
5.850748500E0;-5.184849501E-1;9.422159791E-1;4.428947568E-1
5.862661000E0;-5.120970607E-1;8.794015646E-1;5.972691178E-1
5.874571937E0;-5.131617188E-1;8.176518679E-1;7.420616150E-1
5.886484437E0;-5.919458866E-1;9.848020077E-1;8.442681432E-1
5.898395375E0;-7.324797511E-1;1.377658129E0;8.751429915E-1
5.910306312E0;-8.282983303E-1;1.763061762E0;8.155225515E-1
5.922218812E0;-8.527853489E-1;2.098426819E0;6.856351495E-1
5.934129750E0;-8.208457828E-1;2.368848085E0;5.280668139E-1
5.946042250E0;-7.622900009E-1;2.555161953E0;3.928561509E-1
5.957954750E0;-6.792472601E-1;2.608394623E0;2.768092155E-1
5.969865687E0;-5.855579376E-1;2.514705181E0;2.012190074E-1
5.981776625E0;-4.993212521E-1;2.315615654E0;8.517206460E-2
5.993687562E0;-4.471533597E-1;2.064357996E0;-3.619812801E-2
6.005600062E0;-4.152138233E-1;1.760932446E0;-1.586329788E-1
6.017511000E0;-4.152138233E-1;1.393628001E0;-2.682920098E-1
6.029423500E0;-4.663170576E-1;1.035905242E0;-3.311064243E-1
6.041334437E0;-5.536184311E-1;6.835058331E-1;-3.279124498E-1
6.053246937E0;-5.876872540E-1;5.536184311E-1;-2.033483088E-1
6.065159437E0;-5.983337760E-1;6.174975038E-1;-5.323254038E-3
6.077068812E0;-5.876872540E-1;8.016820550E-1;1.799259931E-1
6.088981312E0;-5.504244566E-1;9.262462258E-1;2.384817898E-1
6.100892250E0;-5.663942695E-1;8.176518679E-1;1.373399645E-1
6.112803187E0;-6.536956429E-1;5.695881844E-1;-2.235766686E-2
6.124715687E0;-6.845704913E-1;2.874557376E-1;-1.362753063E-1
6.136634437E0;-5.046445131E-1;1.958957613E-1;-1.234994978E-1
6.148539125E0;-9.262461960E-2;4.173431396E-1;-1.298874021E-1
6.160450062E0;2.597748041E-1;7.995527983E-1;-2.193180770E-1
6.172361000E0;5.312607884E-1;1.134917736E0;-3.151366413E-1
6.184273500E0;7.559021115E-1;1.203055501E0;-3.555933833E-1
6.196184437E0;8.815308809E-1;1.079555988E0;-3.417529166E-1
6.208096937E0;8.070053458E-1;8.762076497E-1;-3.289771080E-1
6.220007875E0;6.941523552E-1;6.686007380E-1;-3.417529166E-1
6.231926625E0;6.355965734E-1;4.503473043E-1;-3.002315462E-1
6.243831312E0;5.887519121E-1;2.917143404E-1;-1.777966917E-1
6.255742250E0;4.993212521E-1;2.267706245E-1;-4.684463516E-2
6.267654750E0;4.365068376E-1;3.087487444E-2;-3.513347730E-2
6.279565687E0;3.864682615E-1;-4.152138233E-1;-1.607622802E-1
6.291481312E0;4.439594150E-1;-9.762848020E-1;-3.843389452E-1
6.303389125E0;5.355193615E-1;-1.215831280E0;-5.972691178E-1
6.315306312E0;5.951398015E-1;9.145350456E-1;-7.590960264E-1
6.327212562E0;1.394692659E-1;3.644299746E0;-7.324797511E-1
6.339123500E0;-4.876100719E-1;3.579356194E0;-2.129301727E-1
6.351056312E0;-7.814537287E-1;2.174016953E0;7.665485889E-2
6.362948500E0;-8.165872097E-1;7.420616150E-1;1.575683206E-1
6.374859437E0;-6.164328456E-1;-6.025923491E-1;2.171887755E-1
6.386770375E0;-3.768863976E-1;-1.438343287E0;2.129301727E-1
6.398682875E0;7.665485889E-2;-2.043065071E0;1.490511149E-1
6.410598500E0;6.132388711E-1;-2.310292244E0;9.688322991E-2
6.422504750E0;1.259481907E0;-2.086715698E0;2.022836544E-2
6.434415687E0;1.738574862E0;-3.449468613E-1;2.129301662E-3
6.446328187E0;1.825876236E0;1.463894963E0;1.831199378E-1
6.458239125E0;1.480929375E0;1.560778141E0;4.216017425E-1
6.470151625E0;9.645736814E-1;1.243512154E0;4.098905623E-1
6.482062562E0;3.875329196E-1;9.741555452E-1;2.416757345E-1
6.493975062E0;2.129301662E-3;9.528625011E-1;1.916371584E-1
6.505886000E0;-6.813765317E-2;1.025258780E0;2.448696941E-1
6.517798500E0;2.352878302E-1;1.117883325E0;2.565808594E-1
6.529709437E0;5.642649531E-1;1.246706128E0;3.034254909E-1
6.541623500E0;7.133160830E-1;1.475606084E0;4.737696350E-1
6.553532875E0;6.483723521E-1;1.543743730E0;6.143035293E-1
6.565445375E0;4.780282378E-1;1.258417249E0;6.686007380E-1
6.577356312E0;3.247185051E-1;8.219104409E-1;6.387904882E-1
6.589268812E0;2.906496823E-1;6.898937225E-1;6.366612315E-1
6.601178187E0;3.513347805E-1;7.729365230E-1;6.824411750E-1
6.613090687E0;4.173431396E-1;8.815308809E-1;7.686778903E-1
6.625001625E0;4.503473043E-1;1.144499660E0;8.687551022E-1
6.636914125E0;4.375714958E-1;1.264805198E0;8.634318113E-1
6.648825062E0;3.896622062E-1;1.010353684E0;7.473849058E-1
6.660745375E0;3.577226698E-1;7.239625454E-1;6.132388711E-1
6.672648500E0;3.960501254E-1;7.111867666E-1;4.844161272E-1
6.684561000E0;4.663170576E-1;8.708843589E-1;3.566580415E-1
6.696471937E0;4.727049768E-1;7.420616150E-1;1.224348471E-1
6.708389125E0;3.630459309E-1;5.152910352E-1;-1.064650863E-1
6.720295375E0;1.756673902E-1;6.717946529E-1;-3.257831633E-1
6.732206312E0;4.897394031E-2;1.766255736E0;-5.078384280E-1
6.744117250E0;-1.266934574E-1;3.794415712E0;-6.920230389E-1
6.756029750E0;-5.387133360E-1;4.674881935E0;-8.282983303E-1
6.767961000E0;-1.162598729E0;3.654946327E0;-8.687551022E-1
6.779851625E0;-1.845039964E0;1.607622743E0;-6.994755864E-1
6.791764125E0;-2.207021236E0;5.972691178E-1;-5.802347064E-1
6.803675062E0;-2.376300573E0;6.600835174E-2;-5.823640227E-1
6.815587562E0;-2.287934542E0;-9.901253134E-2;-7.122514248E-1
6.827500062E0;-2.089909554E0;2.257059813E-1;-8.825955391E-1
6.839411000E0;-1.829070091E0;1.015676856E0;-1.016741514E0
6.851328187E0;-1.585265160E0;1.709829211E0;-1.032711267E0
6.863234437E0;-1.292486072E0;2.072875261E0;-1.023129463E0
6.875146937E0;-1.033775926E0;1.635303736E0;-9.762848020E-1
6.887062562E0;-8.676904440E-1;1.072103381E0;-9.528625011E-1
6.898968812E0;-7.282211781E-1;7.271565199E-1;-9.368927479E-1
6.910879750E0;-6.100449562E-1;7.473849058E-1;-8.634318113E-1
6.922792250E0;-4.439594150E-1;9.198583364E-1;-7.165099978E-1
6.934703187E0;-2.193180770E-1;1.084879160E0;-4.993212521E-1
6.946621937E0;-8.836601675E-2;1.252029419E0;-3.981794119E-1
6.958526625E0;1.277581044E-2;1.478800058E0;-3.587873280E-1
6.970437562E0;5.003859103E-2;1.651273489E0;-3.811450005E-1
6.982350062E0;-1.171115879E-2;1.817358971E0;-4.088259339E-1
6.994261000E0;-3.555933833E-1;1.953634262E0;-4.727049768E-1
7.006176625E0;-6.345319152E-1;2.094168186E0;-6.324025989E-1
7.018084437E0;-5.291314721E-1;2.251736641E0;-7.708072066E-1
7.029996937E0;-1.128529906E-1;2.405046225E0;-7.846476436E-1
7.041907875E0;3.119426966E-1;2.341167212E0;-6.132388711E-1
7.053820375E0;7.314151525E-1;1.929147363E0;-4.152138233E-1
7.065746937E0;8.506560326E-1;1.541614413E0;-3.289771080E-1
7.077642250E0;7.473849058E-1;1.271193147E0;-2.746799290E-1
7.089553187E0;5.067738295E-1;1.138111711E0;-2.363524884E-1
7.101465687E0;3.172659576E-1;1.232865691E0;-2.288999259E-1
7.113376625E0;2.118655145E-1;1.573553920E0;-2.523222566E-1
7.125307875E0;1.884431988E-1;1.939793825E0;-2.736152709E-1
7.137200062E0;1.873785406E-1;2.274094105E0;-3.321710527E-1
7.149111000E0;1.884431988E-1;2.430597782E0;-3.949854672E-1
7.161025062E0;1.479864717E-1;2.418886662E0;-4.641877711E-1
7.172936000E0;3.939208016E-2;2.295387268E0;-5.461658835E-1
7.184846937E0;-6.281439960E-2;2.228314161E0;-5.930105448E-1
7.196759437E0;-1.160469428E-1;2.111202717E0;-5.919458866E-1
7.208668812E0;-1.756673902E-1;1.775837660E0;-5.738468170E-1
7.220581312E0;-3.523994386E-1;1.227542400E0;-4.567352235E-1
7.232492250E0;-6.047216654E-1;7.803890705E-1;-1.501157731E-1
7.244411000E0;-8.080700040E-1;6.355965734E-1;1.277581006E-1
7.256326625E0;-9.209229946E-1;8.879188299E-1;3.492054641E-1
7.268226625E0;-8.644964695E-1;1.238188982E0;4.397007823E-1
7.280139125E0;-6.739239693E-1;1.504351616E0;5.206142664E-1
7.292050062E0;-4.609938264E-1;1.408533096E0;5.919458866E-1
7.303962562E0;-2.395464331E-1;1.054004312E0;5.685235262E-1
7.315876625E0;9.049531817E-2;5.706528425E-1;4.120198786E-1
7.327784437E0;5.376486778E-1;3.609166443E-1;2.086715698E-1
7.339696937E0;9.688322544E-1;6.057863235E-1;4.897394031E-2
7.351607875E0;1.236059666E0;1.047616482E0;-1.107236892E-1
7.363520375E0;1.065715432E0;1.371270299E0;-2.033483088E-1
7.375431312E0;5.759761333E-1;1.488381863E0;-1.405339092E-1
7.387350062E0;-1.139176413E-1;1.118947983E0;6.387905031E-2
7.399254750E0;-5.131617188E-1;2.778738737E-1;1.075297371E-1
7.411167250E0;-5.791700482E-1;-9.305048585E-1;-6.281439960E-2
7.423106312E0;-5.067738295E-1;-1.505416274E0;-1.085943878E-1
7.434989125E0;-4.854807854E-1;-1.198796868E0;-7.452555746E-2
7.446901625E0;-4.609938264E-1;-2.044129670E-1;-6.387905031E-2
7.458812562E0;-3.257831633E-1;7.346090674E-1;-1.266934574E-1
7.470725062E0;-1.586329788E-1;1.456442356E0;-2.352878302E-1
7.482637562E0;-1.543743759E-1;1.447925091E0;-2.608394623E-1
7.494548500E0;-2.150594741E-1;9.624443650E-1;-2.342231870E-1
7.506461000E0;-2.629687488E-1;3.172659576E-1;-2.363524884E-1
7.518371937E0;-3.012961745E-1;1.746027321E-1;-2.555162013E-1
7.530282875E0;-3.577226698E-1;5.972691178E-1;-2.555162013E-1
7.542212562E0;-3.534640670E-1;9.187936783E-1;-2.288999259E-1
7.554104750E0;-2.544515431E-1;9.464746118E-1;-1.543743759E-1
7.566017250E0;-1.054004356E-1;8.613025546E-1;-5.110324174E-2
7.577929750E0;1.043357849E-1;8.783369660E-1;7.239625603E-2
7.589840687E0;2.863910794E-1;9.113411307E-1;1.469218135E-1
7.601773500E0;3.066194355E-1;8.953713775E-1;2.139948159E-1
7.613664125E0;1.703441292E-1;1.057198286E0;2.608394623E-1
7.625575062E0;-3.513347730E-2;1.319102407E0;1.990897059E-1
7.637486000E0;-2.959729433E-1;1.532032609E0;4.258603230E-2
7.649398500E0;-5.259374976E-1;1.687471628E0;-2.768092230E-2
7.661309437E0;-6.409198046E-1;1.742833376E0;-3.513347730E-2
7.673220375E0;-6.547602415E-1;1.850363135E0;1.490511186E-2
7.685132875E0;-6.100449562E-1;1.949375629E0;6.813765317E-2
7.697043812E0;-5.472305417E-1;1.837587357E0;1.298874021E-1
7.708956312E0;-4.844161272E-1;1.461765647E0;2.203827202E-1
7.720867250E0;-3.492054641E-1;9.283755422E-1;2.949082851E-1
7.732779750E0;-1.384046078E-1;4.439594150E-1;3.790156841E-1
7.744690687E0;1.479864717E-1;9.794788063E-2;5.099677444E-1
7.756601625E0;3.364296556E-1;3.098133802E-1;6.260147095E-1
7.768514125E0;3.204599023E-1;1.044422507E0;6.675360799E-1
7.780425062E0;7.878416032E-2;1.544808388E0;6.025923491E-1
7.792337562E0;-1.927018017E-1;1.477735400E0;5.451012254E-1
7.804254750E0;-4.290542901E-1;1.085943818E0;5.812993646E-1
7.816159437E0;-5.259374976E-1;8.794015646E-1;6.632774472E-1
7.828071937E0;-4.641877711E-1;8.410741687E-1;7.047988772E-1
7.839984437E0;-3.300417662E-1;5.653296113E-1;6.835058331E-1
7.851895375E0;-2.086715698E-1;4.790928960E-2;6.132388711E-1
7.863806312E0;-1.522450745E-1;-5.365840197E-1;5.312607884E-1
7.875718812E0;-1.724734306E-1;-7.984881401E-1;4.663170576E-1
7.887632875E0;-2.161241174E-1;-5.451012254E-1;4.045673311E-1
7.899542250E0;-2.544515431E-1;1.341460049E-1;3.130073547E-1
7.911453187E0;-2.959729433E-1;1.180697799E0;1.692794859E-1
7.923364125E0;-3.864682615E-1;2.543450832E0;-2.981022373E-2
7.935276625E0;-5.695881844E-1;3.766734600E0;-2.001543641E-1
7.947187562E0;-8.559792638E-1;4.471533298E0;-2.682920098E-1
7.959115687E0;-1.207314014E0;4.459822178E0;-2.810678184E-1
7.971015687E0;-1.586329699E0;3.640041113E0;-2.682920098E-1
7.982928187E0;-1.809906483E0;2.201697826E0;-1.980250627E-1
7.994834437E0;-1.716217160E0;1.085943818E0;-9.262461960E-2
8.006745375E0;-1.446860433E0;5.812993646E-1;-9.581857361E-3
8.018664125E0;-1.161534071E0;7.654839754E-1;1.096590385E-1
8.030568812E0;-8.698197603E-1;1.583135843E0;2.800031602E-1
8.042481312E0;-5.951398015E-1;2.262382984E0;3.662398756E-1
8.054400062E0;-3.800803423E-1;2.259189129E0;3.577226698E-1
8.066303187E0;-3.225892186E-1;1.510739565E0;2.320938855E-1
8.078215687E0;-3.960501254E-1;6.643421054E-1;-4.684463516E-2
8.090126625E0;-4.567352235E-1;3.992440701E-1;-2.288999259E-1
8.102037562E0;-4.503473043E-1;5.046445131E-1;-2.789385319E-1
8.113951625E0;-3.960501254E-1;8.389448524E-1;-3.428175747E-1
8.125861000E0;-3.332357109E-1;1.472412109E0;-4.929333329E-1
8.137773500E0;-3.215245605E-1;1.953634262E0;-6.398551464E-1
8.149684437E0;-3.044901490E-1;2.236831427E0;-7.569667697E-1
8.161598500E0;-2.342231870E-1;2.279417515E0;-8.091346622E-1
8.173507875E0;-1.192408949E-1;2.126107693E0;-7.729365230E-1
8.185420375E0;3.513347730E-2;1.816294312E0;-6.749886274E-1
8.197353187E0;1.266934574E-1;1.584200501E0;-5.962044597E-1
8.209243812E0;1.714087874E-1;1.424502850E0;-5.227435827E-1
8.221170375E0;1.820552945E-1;1.229671717E0;-4.418300986E-1
8.233065687E0;1.628915817E-1;1.017806172E0;-3.694338500E-1
8.244978187E0;1.586329788E-1;8.314923048E-1;-3.523994386E-1
8.256895375E0;1.724734306E-1;7.952941656E-1;-4.130845368E-1
8.268801625E0;2.044129670E-1;9.251815677E-1;-5.163556337E-1
8.280714125E0;2.523222566E-1;1.059327602E0;-5.983337760E-1
8.292623500E0;3.119426966E-1;1.126400590E0;-6.845704913E-1
8.304536000E0;3.470761776E-1;1.114689469E0;-7.452555895E-1
8.316456312E0;3.534640670E-1;1.032711267E0;-7.676132321E-1
8.328357875E0;3.289771080E-1;8.996299505E-1;-7.665486336E-1
8.340270375E0;2.981022298E-1;7.718718648E-1;-7.388677001E-1
8.352181312E0;2.778738737E-1;6.270793676E-1;-6.984109282E-1
8.364093812E0;2.853264213E-1;4.993212521E-1;-6.632774472E-1
8.376012562E0;3.193952441E-1;4.631231129E-1;-6.217560768E-1
8.387917250E0;3.577226698E-1;5.482951999E-1;-5.749114752E-1
8.399828187E0;3.800803423E-1;6.717946529E-1;-5.184849501E-1
8.411740687E0;3.449468613E-1;7.335444093E-1;-4.556705654E-1
8.423651625E0;2.363524884E-1;6.505016685E-1;-4.077612758E-1
8.435564125E0;1.000771821E-1;4.886747301E-1;-3.630459309E-1
8.447475062E0;-1.064650831E-3;3.896622062E-1;-3.130073547E-1
8.459386000E0;-6.813765317E-2;4.152138233E-1;-2.161241174E-1
8.471298500E0;-1.266934574E-1;4.876100719E-1;-8.091346174E-2
8.483209437E0;-1.937664598E-1;5.131617188E-1;8.943066746E-2
8.495139125E0;-2.757445574E-1;4.279896319E-1;2.363524884E-1
8.507032875E0;-3.779510558E-1;3.374943137E-1;3.353650272E-1
8.518943812E0;-5.099677444E-1;4.066966176E-1;3.854036033E-1
8.530856312E0;-6.387904882E-1;6.366612315E-1;3.981794119E-1
8.542767250E0;-7.495141625E-1;8.921774030E-1;3.736924529E-1
8.554679750E0;-7.516434789E-1;9.102764726E-1;3.353650272E-1
8.566590687E0;-6.526309848E-1;7.324797511E-1;2.927789688E-1
8.578511000E0;-4.205370843E-1;3.981794119E-1;2.331585288E-1
8.590414125E0;-1.490511149E-1;7.771950960E-2;1.437278688E-1
8.602325062E0;1.618269235E-1;-2.895850241E-1;1.809906401E-2
8.614240687E0;3.492054641E-1;-6.632774472E-1;-4.152138159E-2
8.626148500E0;4.801575243E-1;-1.149822950E0;-1.703441329E-2
8.638059437E0;5.419072509E-1;-1.566101432E0;6.494370103E-2
8.649971937E0;5.632002950E-1;-1.504351616E0;5.323254317E-2
8.661882875E0;5.866225958E-1;-6.068509817E-1;-1.384046115E-2
8.673793812E0;5.067738295E-1;5.376486778E-1;1.171115879E-2
8.685706312E0;1.799259931E-1;1.126400590E0;5.855579674E-2
8.697617250E0;-2.597748041E-1;9.901252985E-1;5.536184460E-2
8.709528187E0;-7.218332887E-1;3.885975480E-1;3.193952609E-3
8.721440687E0;-9.528625011E-1;-2.810678184E-1;-9.262461960E-2
8.733353187E0;-9.698969126E-1;-4.961272776E-1;-1.341460049E-1
8.745264125E0;-8.251044154E-1;-3.321710527E-1;-1.746027321E-1
8.757178187E0;-5.802347064E-1;4.088259339E-1;-2.193180770E-1
8.769087562E0;-1.746027321E-1;1.786484122E0;-3.140719831E-1
8.780998500E0;1.203055456E-1;2.527481079E0;-3.066194355E-1
8.792909437E0;2.076069117E-1;1.871656179E0;-1.575683206E-1
8.804821937E0;3.779510558E-1;1.916371472E-2;2.118655145E-1
8.816732875E0;4.822868407E-1;-1.563972116E0;6.164328456E-1
8.828645375E0;6.409198046E-1;-2.706342459E0;8.016820550E-1
8.840556312E0;8.527853489E-1;-2.983151674E0;6.430491209E-1
8.852468812E0;8.921774030E-1;-2.019642591E0;4.216017425E-1
8.864379750E0;8.048760295E-1;-5.451012254E-1;2.895850241E-1
8.876290687E0;6.174975038E-1;4.173431396E-1;2.789385319E-1
8.888203187E0;4.247956872E-1;6.728593111E-1;3.523994386E-1
8.900114125E0;2.672273517E-1;8.581085801E-1;3.960501254E-1
8.912032875E0;1.426632106E-1;1.101913571E0;4.652524292E-1
8.923937562E0;5.429719388E-2;1.164728045E0;5.663942695E-1
8.935864125E0;2.129301662E-3;8.921774030E-1;6.547602415E-1
8.947761000E0;-7.239625603E-2;5.600063205E-1;6.483723521E-1
8.959673500E0;-3.087487519E-1;6.664714217E-1;4.205370843E-1
8.971590687E0;-5.578770638E-1;1.346783280E0;1.096590385E-1
8.983496937E0;-7.505788207E-1;2.028159857E0;-4.365068302E-2
8.995407875E0;-8.112639189E-1;2.155917883E0;-4.258603230E-2
9.007320375E0;-7.228979468E-1;1.666178584E0;5.429719388E-2
9.019231312E0;-5.674588680E-1;1.234995008E0;2.363524884E-1
9.031143812E0;-4.790928662E-1;1.092331767E0;3.587873280E-1
9.043062562E0;-3.747570813E-1;6.803118587E-1;3.949854672E-1
9.054971937E0;-2.320938855E-1;6.600835174E-2;4.397007823E-1
9.066876625E0;-4.258603323E-3;-5.099677444E-1;4.961272776E-1
9.078789125E0;2.810678184E-1;-1.040163875E0;3.939208090E-1
9.090706312E0;5.365840197E-1;-1.438343287E0;1.927018017E-1
9.102612562E0;7.559021115E-1;-1.567166090E0;6.707300246E-2
9.114523500E0;7.771950960E-1;-1.201990843E0;9.262461960E-2
9.126434437E0;5.770407319E-1;-4.343775511E-1;5.323254038E-3
9.138346937E0;1.650208831E-1;8.293629885E-1;-1.469218135E-1
9.150261000E0;-3.928561509E-1;2.244283915E0;-2.235766798E-1
9.162170375E0;-8.911127448E-1;2.920337200E0;-2.235766798E-1
9.174082875E0;-1.280774951E0;2.285805464E0;-2.044129670E-1
9.185992250E0;-1.454313040E0;1.224348426E0;-1.682148278E-1
9.197904750E0;-1.510739565E0;7.292858362E-1;1.245641485E-1
9.209818812E0;-1.233930349E0;7.356737256E-1;6.462430358E-1
9.221726625E0;-9.155997038E-1;7.910355926E-1;1.005030394E0
9.233639125E0;-7.165099978E-1;5.940751433E-1;9.454099536E-1
9.245550062E0;-7.016049027E-1;4.758989215E-1;5.823640227E-1
9.257462562E0;-8.442681432E-1;7.835830450E-1;2.342231758E-2
9.269379750E0;-1.001836419E0;1.277580976E0;-3.779510558E-1
9.281286000E0;-1.036969900E0;1.427696824E0;-4.428947568E-1
9.293196937E0;-9.390220642E-1;1.380852103E0;-4.066966176E-1
9.305107875E0;-8.101992607E-1;1.325490236E0;-3.630459309E-1
9.317020375E0;-6.888290644E-1;1.258417249E0;-2.842617631E-1
9.328931312E0;-6.419844627E-1;1.262675881E0;-2.278352827E-1
9.340845375E0;-6.430491209E-1;1.381916761E0;-1.511804163E-1
9.352754750E0;-6.686007380E-1;1.674695730E0;-1.043357849E-1
9.364667250E0;-7.324797511E-1;2.036677122E0;-2.054776102E-1
9.376578187E0;-8.314923048E-1;2.358201504E0;-3.300417662E-1
9.388489125E0;-9.166643620E-1;2.516834497E0;-3.289771080E-1
9.400401625E0;-9.283755422E-1;2.572196484E0;-2.619041204E-1
9.412312562E0;-8.591732383E-1;2.653109789E0;-2.118655145E-1
9.424225062E0;-7.154453397E-1;2.818130732E0;-1.586329788E-1
9.436136000E0;-5.568124056E-1;2.951212168E0;-5.642649531E-2
9.448048500E0;-4.088259339E-1;2.895850182E0;6.281439960E-2
9.459959437E0;-2.661627233E-1;2.608394623E0;1.969604045E-1
9.471871937E0;-1.703441292E-1;2.253865719E0;3.023608327E-1
9.483782875E0;-1.000771821E-1;1.871656179E0;3.662398756E-1
9.495695375E0;-5.962044746E-2;1.538420439E0;3.619812727E-1
9.507612562E0;-5.536184460E-2;1.341460109E0;3.321710527E-1
9.519517250E0;-9.794788063E-2;1.338266134E0;2.768092155E-1
9.531429750E0;-1.639562249E-1;1.497963786E0;1.852492392E-1
9.543340687E0;-2.065422684E-1;1.759867787E0;8.197811246E-2
9.555251625E0;-2.139948159E-1;2.031353712E0;-3.726277873E-2
9.567168812E0;-1.362753063E-1;2.106944084E0;-1.288227588E-1
9.579075062E0;8.517206647E-3;1.977056623E0;-1.607622802E-1
9.590987562E0;2.001543641E-1;1.688536286E0;-1.213701963E-1
9.602898500E0;3.577226698E-1;1.336136818E0;-1.490511186E-2
9.614811000E0;4.684463739E-1;8.048760295E-1;1.639562249E-1
9.626721937E0;4.279896319E-1;1.022064835E-1;3.012961745E-1
9.638643812E0;2.949082851E-1;-4.098905623E-1;2.608394623E-1
9.650548500E0;1.522450745E-1;-4.205370843E-1;1.607622802E-1
9.662456312E0;3.193952516E-2;-1.171115879E-2;1.234994978E-1
9.674368812E0;-7.239625603E-2;6.174975038E-1;1.266934574E-1
9.686282875E0;-1.128529906E-1;9.986425042E-1;1.479864717E-1
9.698192250E0;-1.671501845E-1;1.128529906E0;1.863138974E-1
9.710101625E0;-2.682920098E-1;1.017806172E0;2.501929402E-1
9.722014125E0;-3.673045337E-1;8.336216211E-1;2.885203660E-1
9.733928187E0;-5.003858805E-1;6.409198046E-1;2.895850241E-1
9.745837562E0;-6.260147095E-1;4.993212521E-1;2.725506127E-1
9.757748500E0;-6.749886274E-1;4.407654405E-1;1.724734306E-1
9.769659437E0;-5.898165703E-1;3.832743168E-1;3.513347730E-2
9.781571937E0;-3.481408358E-1;2.650980651E-1;-7.452555746E-2
9.793482875E0;2.448697016E-2;1.660855263E-1;-1.565036774E-1
9.805395375E0;4.194724262E-1;1.394692659E-1;-2.235766798E-1
9.817306312E0;8.527853489E-1;6.281439960E-2;-2.661627233E-1
9.829217250E0;1.129594564E0;-1.501157731E-1;-2.619041204E-1
9.841129750E0;1.161534071E0;-5.642649531E-1;-2.714859545E-1
9.853042250E0;9.134704471E-1;-9.486039281E-1;-3.108780384E-1
9.864953187E0;5.781053901E-1;-1.057198286E0;-3.087487519E-1
9.876864125E0;2.533869147E-1;-8.176518679E-1;-2.288999259E-1
9.888776625E0;1.234994978E-1;-2.895850241E-1;-1.096590385E-1
9.900687562E0;1.756673902E-1;2.267706245E-1;-4.471533373E-2
9.912600062E0;2.949082851E-1;5.993984342E-1;-5.642649531E-2
9.924537562E0;2.895850241E-1;6.270793676E-1;-7.559020817E-2
9.936423500E0;1.746027321E-1;5.610709786E-1;-3.513347730E-2
9.948334437E0;1.064650863E-1;4.971919358E-1;-2.448697016E-2
9.960245375E0;1.394692659E-1;4.194724262E-1;-6.068509817E-2
9.972157875E0;2.608394623E-1;3.002315462E-1;-1.288227588E-1
9.984070375E0;3.811450005E-1;1.447925121E-1;-1.905725002E-1
9.995981312E0;4.886747301E-1;-2.661627159E-2;-2.235766798E-1
1.000789225E1;6.664714217E-1;-2.235766798E-1;-2.342231870E-1
1.001980475E1;8.581085801E-1;-3.353650272E-1;-2.374171317E-1
1.003171569E1;1.013547659E0;-3.023608327E-1;-2.704213262E-1
1.004362819E1;1.009289026E0;-2.395464331E-1;-3.002315462E-1
1.005553913E1;8.847248554E-1;-2.768092155E-1;-3.225892186E-1
1.006745006E1;6.526309848E-1;-4.152138233E-1;-3.492054641E-1
1.007936256E1;4.003087282E-1;-4.939979911E-1;-3.651752472E-1
1.009127350E1;2.299645841E-1;-4.003087282E-1;-3.076840937E-1
1.010318600E1;1.895078421E-1;-2.480636388E-1;-2.512575984E-1
1.011509694E1;2.086715698E-1;-1.937664598E-1;-2.640334070E-1
1.012700944E1;2.161241174E-1;-3.289771080E-1;-2.672273517E-1
1.013892038E1;2.448696941E-1;-6.174975038E-1;-2.374171317E-1
1.015083131E1;3.140719831E-1;-9.070824981E-1;-2.139948159E-1
1.016274381E1;3.971147537E-1;-1.083814502E0;-2.576455176E-1
1.017465475E1;4.460887015E-1;-1.067844748E0;-3.736924529E-1
1.018656569E1;4.439594150E-1;-7.867769599E-1;-5.120970607E-1
1.019847975E1;3.960501254E-1;-3.513347805E-1;-6.622128487E-1
1.021038912E1;2.299645841E-1;-1.064650863E-1;-7.079927921E-1
1.022230006E1;5.749114603E-2;-1.884431988E-1;-6.121742129E-1
1.023421256E1;-2.981022373E-2;-3.577226698E-1;-4.695110321E-1
1.024612506E1;1.703441329E-2;-3.087487519E-1;-4.428947568E-1
1.025803444E1;1.128529906E-1;-1.724734306E-1;-4.120198786E-1
1.026994694E1;1.746027321E-1;-3.406882659E-2;-3.279124498E-1
1.028185788E1;1.916371584E-1;4.258603323E-3;-2.469989955E-1
1.029377194E1;1.809906363E-1;1.171115879E-2;-1.671501845E-1
1.030568131E1;1.522450745E-1;-2.768092230E-2;-7.984881103E-2
1.031759225E1;1.373399645E-1;-9.475392103E-2;-3.619812801E-2
1.032950475E1;1.362753063E-1;-1.565036774E-1;-2.022836544E-2
1.034141569E1;1.522450745E-1;-1.075297371E-1;-6.387905218E-3
1.035332819E1;1.575683206E-1;3.513347730E-2;2.129301662E-3
1.036524538E1;1.330813617E-1;1.746027321E-1;0.000000000E0
1.037715162E1;7.346090674E-2;2.182534188E-1;-4.258603323E-3
1.038906256E1;-5.323254038E-3;2.001543641E-1;-1.490511186E-2
1.040098288E1;-1.703441329E-2;1.756673902E-1;-6.387905218E-3
1.041288600E1;2.342231758E-2;1.905725002E-1;1.916371472E-2
1.042479694E1;8.730136603E-2;2.342231870E-1;7.239625603E-2
1.043670944E1;1.415985674E-1;2.757445574E-1;1.330813617E-1
1.044862194E1;1.533097178E-1;2.650980651E-1;1.777966917E-1
1.046053444E1;1.394692659E-1;1.330813617E-1;2.054776102E-1
1.047244381E1;1.501157731E-1;-6.174974889E-2;2.225120217E-1
1.048435631E1;2.118655145E-1;-1.916371584E-1;2.299645841E-1
1.049626725E1;3.300417662E-1;-2.469989955E-1;2.288999259E-1
1.050817975E1;4.269249737E-1;-2.299645841E-1;2.108008713E-1
1.052009381E1;4.343775511E-1;-1.820552945E-1;1.703441292E-1
1.053200319E1;3.470761776E-1;-1.426632106E-1;1.085943878E-1
1.054391412E1;2.193180770E-1;-1.054004356E-1;7.559020817E-2
1.055582506E1;6.920230389E-2;1.064650831E-3;8.304276317E-2
1.056773600E1;-6.813765317E-2;1.565036774E-1;9.794788063E-2
1.057964850E1;-1.895078421E-1;2.331585288E-1;8.943066746E-2
1.059155944E1;-3.034254909E-1;2.501929402E-1;4.897394031E-2
1.060347194E1;-3.662398756E-1;2.352878302E-1;1.277581044E-2
1.061538288E1;-3.907268643E-1;2.512575984E-1;-1.916371472E-2
1.062729538E1;-3.726277947E-1;3.279124498E-1;-1.916371472E-2
1.063920631E1;-3.268478215E-1;4.279896319E-1;0.000000000E0
1.065112350E1;-2.831971347E-1;4.908040464E-1;1.809906401E-2
1.066302975E1;-2.501929402E-1;4.950626493E-1;2.235766686E-2
1.067494069E1;-2.395464331E-1;4.737696350E-1;1.490511186E-2
1.068685319E1;-2.374171317E-1;4.290542901E-1;1.596976258E-2
1.069876412E1;-2.501929402E-1;3.204599023E-1;2.874557301E-2
1.071067506E1;-2.895850241E-1;1.565036774E-1;4.045673087E-2
1.072259225E1;-3.523994386E-1;-8.197811246E-2;2.235766686E-2
1.073449850E1;-4.386361539E-1;-2.587101460E-1;-2.981022373E-2
1.074641100E1;-5.142263770E-1;-3.183306158E-1;-1.671501845E-1
1.075832194E1;-5.493598580E-1;-2.885203660E-1;-2.587101460E-1
1.077023600E1;-5.695881844E-1;-1.756673902E-1;-2.917143404E-1
1.078214381E1;-5.333900452E-1;-1.064650831E-3;-2.768092155E-1
1.079405631E1;-4.216017425E-1;1.884431988E-1;-2.374171317E-1
1.080596881E1;-1.937664598E-1;3.044901490E-1;-1.671501845E-1
1.081788600E1;2.022836544E-2;1.948311031E-1;-1.171115935E-1
1.082979069E1;1.969604045E-1;-6.387905031E-2;-7.984881103E-2
1.084170319E1;3.172659576E-1;-3.736924529E-1;-5.962044746E-2
1.085361569E1;3.662398756E-1;-6.249500513E-1;-5.642649531E-2
1.086552663E1;3.513347805E-1;-6.813765168E-1;-3.300417587E-2
1.087745788E1;3.130073547E-1;-4.758989215E-1;-2.981022373E-2
1.088935006E1;2.342231870E-1;-3.939208016E-2;-8.197811246E-2
1.090126100E1;1.032711342E-1;3.215245605E-1;-1.479864717E-1
1.091317350E1;-9.155996889E-2;6.238853931E-1;-1.895078421E-1
1.092508444E1;-2.278352827E-1;1.015676856E0;-1.501157731E-1
1.093700319E1;-2.448696941E-1;1.343589306E0;-1.075297371E-1
1.094890788E1;-2.427403927E-1;1.471347451E0;-4.790928960E-2
1.096081881E1;-3.002315462E-1;1.337201476E0;6.707300246E-2
1.097273131E1;-3.758217394E-1;1.100848913E0;2.310292274E-1
1.098464381E1;-3.704984784E-1;1.044422507E0;3.225892186E-1
1.099657975E1;-2.544515431E-1;1.194538236E0;3.343003690E-1
1.100846569E1;-9.688322991E-2;1.278645635E0;2.991668880E-1
1.102037662E1;4.045673087E-2;1.105107546E0;1.746027321E-1
1.103228912E1;1.000771821E-1;6.206914186E-1;8.304276317E-2
1.104420006E1;1.533097178E-1;-4.471533373E-2;4.471533373E-2
1.105611256E1;2.288999259E-1;-4.322482347E-1;-1.064650831E-3
1.106802350E1;2.991668880E-1;-4.205370843E-1;-5.429719388E-2
1.107993444E1;3.098133802E-1;-2.714859545E-1;-9.155996889E-2
1.109184694E1;2.171887755E-1;-3.012961745E-1;-7.984881103E-2
1.110375944E1;5.536184460E-2;-4.184077680E-1;-1.149822921E-1
1.111567038E1;-1.916371472E-2;-3.864682615E-1;-1.905725002E-1
1.112758288E1;-5.642649531E-2;-2.587101460E-1;-1.916371584E-1
1.113949694E1;-4.577998444E-2;-8.943066746E-2;-1.405339092E-1
1.115140475E1;-7.452555932E-3;3.619812801E-2;-9.794788063E-2
1.116331725E1;2.874557301E-2;2.022836655E-1;-6.600835174E-2
1.117523131E1;5.323254317E-2;2.288999259E-1;-7.771950960E-2
1.118713912E1;1.596976258E-2;8.943066746E-2;-4.897394031E-2
1.119905006E1;-5.216789246E-2;-7.346090674E-2;1.064650831E-3
1.121096256E1;-5.429719388E-2;-2.959729433E-1;-2.129301662E-3
1.122287350E1;1.064650808E-2;-4.439594150E-1;-7.452555932E-3
1.123478600E1;1.085943878E-1;-4.961272776E-1;-1.703441329E-2
1.124669694E1;1.724734306E-1;-4.588645101E-1;-3.087487444E-2
1.125860788E1;2.150594741E-1;-4.066966176E-1;-5.536184460E-2
1.127052038E1;1.927018017E-1;-3.779510558E-1;-9.368927032E-2
1.128243131E1;8.836601675E-2;-3.236538470E-1;-1.522450745E-1
1.129434225E1;1.064650831E-3;-2.214473784E-1;-2.129301727E-1
1.130625475E1;-2.448697016E-2;-1.384046078E-1;-2.331585288E-1
1.131816569E1;1.490511186E-2;-1.075297371E-1;-1.958957613E-1
1.133007819E1;5.110324174E-2;-1.234994978E-1;-1.298874021E-1
1.134198913E1;1.384046115E-2;-2.044129670E-1;-9.049531817E-2
1.135390788E1;-7.984881103E-2;-2.991668880E-1;-9.155996889E-2
1.136581256E1;-1.330813617E-1;-3.502701223E-1;-1.064650863E-1
1.137772506E1;-1.245641485E-1;-3.385589719E-1;-1.181762442E-1
1.138963600E1;-9.155996889E-2;-1.533097178E-1;-1.426632106E-1
1.140154694E1;-1.511804163E-1;2.139948159E-1;-1.980250627E-1
1.141345944E1;-3.332357109E-1;4.258603454E-1;-2.959729433E-1
1.142537038E1;-4.705756605E-1;-1.064650808E-2;-3.076840937E-1
1.143728288E1;-4.152138233E-1;-7.133160830E-1;-2.374171317E-1
1.144919381E1;-2.342231870E-1;-1.138111711E0;-1.203055456E-1
1.146110631E1;-3.619812801E-2;-1.200926185E0;5.962044746E-2
1.147301725E1;1.437278688E-1;-1.065715432E0;2.139948159E-1
1.148494381E1;2.512575984E-1;-9.432806373E-1;2.959729433E-1
1.149684069E1;2.778738737E-1;-7.654839754E-1;3.151366413E-1
1.150875162E1;2.235766798E-1;-3.268478215E-1;2.938436270E-1
1.152066413E1;9.262461960E-2;6.856351495E-1;2.438050359E-1
1.153257506E1;-6.600835174E-2;1.490511179E0;1.277581006E-1
1.154448600E1;-2.246413231E-1;1.639562249E0;-2.129301662E-3
1.155639850E1;-3.566580415E-1;1.401080489E0;-3.832742944E-2
1.156830944E1;-4.194724262E-1;1.077426672E0;4.577998444E-2
1.158022194E1;-4.375714958E-1;7.633546591E-1;1.575683206E-1
1.159213288E1;-4.109552205E-1;5.025151968E-1;2.171887755E-1
1.160404381E1;-3.534640670E-1;2.182534188E-1;1.852492392E-1
1.161595631E1;-3.023608327E-1;3.513347730E-2;1.096590385E-1
1.162786725E1;-2.661627233E-1;3.300417587E-2;5.323254317E-2
1.163977975E1;-2.544515431E-1;3.183306158E-1;5.855579674E-2
1.165170788E1;-2.725506127E-1;6.707300544E-1;7.239625603E-2
1.166360319E1;-3.247185051E-1;8.538499475E-1;3.619812801E-2
1.167551413E1;-4.056319594E-1;7.803890705E-1;-3.832742944E-2
1.168742506E1;-5.089030862E-1;5.589416623E-1;-1.043357849E-1
1.169933756E1;-5.802347064E-1;3.683691919E-1;-1.426632106E-1
1.171124850E1;-5.866225958E-1;2.874557376E-1;-1.809906363E-1
1.172315944E1;-5.387133360E-1;3.332357109E-1;-2.288999259E-1
1.173507194E1;-4.886747301E-1;4.354421794E-1;-2.810678184E-1
1.174698444E1;-4.652524292E-1;5.419072509E-1;-3.162012994E-1
1.175889538E1;-4.833514690E-1;6.185621619E-1;-3.193952441E-1
1.177080631E1;-5.280668139E-1;5.759761333E-1;-2.789385319E-1
1.178271881E1;-5.898165703E-1;4.311835766E-1;-2.342231870E-1
1.179462975E1;-7.090574503E-1;3.023608327E-1;-2.065422684E-1
1.180654069E1;-8.027467132E-1;1.820552945E-1;-2.299645841E-1
1.181845319E1;-7.740011811E-1;-4.577998444E-2;-3.012961745E-1
1.183038288E1;-6.387904882E-1;-1.054004356E-1;-3.981794119E-1
1.184227506E1;-4.908040464E-1;-1.224348471E-1;-4.695110321E-1
1.185418913E1;-2.736152709E-1;-2.810678184E-1;-4.535412490E-1
1.186610006E1;-8.730136603E-2;-6.856351495E-1;-3.704984784E-1
1.187801100E1;5.110324174E-2;-1.456442356E0;-2.374171317E-1
1.188992506E1;3.619812801E-2;-1.966410160E0;-1.703441292E-1
1.190183444E1;-9.794788063E-2;-2.138883591E0;-1.373399645E-1
1.191374694E1;-2.959729433E-1;-1.932341218E0;-1.203055456E-1
1.192565788E1;-5.323254466E-1;-1.424502850E0;-1.128529906E-1
1.193756881E1;-7.111867666E-1;-8.708843589E-1;-8.836601675E-2
1.194948131E1;-7.921002507E-1;-4.237310290E-1;-6.600835174E-2
1.196139225E1;-7.473849058E-1;-2.768092230E-2;-9.581857920E-2
1.197330475E1;-6.483723521E-1;2.214473784E-1;-1.660855263E-1
1.198521881E1;-6.057863235E-1;3.566580415E-1;-2.544515431E-1
1.199712662E1;-6.835058331E-1;3.662398756E-1;-3.438822329E-1
1.200904538E1;-8.006174564E-1;3.673045337E-1;-4.365068376E-1
1.202096100E1;-8.900480866E-1;4.705756605E-1;-5.365840197E-1
1.203286256E1;-9.571211338E-1;6.025923491E-1;-6.036570072E-1
1.204477350E1;-1.001836419E0;6.888290644E-1;-6.441137791E-1
1.205668444E1;-9.028239250E-1;5.812993646E-1;-6.547602415E-1
1.206859694E1;-6.909583807E-1;3.523994386E-1;-6.430491209E-1
1.208050788E1;-5.131617188E-1;1.863138974E-1;-6.089802980E-1
1.209241881E1;-5.227435827E-1;1.927018017E-1;-6.015277505E-1
1.210433131E1;-6.494370103E-1;2.682920098E-1;-6.260147095E-1
1.211624225E1;-7.516434789E-1;3.619812727E-1;-6.419844627E-1
1.212816100E1;-7.633546591E-1;4.237310290E-1;-6.036570072E-1
1.214006569E1;-7.282211781E-1;4.375714958E-1;-5.344547033E-1
1.215197663E1;-4.844161272E-1;3.555933833E-1;-4.620584548E-1
1.216388912E1;-1.405339092E-1;2.842617631E-1;-3.502701223E-1
1.217580006E1;8.517206460E-2;4.727049768E-1;-8.410741389E-2
1.218771256E1;7.239625603E-2;6.451784372E-1;1.533097178E-1
1.219962350E1;-3.300417587E-2;6.345319152E-1;3.268478215E-1
1.221153444E1;-1.703441292E-1;3.768863976E-1;4.056319594E-1
1.222344694E1;-2.693566680E-1;1.266934574E-1;4.535412490E-1
1.223535788E1;-3.172659576E-1;-6.494370103E-2;5.067738295E-1
1.224727038E1;-3.002315462E-1;-1.724734306E-1;5.440365672E-1
1.225918131E1;-2.320938855E-1;-2.491282970E-1;5.770407319E-1
1.227109225E1;-1.203055456E-1;-3.300417662E-1;6.292086244E-1
1.228300475E1;-4.258603323E-3;-4.258603454E-1;6.803118587E-1
1.229491569E1;1.277581006E-1;-5.866225958E-1;7.271565199E-1
1.230683600E1;2.171887755E-1;-7.143807411E-1;7.527081370E-1
1.231874069E1;2.810678184E-1;-8.219104409E-1;7.803890705E-1
1.233065163E1;3.055547774E-1;-8.985652924E-1;8.197811246E-1
1.234256256E1;3.023608327E-1;-9.028239250E-1;8.751429915E-1
1.235447506E1;2.863910794E-1;-8.261690736E-1;9.315694571E-1
1.236638913E1;2.608394623E-1;-7.186393142E-1;9.752201438E-1
1.237829850E1;2.161241174E-1;-5.940751433E-1;9.890606403E-1
1.239021725E1;1.746027321E-1;-5.429719090E-1;8.836601973E-1
1.240212038E1;5.962044746E-2;-5.749114752E-1;5.844933391E-1
1.241403288E1;-1.373399645E-1;-6.324025989E-1;2.171887755E-1
1.242595006E1;-4.684463516E-2;-4.056319594E-1;5.003859103E-2
1.243785631E1;1.682148278E-1;4.897394031E-2;5.003859103E-2
1.244976725E1;2.310292274E-1;4.098905623E-1;4.365068302E-2
1.246167819E1;1.384046078E-1;6.313379407E-1;-3.619812801E-2
1.247359069E1;9.581857361E-3;6.441137791E-1;-1.660855263E-1
1.248550163E1;-7.559020817E-2;5.270021558E-1;-2.757445574E-1
1.249741412E1;-1.160469428E-1;3.726277947E-1;-3.289771080E-1
1.250932506E1;-1.245641485E-1;2.480636388E-1;-3.587873280E-1
1.252123756E1;-8.304276317E-2;2.150594741E-1;-3.790156841E-1
1.253314850E1;5.323254038E-3;2.565808594E-1;-3.683691919E-1
1.254506100E1;1.256287992E-1;2.682920098E-1;-3.332357109E-1
1.255697194E1;3.311064243E-1;1.895078421E-1;-2.693566680E-1
1.256888600E1;6.025923491E-1;5.642649531E-2;-1.639562249E-1
1.258079538E1;7.793244123E-1;-5.429719388E-2;-7.133160532E-2
1.259270631E1;8.538499475E-1;-1.575683206E-1;2.235766686E-2
1.260462194E1;8.261690736E-1;-1.692794859E-1;6.387905031E-2
1.261652975E1;7.441909313E-1;-1.266934574E-1;8.517206460E-2
1.262844694E1;6.292086244E-1;-7.452555746E-2;1.128529906E-1
1.264035319E1;6.100449562E-1;-2.129301662E-3;1.415985674E-1
1.265226412E1;7.452555895E-1;1.362753063E-1;1.767320335E-1
1.266419538E1;9.219876528E-1;1.831199378E-1;2.150594741E-1
1.267608912E1;1.065715432E0;5.323254317E-2;2.746799290E-1
1.268800006E1;1.186021090E0;-2.842617631E-1;3.555933833E-1
1.269991100E1;1.289292216E0;-6.866998076E-1;4.098905623E-1
1.271182194E1;1.451119065E0;-9.390220642E-1;4.173431396E-1
1.272373444E1;1.637432933E0;-9.166643620E-1;3.981794119E-1
1.273564538E1;1.798195243E0;-6.973463297E-1;3.800803423E-1
1.274755631E1;1.873785496E0;-3.768863976E-1;3.811450005E-1
1.275946881E1;1.793936610E0;-1.799259931E-1;4.226663709E-1
1.277137975E1;1.603364110E0;-2.438050359E-1;4.716403186E-1
1.278330788E1;1.405339122E0;-4.439594150E-1;5.035798550E-1
1.279520319E1;1.236059666E0;-6.441137791E-1;5.270021558E-1
1.280711412E1;1.133853197E0;-6.952170134E-1;5.216789246E-1
1.281902663E1;1.033775926E0;-4.833514690E-1;4.886747301E-1
1.283093756E1;8.975006342E-1;1.809906401E-2;4.375714958E-1
1.284285006E1;6.419844627E-1;5.695881844E-1;4.950626493E-1
1.285476100E1;3.108780384E-1;8.602378964E-1;6.409198046E-1
1.286667350E1;2.555162087E-2;7.750658393E-1;7.559021115E-1
1.287858444E1;-6.920230389E-2;4.929333329E-1;7.314151525E-1
1.289049538E1;-7.665485889E-2;4.790928960E-2;5.695881844E-1
1.290240788E1;-1.075297371E-1;-1.703441292E-1;4.205370843E-1
1.291431881E1;-1.320167035E-1;-2.288999259E-1;2.640334070E-1
1.292623131E1;-7.133160532E-2;-1.628915817E-1;9.475392103E-2
1.293814225E1;-1.064650831E-3;-6.920230389E-2;-1.490511186E-2
1.295005475E1;-6.387905218E-3;-6.387905218E-3;-1.139176413E-1
1.296197194E1;-6.494370103E-2;-9.049531817E-2;-1.394692659E-1
1.297387819E1;-1.447925121E-1;-2.533869147E-1;-1.447925121E-1
1.298578912E1;-1.799259931E-1;-5.962044597E-1;-1.565036774E-1
1.299770006E1;-1.777966917E-1;-1.010353684E0;-2.214473784E-1
1.300961256E1;-1.298874021E-1;-1.324425697E0;-3.130073547E-1
1.302152506E1;-1.213701963E-1;-1.252029419E0;-3.279124498E-1
1.303343444E1;-1.437278688E-1;-7.079927921E-1;-2.810678184E-1
1.304534694E1;-1.756673902E-1;6.707300246E-2;-2.097362131E-1
1.305725788E1;-1.820552945E-1;6.228207350E-1;-1.586329788E-1
1.306917038E1;-1.405339092E-1;4.769635797E-1;-1.533097178E-1
1.308108756E1;-6.813765317E-2;-1.533097178E-1;-1.288227588E-1
1.309299381E1;4.790928960E-2;-9.209229946E-1;-2.022836544E-2
1.310491100E1;1.927018017E-1;-1.307391286E0;3.832742944E-2
1.311681569E1;3.832743168E-1;-1.181762457E0;3.726277873E-2
1.312872819E1;5.248728395E-1;-4.758989215E-1;1.809906401E-2
1.314063913E1;5.333900452E-1;3.726277873E-2;-5.110324174E-2
1.315255006E1;3.534640670E-1;6.174974889E-2;-1.905725002E-1
1.316446256E1;8.304276317E-2;-7.984881103E-2;-3.545287251E-1
1.317637350E1;-2.044129670E-1;5.429719388E-2;-5.397779942E-1
1.318828600E1;-4.854807854E-1;6.004630923E-1;-6.281439662E-1
1.320020162E1;-8.325569630E-1;1.200926185E0;-5.589416623E-1
1.321210788E1;-1.299938679E0;1.454313040E0;-4.535412490E-1
1.322402038E1;-1.974927306E0;1.429826021E0;-5.791700482E-1
1.323593131E1;-2.540256977E0;1.223283768E0;-8.613025546E-1
1.324784381E1;-2.844747066E0;1.226477742E0;-1.100848913E0
1.325976569E1;-2.795773029E0;1.855686426E0;-1.210507989E0
1.327167506E1;-2.709536314E0;2.956535339E0;-1.254158735E0
1.328358288E1;-2.833035946E0;4.092517853E0;-1.013547659E0
1.329548913E1;-2.937371731E0;3.904074669E0;-6.494370103E-1
1.330740162E1;-2.866039991E0;2.298581123E0;-1.799259931E-1
1.331931256E1;-2.584972143E0;6.143035293E-1;8.197811246E-2
1.333122350E1;-2.197439432E0;-5.738468170E-1;1.384046078E-1
1.334313600E1;-1.813100338E0;-1.477735400E0;1.107236892E-1
1.335504694E1;-1.565036774E0;-2.148465395E0;1.203055456E-1
1.336695944E1;-1.534161806E0;-2.614782572E0;1.969604045E-1
1.337889069E1;-1.798195243E0;-2.301775217E0;2.821324766E-1
1.339078131E1;-2.130366325E0;-1.471347451E0;4.035026729E-1
1.340269381E1;-2.193180799E0;-8.879188299E-1;5.993984342E-1
1.341460631E1;-1.839716673E0;-1.113624811E0;7.452555895E-1
1.342651725E1;-1.230736375E0;-1.951504946E0;7.559021115E-1
1.343842975E1;-7.686778903E-1;-2.807484150E0;7.420616150E-1
1.345034069E1;-4.269249737E-1;-3.435628176E0;8.080700040E-1
1.346225162E1;-2.352878302E-1;-3.466503143E0;9.347634315E-1
1.347416413E1;-1.256287992E-1;-3.135396719E0;1.095525742E0
1.348607506E1;-1.149822921E-1;-2.726570845E0;1.191344261E0
1.349798600E1;-2.150594741E-1;-2.197439432E0;1.197732210E0
1.350989850E1;-4.311835766E-1;-1.126400590E0;1.107236862E0
1.352180944E1;-6.355965734E-1;-1.064650831E-3;1.016741514E0
1.353372194E1;-7.292858362E-1;4.908040464E-1;1.038034558E0
1.354563288E1;-6.877644658E-1;2.033483088E-1;1.137047052E0
1.355754538E1;-6.366612315E-1;-2.257059813E-1;1.224348426E0
1.356945631E1;-5.312607884E-1;-4.727049768E-1;1.168986678E0
1.358136725E1;-3.811450005E-1;-7.026695609E-1;1.054004312E0
1.359327975E1;-2.076069117E-1;-9.134704471E-1;8.751429915E-1
1.360519069E1;3.513347730E-2;-1.143435001E0;5.866225958E-1
1.361710319E1;2.022836655E-1;-1.147693634E0;3.502701223E-1
1.362901881E1;4.173431396E-1;-8.378801942E-1;2.246413231E-1
1.364092506E1;6.366612315E-1;-3.960501254E-1;2.917143404E-1
1.365283756E1;7.399323583E-1;-3.534640670E-1;5.365840197E-1
1.366474850E1;5.983337760E-1;-5.951398015E-1;8.772723079E-1
1.367665944E1;1.863138974E-1;-6.292086244E-1;1.080620646E0
1.368857194E1;6.707300246E-2;-2.203827202E-1;1.091267109E0
1.370048288E1;3.321710527E-1;1.650208831E-1;9.613797069E-1
1.371239538E1;5.621356368E-1;3.832742944E-2;7.740011811E-1
1.372430631E1;6.153681874E-1;-1.831199378E-1;3.481408358E-1
1.373622506E1;5.791700482E-1;-2.459343374E-1;-1.927018017E-1
1.374812975E1;5.429719090E-1;-1.958957613E-1;-5.695881844E-1
1.376004225E1;5.206142664E-1;-1.298874021E-1;-6.877644658E-1
1.377195319E1;5.184849501E-1;-2.959729433E-1;-7.037342191E-1
1.378386413E1;6.121742129E-1;-5.632002950E-1;-7.260918617E-1
1.379577506E1;7.452555895E-1;-6.121742129E-1;-6.643421054E-1
1.380768756E1;7.686778903E-1;-4.801575243E-1;-5.291314721E-1
1.381959850E1;5.898165703E-1;-3.704984784E-1;-3.311064243E-1
1.383151100E1;1.330813617E-1;-4.460887015E-1;-5.216789246E-2
1.384342194E1;-5.184849501E-1;-5.834286809E-1;1.565036774E-1
1.385533444E1;-1.165792704E0;-2.629687488E-1;2.981022298E-1
1.386724694E1;-1.242447495E0;5.812993646E-1;3.034254909E-1
1.387915788E1;-5.972691178E-1;1.139176369E0;8.517206460E-2
1.389106881E1;9.581857920E-2;1.239253521E0;-4.343775511E-1
1.390298131E1;1.660855263E-1;2.135689497E0;-1.034840584E0
1.391489225E1;5.600063205E-1;3.900880575E0;-1.368076324E0
1.392680475E1;1.815229654E0;4.378909111E0;-1.026323438E0
1.393871569E1;2.360330820E0;5.472305417E-1;-6.398551464E-1
1.395062663E1;2.343296528E0;-3.581485510E0;-8.272337317E-1
1.396253913E1;1.477735400E0;-3.439886808E0;-1.551196218E0
1.397445162E1;1.151952267E0;1.023129463E0;-2.241090059E0
1.398637662E1;1.817358971E0;9.645736814E-1;-2.166564465E0
1.399827350E1;2.236831427E0;-6.526309848E-1;-1.328684211E0
1.401018444E1;2.112267256E0;-9.709615707E-1;-3.162012994E-1
1.402209694E1;1.551196218E0;-4.194724262E-1;3.896622062E-1
1.403402819E1;8.410741687E-1;2.086715698E-1;5.248728395E-1
1.404592038E1;6.771179438E-1;6.611481905E-1;2.352878302E-1
1.405783131E1;9.922545552E-1;8.421388268E-1;-2.640334070E-1
1.406974225E1;1.274387002E0;7.505788207E-1;-5.451012254E-1
1.408165475E1;1.362753034E0;5.270021558E-1;-5.855579376E-1
1.409356569E1;1.315908432E0;3.768863976E-1;-5.844933391E-1
1.410548288E1;1.219025254E0;3.715631366E-1;-6.036570072E-1
1.411738912E1;1.089137793E0;4.684463739E-1;-6.579542160E-1
1.412930006E1;9.698969126E-1;5.142263770E-1;-7.079927921E-1
1.414121256E1;8.900480866E-1;4.354421794E-1;-7.324797511E-1
1.415312819E1;8.719490170E-1;3.949854672E-1;-6.813765168E-1
1.416503444E1;9.187936783E-1;5.451012254E-1;-5.014505386E-1
1.417694694E1;1.033775926E0;8.527853489E-1;-1.916371584E-1
1.418885788E1;1.048681021E0;1.133853197E0;5.749114603E-2
1.420077038E1;9.155997038E-1;1.141305685E0;1.437278688E-1
1.421269850E1;7.069281340E-1;8.442681432E-1;1.054004356E-1
1.422459225E1;4.439594150E-1;3.662398756E-1;-4.258603323E-3
1.423650631E1;2.810678184E-1;-6.494370103E-2;-1.054004356E-1
1.424841569E1;2.427403927E-1;-4.375714958E-1;-1.831199378E-1
1.426032819E1;3.076840937E-1;-3.747570813E-1;-2.512575984E-1
1.427224538E1;4.258603454E-1;3.279124498E-1;-2.469989955E-1
1.428415163E1;4.801575243E-1;9.922545552E-1;-1.362753063E-1
1.429606256E1;4.024380147E-1;1.303132653E0;4.258603230E-2
1.430797350E1;2.480636388E-1;1.290356874E0;1.650208831E-1
1.431988600E1;1.224348471E-1;1.005030394E0;1.980250627E-1
1.433179694E1;4.577998444E-2;7.165099978E-1;2.086715698E-1
1.434370944E1;4.258603323E-3;6.909583807E-1;2.597748041E-1
1.435562038E1;-1.384046115E-2;8.708843589E-1;3.215245605E-1
1.436753288E1;-4.365068302E-2;1.198796868E0;3.598519862E-1
1.437944381E1;-1.394692659E-1;1.430890679E0;3.641105890E-1
1.439135475E1;-2.363524884E-1;9.816080928E-1;2.555162013E-1
1.440327819E1;-1.841845959E-1;2.076069117E-1;1.501157731E-1
1.441517819E1;-5.323254038E-3;-5.195496082E-1;9.901253134E-2
1.442709069E1;2.225120217E-1;-8.474620581E-1;9.475392103E-2
1.443900163E1;4.790928662E-1;-6.792472601E-1;7.771950960E-2
1.445091881E1;5.770407319E-1;-1.905725002E-1;2.874557301E-2
1.446282975E1;5.291314721E-1;2.459343374E-1;-1.128529906E-1
1.447473756E1;3.704984784E-1;4.428947568E-1;-3.172659576E-1
1.448664850E1;2.044129670E-1;4.141491652E-1;-4.450240433E-1
1.449855944E1;7.771950960E-2;3.406882584E-1;-4.737696350E-1
1.451047819E1;-5.323254038E-3;3.353650272E-1;-3.971147537E-1
1.452238288E1;-8.091346174E-2;4.162784815E-1;-2.438050359E-1
1.453430631E1;-1.266934574E-1;4.503473043E-1;-1.224348471E-1
1.454620631E1;-1.895078421E-1;3.587873280E-1;-6.387905031E-2
1.455811725E1;-2.714859545E-1;1.054004356E-1;-7.452555746E-2
1.457002975E1;-3.332357109E-1;-9.155996889E-2;-6.707300246E-2
1.458194069E1;-3.641105890E-1;-9.475392103E-2;-1.320167035E-1
1.459385163E1;-4.035026729E-1;2.086715698E-1;-2.906496823E-1
1.460576412E1;-5.834286809E-1;1.048681021E0;-5.685235262E-1
1.461767506E1;-1.445795894E0;2.179340363E0;-1.042293191E0
1.462960944E1;-2.307098389E0;2.538127661E0;-1.514998198E0
1.464149850E1;-2.863910675E0;2.108008623E0;-1.884431958E0
1.465341100E1;-2.979957819E0;1.415985584E0;-2.065422535E0
1.466532194E1;-2.723376751E0;8.772723079E-1;-2.026030540E0
1.467723444E1;-2.293257952E0;5.525537729E-1;-1.889755249E0
1.468914538E1;-1.972797990E0;7.761304379E-1;-1.757738590E0
1.470105631E1;-1.733251572E0;1.365947008E0;-1.427696824E0
1.471296725E1;-1.363817692E0;1.629980445E0;-9.635090232E-1
1.472487975E1;-8.559792638E-1;6.803118587E-1;-5.429719090E-1
1.473679225E1;-2.320938855E-1;-8.687551022E-1;-3.300417662E-1
1.474870319E1;1.032711342E-1;-1.517127395E0;-3.534640670E-1
1.476061413E1;1.927018017E-1;-1.596976280E0;-4.663170576E-1
1.477252663E1;-8.091346174E-2;-1.126400590E0;-6.324025989E-1
1.478443756E1;-5.642649531E-1;-3.162012994E-1;-7.612253428E-1
1.479634850E1;-9.549918175E-1;6.536956429E-1;-7.058635354E-1
1.480827663E1;-9.198583364E-1;1.045487165E0;-6.015277505E-1
1.482017506E1;-6.015277505E-1;9.677675962E-1;-5.451012254E-1
1.483208288E1;-1.160469428E-1;4.045673311E-1;-3.790156841E-1
1.484399538E1;1.469218135E-1;-4.045673311E-1;-5.110324174E-2
1.485590788E1;9.155996889E-2;-1.042293191E0;2.853264213E-1
1.486782194E1;1.277581044E-2;-1.266934514E0;4.833514690E-1
1.487972975E1;9.262461960E-2;-1.082749963E0;5.621356368E-1
1.489164538E1;4.237310290E-1;-6.568895578E-1;5.078384280E-1
1.490355319E1;9.975778461E-1;-3.119426966E-1;4.056319594E-1
1.491546569E1;1.474541426E0;-5.216789246E-1;4.056319594E-1
1.492739850E1;1.742833376E0;-1.054004312E0;4.993212521E-1
1.493928912E1;2.029224396E0;-1.766255736E0;6.270793676E-1
1.495120319E1;2.227249622E0;-2.287934542E0;7.399323583E-1
1.496311256E1;2.322003365E0;-2.747863770E0;8.442681432E-1
1.497502350E1;2.180404902E0;-3.017220497E0;7.740011811E-1
1.498694225E1;1.655532002E0;-2.576455116E0;4.886747301E-1
1.499884694E1;8.346862793E-1;-1.344653964E0;2.576455176E-1
1.501075788E1;6.792472601E-1;-4.003087282E-1;3.917915225E-1
1.502267038E1;9.517978430E-1;1.043357849E-1;5.568124056E-1
1.503458131E1;9.145350456E-1;3.747570813E-1;3.598519862E-1
1.504649225E1;4.588645101E-1;8.900480866E-1;-1.160469428E-1
1.505840475E1;-7.771950960E-2;1.772643685E0;-5.568124056E-1
1.507031569E1;-1.501157731E-1;2.504058838E0;-7.303504944E-1
1.508222819E1;1.032711342E-1;2.653109789E0;-7.686778903E-1
1.509413913E1;1.958957613E-1;2.322003365E0;-8.038113713E-1
1.510605163E1;2.214473784E-1;1.538420439E0;-5.940751433E-1
1.511796412E1;3.736924529E-1;4.727049768E-1;-1.352106631E-1
1.512987506E1;4.535412490E-1;-6.004630923E-1;2.108008713E-1
1.514178444E1;3.790156841E-1;-1.132788539E0;2.044129670E-1
1.515369694E1;2.800031602E-1;-1.381916761E0;1.458571702E-1
1.516561569E1;2.800031602E-1;-1.216895938E0;7.984881103E-2
1.517752038E1;3.044901490E-1;-8.038113713E-1;2.981022373E-2
1.518943131E1;3.406882584E-1;-4.908040464E-1;3.406882659E-2
1.520134381E1;3.417529166E-1;-4.556705654E-1;-1.490511186E-2
1.521325475E1;2.363524884E-1;-3.800803423E-1;-1.671501845E-1
1.522517194E1;1.660855263E-1;-1.522450745E-1;-2.257059813E-1
1.523707819E1;2.831971347E-1;-2.523222566E-1;-1.224348471E-1
1.524899069E1;3.736924529E-1;-6.281439662E-1;6.387905218E-3
1.526090162E1;3.321710527E-1;-9.965131879E-1;2.235766798E-1
1.527281256E1;2.331585288E-1;-1.115754128E0;4.929333329E-1
1.528472506E1;9.368927032E-2;-9.592503905E-1;7.335444093E-1
1.529663600E1;-7.452555932E-3;-6.260147095E-1;8.847248554E-1
1.530854694E1;6.174974889E-2;-4.216017425E-1;8.400095105E-1
1.532045944E1;1.234994978E-1;-2.108008713E-1;5.067738295E-1
1.533237038E1;1.692794859E-1;-1.628915817E-1;2.448697016E-2
1.534429538E1;1.767320335E-1;-1.905725002E-1;-1.320167035E-1
1.535620475E1;1.905725002E-1;-1.884431988E-1;-6.813765317E-2
1.536810631E1;2.342231870E-1;-2.150594741E-1;8.410741389E-2
1.538001725E1;2.459343374E-1;-8.517206647E-3;2.342231870E-1
1.539192819E1;2.406110913E-1;2.949082851E-1;2.044129670E-1
1.540384069E1;1.746027321E-1;4.876100719E-1;2.576455176E-1
1.541575631E1;7.026695460E-2;5.951398015E-1;4.098905623E-1
1.542766413E1;1.384046115E-2;5.152910352E-1;6.111095548E-1
1.543957506E1;5.536184460E-2;2.917143404E-1;7.335444093E-1
1.545148756E1;1.703441292E-1;9.049531817E-2;7.793244123E-1
1.546340006E1;2.810678184E-1;3.406882659E-2;7.761304379E-1
1.547531100E1;3.875329196E-1;-1.309520602E-1;7.324797511E-1
1.548722194E1;4.641877711E-1;-3.641105890E-1;6.962816715E-1
1.549913288E1;4.716403186E-1;-3.790156841E-1;6.717946529E-1
1.551104538E1;4.386361539E-1;-9.794788063E-2;5.898165703E-1
1.552296256E1;4.237310290E-1;2.001543641E-1;5.152910352E-1
1.553486725E1;4.226663709E-1;4.684463739E-1;4.876100719E-1
1.554677975E1;4.365068376E-1;7.388677001E-1;4.971919358E-1
1.555869069E1;4.609938264E-1;9.848020077E-1;5.163556337E-1
1.557060319E1;4.844161272E-1;1.414920926E0;5.131617188E-1
1.558251725E1;4.801575243E-1;1.861009717E0;4.769635797E-1
1.559442506E1;4.727049768E-1;2.039870977E0;4.290542901E-1
1.560633756E1;4.375714958E-1;1.997285008E0;4.109552205E-1
1.561824850E1;3.502701223E-1;2.014319420E0;3.896622062E-1
1.563016100E1;2.331585288E-1;1.987703085E0;3.225892186E-1
1.564209538E1;1.160469428E-1;1.554390192E0;2.885203660E-1
1.565398288E1;-2.768092230E-2;8.261690736E-1;2.885203660E-1
1.566589538E1;-1.565036774E-1;-1.490511186E-2;2.544515431E-1
1.567780631E1;-1.394692659E-1;-8.698197603E-1;1.160469428E-1
1.568971881E1;-3.619812801E-2;-1.616140008E0;-1.203055456E-1
1.570162975E1;1.277581044E-2;-2.085650921E0;-3.609166443E-1
1.571354069E1;-7.559020817E-2;-2.237895966E0;-6.068509817E-1
1.572545319E1;-2.800031602E-1;-1.997285008E0;-7.974234819E-1
1.573736413E1;-5.142263770E-1;-1.401080489E0;-8.996299505E-1
1.574927662E1;-7.899709344E-1;-2.416757345E-1;-9.102764726E-1
1.576119381E1;-9.709615707E-1;1.059327602E0;-7.793244123E-1
1.577309850E1;-9.943838716E-1;1.798195243E0;-5.993984342E-1
1.578501100E1;-9.251815677E-1;1.932341218E0;-4.673817158E-1
1.579692194E1;-8.975006342E-1;1.594846964E0;-4.247956872E-1
1.580883444E1;-1.077426672E0;8.730136752E-1;-5.195496082E-1
1.582074538E1;-1.254158735E0;-1.841845959E-1;-6.739239693E-1
1.583265631E1;-1.076362014E0;-9.848020077E-1;-6.387904882E-1
1.584457506E1;-7.441909313E-1;-1.473476768E0;-4.577998519E-1
1.585648131E1;-5.174202919E-1;-1.439407945E0;-3.055547774E-1
1.586839225E1;-3.694338500E-1;-1.135982394E0;-1.586329788E-1
1.588030319E1;-3.055547774E-1;-7.718718648E-1;-1.703441329E-2
1.589221725E1;-3.055547774E-1;-4.705756605E-1;2.768092230E-2
1.590412663E1;-3.545287251E-1;-2.448696941E-1;-2.235766686E-2
1.591603913E1;-4.056319594E-1;-1.405339092E-1;-7.665485889E-2
1.592795006E1;-4.439594150E-1;-7.452555746E-2;-1.533097178E-1
1.593987662E1;-4.460887015E-1;6.068509817E-2;-2.214473784E-1
1.595177350E1;-4.397007823E-1;3.311064243E-1;-3.108780384E-1
1.596368444E1;-3.949854672E-1;5.344547033E-1;-3.619812727E-1
1.597559694E1;-2.299645841E-1;5.685235262E-1;-3.555933833E-1
1.598750788E1;9.581857920E-2;4.162784815E-1;-2.981022298E-1
1.599942506E1;3.949854672E-1;9.688322991E-2;-1.969604045E-1
1.601133131E1;5.962044597E-1;-4.918686748E-1;-4.365068302E-2
1.602324381E1;6.590188742E-1;-1.124271274E0;9.155996889E-2
1.603515475E1;6.824411750E-1;-1.734316230E0;2.022836655E-1
1.604706569E1;7.218332887E-1;-2.028159857E0;2.384817898E-1
1.605898444E1;7.186393142E-1;-1.939793825E0;2.076069117E-1
1.607088912E1;6.164328456E-1;-1.608687401E0;1.181762442E-1
1.608280319E1;3.481408358E-1;-8.953713775E-1;-1.384046115E-2
1.609471256E1;-1.277581044E-2;2.448697016E-2;-8.197811246E-2
1.610662350E1;-3.790156841E-1;6.675360799E-1;-9.688322991E-2
1.611853756E1;-5.866225958E-1;7.899709344E-1;-1.064650863E-1
1.613044850E1;-6.217560768E-1;7.963588238E-1;-6.068509817E-2
1.614235788E1;-3.811450005E-1;6.483723521E-1;1.554390192E-1
1.615427038E1;-3.832742944E-2;4.066966176E-1;3.896622062E-1
1.616618131E1;2.076069117E-1;2.555162013E-1;4.716403186E-1
1.617809225E1;3.247185051E-1;1.405339092E-1;4.152138233E-1
1.619001412E1;4.439594150E-1;1.596976258E-2;3.545287251E-1
1.620191569E1;6.473076940E-1;-4.045673087E-2;3.002315462E-1
1.621382819E1;8.815308809E-1;6.600835174E-2;2.981022298E-1
1.622573912E1;1.158340096E0;5.610709786E-1;3.204599023E-1
1.623765162E1;1.205184698E0;1.155146122E0;3.236538470E-1
1.624956413E1;8.453327417E-1;1.238188982E0;2.682920098E-1
1.626147350E1;2.693566680E-1;8.730136752E-1;1.714087874E-1
1.627338600E1;-1.171115935E-1;2.395464331E-1;1.394692659E-1
1.628529694E1;-1.022064835E-1;-2.469989955E-1;2.012190074E-1
1.629720944E1;9.049531817E-2;-4.226663709E-1;2.736152709E-1
1.630912038E1;2.225120217E-1;-3.545287251E-1;2.885203660E-1
1.632103131E1;2.097362131E-1;-1.522450745E-1;2.469989955E-1
1.633294381E1;9.049531817E-2;7.559020817E-2;2.491282970E-1
1.634485631E1;-4.152138159E-2;1.692794859E-1;2.608394623E-1
1.635676881E1;-1.384046078E-1;-3.513347730E-2;2.576455176E-1
1.636867819E1;-1.799259931E-1;-4.727049768E-1;2.491282970E-1
1.638059069E1;-1.426632106E-1;-9.006946087E-1;2.459343374E-1
1.639250162E1;-4.045673087E-2;-1.303132653E0;2.214473784E-1
1.640441413E1;7.559020817E-2;-1.523515344E0;1.671501845E-1
1.641633131E1;1.831199378E-1;-1.519256711E0;1.064650863E-1
1.642823756E1;2.991668880E-1;-1.370205641E0;7.452555932E-3
1.644015788E1;3.907268643E-1;-1.125335932E0;-1.234994978E-1
1.645206725E1;4.631231129E-1;-6.515663266E-1;-3.289771080E-1
1.646397194E1;4.588645101E-1;1.990897059E-1;-5.120970607E-1
1.647588913E1;2.810678184E-1;8.911127448E-1;-5.919458866E-1
1.648779538E1;-1.596976221E-1;9.549918175E-1;-5.610709786E-1
1.649970631E1;-6.324025989E-1;5.184849501E-1;-4.407654405E-1
1.651161725E1;-9.656383395E-1;-1.064650831E-3;-2.544515431E-1
1.652352975E1;-9.911899567E-1;-3.311064243E-1;-1.075297371E-1
1.653544069E1;-8.314923048E-1;-4.982565939E-1;1.171115879E-2
1.654735319E1;-6.302732825E-1;-5.823640227E-1;1.000771821E-1
1.655926413E1;-4.077612758E-1;-7.165099978E-1;1.022064835E-1
1.657117506E1;-2.459343374E-1;-8.794015646E-1;4.365068302E-2
1.658308756E1;-1.362753063E-1;-9.954485297E-1;-4.258603323E-3
1.659502975E1;-1.011418328E-1;-9.241169095E-1;-8.197811246E-2
1.660691100E1;-1.266934574E-1;-5.866225958E-1;-1.820552945E-1
1.661882975E1;-2.097362131E-1;-3.619812801E-2;-3.321710527E-1
1.663073288E1;-2.757445574E-1;2.384817898E-1;-4.567352235E-1
1.664264538E1;-3.268478215E-1;1.618269235E-1;-4.971919358E-1
1.665457819E1;-4.066966176E-1;5.536184460E-2;-4.556705654E-1
1.666646881E1;-5.110324025E-1;6.494370103E-2;-3.747570813E-1
1.667838131E1;-5.802347064E-1;4.577998444E-2;-3.044901490E-1
1.669029069E1;-6.526309848E-1;6.813765317E-2;-2.299645841E-1
1.670220319E1;-6.909583807E-1;9.368927032E-2;-1.788613349E-1
1.671411413E1;-6.686007380E-1;1.224348471E-1;-1.469218135E-1
1.672605006E1;-6.217560768E-1;9.049531817E-2;-8.091346174E-2
1.673793756E1;-6.089802980E-1;9.901253134E-2;-4.577998444E-2
1.674984850E1;-6.813765168E-1;1.447925121E-1;-3.939208016E-2
1.676176100E1;-8.804662228E-1;1.085943878E-1;-5.003859103E-2
1.677367350E1;-1.167922020E0;5.536184460E-2;-3.832742944E-2
1.678559538E1;-1.486252546E0;1.490511186E-2;-5.003859103E-2
1.679749538E1;-1.445795894E0;-1.831199378E-1;-1.000771821E-1
1.680940631E1;-1.178568482E0;-4.418300986E-1;-1.298874021E-1
1.682131881E1;-1.032711267E0;-6.270793676E-1;-1.107236892E-1
1.683323131E1;-1.065715432E0;-6.813765168E-1;-1.224348471E-1
1.684514225E1;-1.098719716E0;-6.952170134E-1;-1.309520602E-1
1.685705319E1;-1.140241027E0;-6.536956429E-1;-1.256287992E-1
1.686896569E1;-1.278645635E0;-5.451012254E-1;-1.000771821E-1
1.688087663E1;-1.326554894E0;-6.387904882E-1;-6.387905218E-3
1.689279538E1;-1.227542400E0;-8.868541718E-1;1.096590385E-1
1.690470006E1;-9.922545552E-1;-1.214766622E0;1.767320335E-1
1.691661256E1;-7.654839754E-1;-1.374464273E0;1.820552945E-1
1.692852350E1;-8.634318113E-1;-1.147693634E0;1.479864717E-1
1.694043444E1;-1.023129463E0;-7.942295074E-1;5.962044746E-2
1.695236413E1;-1.140241027E0;-6.174974889E-2;-7.239625603E-2
1.696425788E1;-1.137047052E0;4.599291682E-1;-1.916371584E-1
1.697617038E1;-9.390220642E-1;0.000000000E0;-1.788613349E-1
1.698808131E1;-7.601606846E-1;-8.219104409E-1;-2.235766686E-2
1.699999381E1;-6.962816715E-1;-1.356365204E0;2.288999259E-1
1.701191100E1;-6.654067636E-1;-1.310585141E0;3.598519862E-1
1.702382194E1;-6.004630923E-1;-1.062521577E0;3.641105890E-1
1.703572819E1;-3.343003690E-1;-1.510739565E0;1.958957613E-1
1.704763912E1;4.471533597E-1;-2.418886662E0;2.874557301E-2
1.705955006E1;7.899709344E-1;-2.366718769E0;1.245641485E-1
1.707146881E1;4.216017425E-1;-1.254158735E0;3.492054641E-1
1.708337662E1;-1.522450745E-1;-3.034254909E-1;6.739239693E-1
1.709528600E1;-1.990897059E-1;-2.619041204E-1;9.368927479E-1
1.710719694E1;1.671501845E-1;-5.632002950E-1;1.138111711E0
1.711910788E1;3.523994386E-1;-4.322482347E-1;1.330813527E0
1.713102038E1;4.482180178E-1;-1.533097178E-1;1.524580002E0
1.714293131E1;4.130845368E-1;4.045673311E-1;1.568230629E0
1.715484381E1;2.544515431E-1;8.900480866E-1;1.405339122E0
1.716675475E1;2.810678184E-1;8.857895136E-1;1.043357849E0
1.717866725E1;4.577998519E-1;6.568895578E-1;8.165872097E-1
1.719057819E1;4.098905623E-1;6.164328456E-1;8.197811246E-1
1.720248912E1;2.352878302E-1;5.493598580E-1;7.782597542E-1
1.721440162E1;1.043357849E-1;2.097362131E-1;7.420616150E-1
1.722631256E1;-1.809906401E-2;-1.330813617E-1;9.038885832E-1
1.723822350E1;-2.235766686E-2;-2.842617631E-1;1.089137793E0
1.725015631E1;1.043357849E-1;-4.216017425E-1;1.104042888E0
1.726204694E1;2.288999259E-1;-4.205370843E-1;1.047616482E0
1.727396569E1;4.343775511E-1;-6.707300246E-2;9.102764726E-1
1.728587038E1;6.387904882E-1;3.470761776E-1;7.143807411E-1
1.729778131E1;8.229750991E-1;7.409969568E-1;4.333128929E-1
1.730969381E1;8.293629885E-1;8.634318113E-1;3.321710527E-1
1.732160475E1;6.526309848E-1;6.973463297E-1;3.715631366E-1
1.733351725E1;2.299645841E-1;2.225120217E-1;5.355193615E-1
1.734542819E1;-2.629687488E-1;-1.820552945E-1;7.218332887E-1
1.735734069E1;-7.921002507E-1;-4.279896319E-1;9.230522513E-1
1.736925162E1;-1.104042888E0;-3.992440701E-1;9.549918175E-1
1.738116412E1;-1.335072160E0;-1.895078421E-1;8.975006342E-1
1.739307663E1;-1.506480932E0;2.661627233E-1;7.356737256E-1
1.740498756E1;-1.343589306E0;1.044422507E0;4.439594150E-1
1.741689850E1;-4.822868407E-1;2.113332033E0;-1.330813617E-1
1.742880944E1;4.013733566E-1;2.313486338E0;-5.962044597E-1
1.744073131E1;1.039099216E0;2.027095318E0;-7.921002507E-1
1.745263756E1;1.370205641E0;1.710893869E0;-7.803890705E-1
1.746454538E1;1.344653964E0;1.481993914E0;-6.835058331E-1
1.747645631E1;1.095525742E0;1.263740540E0;-5.930105448E-1
1.748836881E1;7.974234819E-1;1.095525742E0;-5.206142664E-1
1.750027975E1;5.930105448E-1;1.035905242E0;-4.833514690E-1
1.751219538E1;4.205370843E-1;1.142370343E0;-4.908040464E-1
1.752410319E1;3.832743168E-1;1.451119065E0;-5.323254466E-1
1.753602038E1;4.833514690E-1;1.771579027E0;-5.706528425E-1
1.754792663E1;7.090574503E-1;1.730057597E0;-5.685235262E-1
1.755983756E1;1.122141957E0;1.238188982E0;-5.099677444E-1
1.757175006E1;1.521386027E0;7.228979468E-1;-4.620584548E-1
1.758366100E1;1.857815742E0;4.418300986E-1;-5.270021558E-1
1.759557350E1;2.005802155E0;4.546059072E-1;-7.133160830E-1
1.760750475E1;1.999414325E0;5.110324025E-1;-8.985652924E-1
1.761939538E1;1.957892895E0;4.269249737E-1;-9.784141183E-1
1.763130631E1;1.891884565E0;2.629687488E-1;-9.592503905E-1
1.764321881E1;1.781160831E0;1.096590385E-1;-8.506560326E-1
1.765512975E1;1.601234913E0;-6.600835174E-2;-6.111095548E-1
1.766704225E1;1.511804223E0;-5.216789246E-2;-4.641877711E-1
1.767895319E1;1.429826021E0;-6.387905031E-2;-4.333128929E-1
1.769086412E1;1.419179559E0;-1.724734306E-1;-4.897393882E-1
1.770277663E1;1.513933539E0;-2.001543641E-1;-5.099677444E-1
1.771468756E1;1.621463180E0;-1.181762442E-1;-4.407654405E-1
1.772659850E1;1.623592496E0;-9.475392103E-2;-3.364296556E-1
1.773851100E1;1.522450686E0;-1.682148278E-1;-2.214473784E-1
1.775042194E1;1.297809362E0;-3.417529166E-1;-7.665485889E-2
1.776233444E1;1.003965735E0;-4.780282378E-1;8.091346174E-2
1.777424538E1;5.589416623E-1;-3.066194355E-1;2.022836655E-1
1.778615631E1;1.852492392E-1;1.916371584E-1;1.234994978E-1
1.779806881E1;-3.460115194E-1;1.038034558E0;1.288227588E-1
1.780998288E1;-8.251044154E-1;1.557584167E0;3.151366413E-1
1.782189225E1;-1.023129463E0;9.422159791E-1;4.418300986E-1
1.783380475E1;-8.921774030E-1;-5.429719388E-2;3.002315462E-1
1.784571881E1;-5.472305417E-1;-4.482180178E-1;8.091346174E-2
1.785762819E1;3.726277873E-2;-2.523222566E-1;-7.239625603E-2
1.786954538E1;5.067738295E-1;-1.277581006E-1;-1.501157731E-1
1.788145006E1;7.708072066E-1;-2.576455176E-1;-2.342231870E-1
1.789336100E1;7.590960264E-1;-4.184077680E-1;-2.491282970E-1
1.790527350E1;6.068509817E-1;-5.759761333E-1;-1.341460049E-1
1.791718600E1;3.726277947E-1;-6.717946529E-1;-9.581857361E-3
1.792909694E1;2.438050359E-1;-6.334672570E-1;-4.471533373E-2
1.794100788E1;1.554390192E-1;-5.759761333E-1;-6.174974889E-2
1.795292038E1;6.920230389E-2;-5.738468170E-1;-1.384046115E-2
1.796483131E1;3.406882659E-2;-6.536956429E-1;4.684463516E-2
1.797674225E1;6.600835174E-2;-7.441909313E-1;7.878416032E-2
1.798865475E1;9.049531817E-2;-7.878416181E-1;1.213701963E-1
1.800057350E1;5.855579674E-2;-8.783369660E-1;1.330813617E-1
1.801247819E1;-3.193952609E-3;-9.411513209E-1;9.155996889E-2
1.802438913E1;-4.152138159E-2;-8.570439219E-1;6.068509817E-2
1.803630006E1;-1.596976258E-2;-6.526309848E-1;5.855579674E-2
1.804821881E1;4.577998444E-2;-3.449468613E-1;5.429719388E-2
1.806012350E1;9.794788063E-2;-9.581857920E-2;5.962044746E-2
1.807203600E1;1.245641485E-1;1.064650863E-1;6.494370103E-2
1.808395788E1;9.794788063E-2;2.895850241E-1;8.836601675E-2
1.809585944E1;2.022836544E-2;4.365068376E-1;7.771950960E-2
1.810778756E1;-1.224348471E-1;5.099677444E-1;2.661627159E-2
1.811968131E1;-2.672273517E-1;4.247956872E-1;1.064650808E-2
1.813159381E1;-3.992440701E-1;1.788613349E-1;6.813765317E-2
1.814351100E1;-4.460887015E-1;-8.623671532E-2;1.107236892E-1
1.815541569E1;-4.546059072E-1;-3.268478215E-1;1.203055456E-1
1.816732819E1;-4.439594150E-1;-4.695110321E-1;1.085943878E-1
1.817923913E1;-4.247956872E-1;-5.248728395E-1;7.452555746E-2
1.819115162E1;-4.152138233E-1;-4.812221825E-1;1.064650808E-2
1.820306569E1;-4.290542901E-1;-3.822096586E-1;-7.452555746E-2
1.821497350E1;-4.535412490E-1;-1.895078421E-1;-2.235766798E-1
1.822688600E1;-4.865454435E-1;-9.581857361E-3;-3.651752472E-1
1.823879850E1;-5.344547033E-1;2.012190074E-1;-4.397007823E-1
1.825070944E1;-5.812993646E-1;5.110324025E-1;-4.290542901E-1
1.826262663E1;-6.004630923E-1;8.900480866E-1;-3.555933833E-1
1.827453131E1;-5.866225958E-1;1.340395451E0;-2.033483088E-1
1.828644381E1;-5.387133360E-1;1.514998198E0;-9.794788063E-2
1.829835475E1;-4.386361539E-1;1.384046078E0;3.193952516E-2
1.831026725E1;-3.193952441E-1;7.889062762E-1;2.182534188E-1
1.832217819E1;-2.139948159E-1;9.581857361E-3;4.152138233E-1
1.833409069E1;-9.049531817E-2;-5.429719090E-1;5.866225958E-1
1.834600162E1;8.517206647E-3;-5.280668139E-1;6.728593111E-1
1.835791412E1;1.139176413E-1;-1.554390192E-1;5.876872540E-1
1.836982506E1;1.384046078E-1;8.868541718E-1;3.268478215E-1
1.838173913E1;-7.559020817E-2;1.894013882E0;2.118655145E-1
1.839364850E1;-3.108780384E-1;2.299645901E0;1.628915817E-1
1.840555944E1;-2.736152709E-1;1.647014856E0;2.949082851E-1
1.841747194E1;1.266934574E-1;6.281439960E-2;5.355193615E-1
1.842938288E1;5.844933391E-1;-1.557584167E0;8.133932352E-1
1.844129538E1;8.155225515E-1;-2.581778288E0;8.325569630E-1
1.845320631E1;9.134704471E-1;-2.942694902E0;7.111867666E-1
1.846511725E1;1.000771761E0;-2.809613466E0;5.930105448E-1
1.847702975E1;1.076362014E0;-2.368848085E0;5.589416623E-1
1.848894069E1;1.183891773E0;-1.552260876E0;5.472305417E-1
1.850085475E1;1.259481907E0;-8.304276466E-1;4.780282378E-1
1.851276412E1;1.320167065E0;-2.012190074E-1;3.183306158E-1
1.852467506E1;1.385110736E0;3.523994386E-1;9.475392103E-2
1.853658756E1;1.452183723E0;7.686778903E-1;-6.813765317E-2
1.854849850E1;1.528838634E0;1.173245192E0;-5.003859103E-2
1.856041100E1;1.537355781E0;1.382981420E0;1.064650863E-1
1.857233131E1;1.445795894E0;1.507545590E0;3.598519862E-1
1.858423288E1;1.213701963E0;1.526709318E0;5.908812284E-1
1.859614538E1;8.698197603E-1;1.358494520E0;7.729365230E-1
1.860805631E1;6.270793676E-1;7.963588238E-1;8.197811246E-1
1.861996881E1;5.727821589E-1;-1.277581044E-2;7.122514248E-1
1.863187975E1;6.004630923E-1;-7.835830450E-1;5.152910352E-1
1.864379069E1;6.111095548E-1;-1.060392261E0;3.704984784E-1
1.865570319E1;5.621356368E-1;-9.400866628E-1;2.480636388E-1
1.866761412E1;4.279896319E-1;-6.281439662E-1;9.688322991E-2
1.867953131E1;3.321710527E-1;-3.076840937E-1;-4.684463516E-2
1.869143756E1;2.831971347E-1;9.155996889E-2;-1.437278688E-1
1.870334850E1;2.810678184E-1;5.376486778E-1;-1.777966917E-1
1.871526100E1;3.343003690E-1;1.051874995E0;-1.671501845E-1
1.872717194E1;4.045673311E-1;1.523515344E0;-7.984881103E-2
1.873908288E1;5.078384280E-1;1.901466370E0;4.790928960E-2
1.875102038E1;6.717946529E-1;2.071810484E0;1.469218135E-1
1.876290631E1;9.294402003E-1;1.932341218E0;2.161241174E-1
1.877481881E1;1.113624811E0;1.555454850E0;1.054004356E-1
1.878672975E1;1.225413084E0;1.142370343E0;-7.665485889E-2
1.879864225E1;1.225413084E0;9.230522513E-1;-2.416757345E-1
1.881055319E1;1.150887609E0;8.421388268E-1;-3.055547774E-1
1.882246569E1;9.943838716E-1;8.410741687E-1;-2.885203660E-1
1.883437662E1;8.879188299E-1;8.463973999E-1;-1.181762442E-1
1.884628913E1;8.889834285E-1;6.004630923E-1;4.790928960E-2
1.885820006E1;8.740783334E-1;3.087487444E-2;8.836601675E-2
1.887011100E1;7.356737256E-1;-1.008224368E0;3.619812801E-2
1.888202350E1;2.214473784E-1;-2.735088110E0;-1.320167035E-1
1.889393444E1;-4.279896319E-1;-2.295387268E0;-3.470761776E-1
1.890584694E1;-1.105107546E0;-7.686778903E-1;-5.301961303E-1
1.891775788E1;-1.508610249E0;2.949082851E-1;-6.781826019E-1
1.892967038E1;-1.596976280E0;8.985652924E-1;-8.293629885E-1
1.894158131E1;-1.443666577E0;1.222219110E0;-8.825955391E-1
1.895349381E1;-1.170051217E0;1.368076324E0;-7.346090674E-1
1.896540475E1;-8.857895136E-1;1.521386027E0;-5.546830893E-1
1.897731569E1;-6.686007380E-1;1.775837660E0;-4.812221825E-1
1.898922819E1;-4.727049768E-1;1.972797990E0;-4.066966176E-1
1.900114381E1;-3.247185051E-1;1.958957553E0;-2.853264213E-1
1.901305006E1;-2.182534188E-1;1.697053432E0;-1.171115935E-1
1.902496569E1;-2.704213262E-1;1.099784374E0;-1.384046115E-2
1.903687975E1;-4.354421794E-1;1.192408949E-1;-6.707300246E-2
1.904878600E1;-5.440365672E-1;-9.241169095E-1;-1.958957613E-1
1.906070006E1;-5.206142664E-1;-2.135689497E0;-2.512575984E-1
1.907260788E1;-3.917915225E-1;-3.331292391E0;-3.151366413E-1
1.908452038E1;-8.091346174E-2;-4.242633820E0;-3.460115194E-1
1.909643756E1;3.641105890E-1;-4.378909111E0;-2.438050359E-1
1.910834538E1;8.953713775E-1;-3.327033758E0;-3.193952609E-3
1.912025475E1;1.240318179E0;-1.420244217E0;1.234994978E-1
1.913216725E1;1.046551824E0;-4.812221825E-1;8.197811246E-2
1.914407819E1;6.568895578E-1;-4.439594150E-1;-4.258603230E-2
1.915599538E1;1.703441292E-1;-8.282983303E-1;-2.565808594E-1
1.916790163E1;-2.608394623E-1;-1.038034558E0;-4.865454435E-1
1.917981256E1;-6.494370103E-1;-8.059406877E-1;-6.292086244E-1
1.919172350E1;-8.368155360E-1;-3.694338500E-1;-6.387904882E-1
1.920363600E1;-7.612253428E-1;3.566580415E-1;-5.610709786E-1
1.921555319E1;-5.014505386E-1;8.602378964E-1;-4.737696350E-1
1.922745944E1;-1.990897059E-1;1.087008476E0;-3.928561509E-1
1.923937038E1;-4.897394031E-2;1.050810337E0;-3.172659576E-1
1.925128131E1;8.517206647E-3;9.038885832E-1;-2.406110913E-1
1.926319381E1;4.258603230E-2;7.452555895E-1;-1.724734306E-1
1.927510475E1;-1.596976258E-2;8.463973999E-1;-1.288227588E-1
1.928701725E1;-2.076069117E-1;7.995527983E-1;-4.684463516E-2
1.929892975E1;-4.801575243E-1;5.387133360E-1;5.536184460E-2
1.931083912E1;-6.409198046E-1;8.943066746E-2;1.405339092E-1
1.932275163E1;-6.174975038E-1;-4.365068376E-1;1.724734306E-1
1.933466412E1;-5.568124056E-1;-1.015676856E0;1.724734306E-1
1.934657506E1;-5.057091713E-1;-1.619333982E0;1.117883399E-1
1.935848600E1;-4.386361539E-1;-1.955763578E0;-1.916371472E-2
1.937039850E1;-3.374943137E-1;-2.017513275E0;-2.001543641E-1
1.938230944E1;-3.023608327E-1;-1.753479958E0;-3.704984784E-1
1.939424069E1;-3.598519862E-1;-1.335072160E0;-5.120970607E-1
1.940613288E1;-3.875329196E-1;-8.080700040E-1;-5.876872540E-1
1.941804538E1;-3.885975480E-1;-2.714859545E-1;-5.812993646E-1
1.942995631E1;-3.864682615E-1;3.055547774E-1;-4.993212521E-1
1.944186881E1;-3.619812727E-1;9.986425042E-1;-3.257831633E-1
1.945380631E1;-2.917143404E-1;1.625721812E0;-1.160469428E-1
1.946569381E1;-1.884431988E-1;1.960022211E0;4.790928960E-2
1.947760319E1;-1.288227588E-1;1.941923141E0;1.394692659E-1
1.948951412E1;-1.990897059E-1;1.463894963E0;9.155996889E-2
1.950142662E1;-3.683691919E-1;5.099677444E-1;-6.813765317E-2
1.951333756E1;-4.514119625E-1;-1.639562249E-1;-8.517206460E-2
1.952524850E1;-3.949854672E-1;-5.493598580E-1;-5.642649531E-2
1.953716256E1;-2.033483088E-1;-6.920230389E-1;-8.517206647E-3
1.954907194E1;-2.235766686E-2;-6.813765168E-1;4.045673087E-2
1.956098444E1;1.011418328E-1;-6.473076940E-1;1.011418328E-1
1.957289538E1;9.368927032E-2;-5.419072509E-1;1.522450745E-1
1.958480631E1;3.087487444E-2;-3.651752472E-1;2.171887755E-1
1.959671881E1;-5.323254038E-3;-1.426632106E-1;2.267706245E-1
1.960862975E1;1.916371472E-2;1.288227588E-1;1.554390192E-1
1.962054225E1;2.448697016E-2;4.173431396E-1;5.323254317E-2
1.963245475E1;-4.365068302E-2;5.589416623E-1;-1.277581044E-2
1.964436413E1;-1.916371584E-1;4.876100719E-1;-2.768092230E-2
1.965627662E1;-2.959729433E-1;2.981022298E-1;-1.916371472E-2
1.966818912E1;-3.002315462E-1;1.469218135E-1;-3.939208016E-2
1.968010006E1;-2.193180770E-1;1.352106631E-1;-5.536184460E-2
1.969201100E1;-1.128529906E-1;1.980250627E-1;-4.471533373E-2
1.970392194E1;1.064650831E-3;2.363524884E-1;-9.581857361E-3
1.971584381E1;6.920230389E-2;1.905725002E-1;3.619812801E-2
1.972774538E1;1.128529906E-1;6.707300246E-2;7.239625603E-2
1.973965631E1;1.405339092E-1;-2.768092230E-2;9.049531817E-2
1.975157194E1;1.607622802E-1;-3.406882659E-2;1.032711342E-1
1.976347975E1;1.628915817E-1;4.790928960E-2;1.203055456E-1
1.977539225E1;1.245641485E-1;1.394692659E-1;1.266934574E-1
1.978730319E1;1.596976258E-2;1.820552945E-1;1.043357849E-1
1.979921569E1;-9.901253134E-2;1.362753063E-1;3.832742944E-2
1.981112975E1;-1.352106631E-1;7.665485889E-2;-1.064650808E-2
1.982304381E1;-1.117883399E-1;-2.129301662E-3;-3.726277873E-2
1.983495006E1;-5.429719388E-2;-1.011418328E-1;-6.707300246E-2
1.984686256E1;7.452555932E-3;-1.884431988E-1;-9.475392103E-2
1.985877350E1;6.920230389E-2;-2.139948159E-1;-1.022064835E-1
1.987068444E1;1.107236892E-1;-1.181762442E-1;-8.623671532E-2
1.988259694E1;1.203055456E-1;4.471533373E-2;-6.068509817E-2
1.989450788E1;9.581857920E-2;2.682920098E-1;-3.619812801E-2
1.990641881E1;4.152138159E-2;4.247956872E-1;-2.022836544E-2
1.991833131E1;-5.323254317E-2;4.833514690E-1;7.452555932E-3
1.993025006E1;-1.181762442E-1;4.577998519E-1;1.064650808E-2
1.994215475E1;-1.479864717E-1;3.917915225E-1;-2.235766686E-2
1.995406569E1;-1.469218135E-1;3.108780384E-1;-7.559020817E-2
1.996597819E1;-1.469218135E-1;2.501929402E-1;-1.266934574E-1
1.997788912E1;-1.735380888E-1;2.395464331E-1;-1.533097178E-1
1.998980006E1;-2.576455176E-1;3.076840937E-1;-1.575683206E-1
2.000171256E1;-4.971919358E-1;5.323254466E-1;-2.235766798E-1
2.001362350E1;-8.197811246E-1;8.889834285E-1;-4.375714958E-1
2.002553600E1;-1.438343287E0;1.278645635E0;-7.857123017E-1
2.003744694E1;-2.385882616E0;1.319102407E0;-9.273108840E-1
2.004935788E1;-2.883074522E0;8.559792638E-1;-7.516434789E-1
2.006127038E1;-2.749993086E0;2.203827202E-1;-4.577998519E-1
2.007318131E1;-2.218732357E0;-2.821324766E-1;-8.410741389E-2
2.008509381E1;-1.807777166E0;-5.972691178E-1;3.236538470E-1
2.009700475E1;-1.516062737E0;-9.816080928E-1;6.451784372E-1
2.010891725E1;-1.337201476E0;-1.261611223E0;8.506560326E-1
2.012082819E1;-1.192408919E0;-1.413856268E0;1.019935489E0
2.013273912E1;-1.089137793E0;-1.473476768E0;1.105107546E0
2.014465162E1;-1.039099216E0;-1.682148337E0;1.190279603E0
2.015656256E1;-1.036969900E0;-1.960022211E0;1.304197311E0
2.016847506E1;-9.720262289E-1;-1.846104503E0;1.437278628E0
2.018039538E1;-7.899709344E-1;-1.336136818E0;1.513933539E0
2.019229694E1;-7.047988772E-1;-9.166643620E-1;1.504351616E0
2.020420944E1;-6.920230389E-1;-6.441137791E-1;1.418114901E0
2.021612194E1;-7.367383838E-1;-7.324797511E-1;1.307391286E0
2.022803913E1;-7.899709344E-1;-1.301003337E0;1.182827115E0
2.023994381E1;-8.985652924E-1;-1.937664509E0;1.098719716E0
2.025185788E1;-1.088073134E0;-2.385882616E0;1.065715432E0
2.026376725E1;-1.171115875E0;-2.337973356E0;1.064650893E0
2.027567819E1;-1.016741514E0;-1.736445546E0;1.022064805E0
2.028759069E1;-7.431262732E-1;-8.602378964E-1;9.017592669E-1
2.029950162E1;-4.205370843E-1;-9.794788063E-2;7.899709344E-1
2.031141256E1;-2.970375717E-1;1.522450745E-1;7.974234819E-1
2.032332506E1;-4.822868407E-1;-8.730136603E-2;9.571211338E-1
2.033523756E1;-6.473076940E-1;-6.771179438E-1;1.140241027E0
2.034714850E1;-5.919458866E-1;-1.287162900E0;1.205184698E0
2.035906100E1;-3.460115194E-1;-1.641691566E0;1.095525742E0
2.037097194E1;-1.160469428E-1;-1.718346477E0;8.006174564E-1
2.038288288E1;-1.671501845E-1;-1.397886515E0;4.833514690E-1
2.039479538E1;-4.844161272E-1;-4.269249737E-1;4.301189482E-1
2.040672038E1;-7.729365230E-1;6.973463297E-1;5.376486778E-1
2.041862975E1;-9.070824981E-1;1.089137793E0;6.558248997E-1
2.043052975E1;-9.060178399E-1;7.984881103E-2;8.219104409E-1
2.044244069E1;-8.038113713E-1;-1.401080489E0;1.011418343E0
2.045435319E1;-4.897393882E-1;-2.028159857E0;9.635090232E-1
2.046626413E1;-2.278352827E-1;-1.307391286E0;7.367383838E-1
2.047817662E1;-1.927018017E-1;1.958957613E-1;3.885975480E-1
2.049008756E1;-3.353650272E-1;1.205184698E0;5.216789246E-2
2.050199850E1;-4.833514690E-1;1.676825047E0;-2.406110913E-1
2.051391100E1;-5.557477474E-1;1.656596661E0;-4.290542901E-1
2.052582819E1;-5.706528425E-1;1.380852103E0;-5.717175007E-1
2.053773444E1;-5.099677444E-1;8.825955391E-1;-7.516434789E-1
2.054964538E1;-3.981794119E-1;3.119426966E-1;-8.730136752E-1
2.056155631E1;-2.469989955E-1;-3.768863976E-1;-8.453327417E-1
2.057346881E1;3.193952609E-3;-9.241169095E-1;-7.771950960E-1
2.058537975E1;3.215245605E-1;-1.168986678E0;-7.452555895E-1
2.059729225E1;5.493598580E-1;-1.126400590E0;-7.154453397E-1
2.060920319E1;5.759761333E-1;-8.197811246E-1;-6.174975038E-1
2.062111413E1;1.341460049E-1;-6.483723521E-1;-5.046445131E-1
2.063302663E1;-1.040163875E0;-7.473849058E-1;-3.651752472E-1
2.064493756E1;-1.814164996E0;1.394692659E-1;-1.522450745E-1
2.065685006E1;-1.387240052E0;1.577812552E0;-6.281439960E-2
2.066876100E1;-2.459343374E-1;1.751350641E0;-6.249500513E-1
2.068067194E1;4.013733566E-1;1.310585141E0;-1.516062737E0
2.069258444E1;9.326341152E-1;2.185728073E0;-1.978121281E0
2.070451413E1;1.460700989E0;2.836229801E0;-1.610816717E0
2.071640788E1;2.621170282E0;1.974927306E0;-1.127465248E0
2.072831881E1;3.393042326E0;4.844161272E-1;-8.772723079E-1
2.074022975E1;3.347262144E0;-6.292086244E-1;-8.740783334E-1
2.075214225E1;2.282611370E0;-1.069974065E0;-1.055068970E0
2.076405944E1;9.102764726E-1;-1.276516318E0;-1.137047052E0
2.077596881E1;4.365068302E-2;-8.346862793E-1;-9.422159791E-1
2.078787663E1;6.707300246E-2;6.430491209E-1;-6.611481905E-1
2.079978756E1;8.932420611E-1;2.867104769E0;-4.397007823E-1
2.081170006E1;1.468153477E0;3.166271687E0;-3.396236300E-1
2.082361725E1;1.577812552E0;2.692502022E0;-3.055547774E-1
2.083552350E1;1.505416274E0;2.198503971E0;-2.714859545E-1
2.084743444E1;1.348912597E0;1.823746920E0;-2.512575984E-1
2.085934694E1;1.206249356E0;1.481993914E0;-2.395464331E-1
2.087125788E1;1.080620646E0;1.033775926E0;-2.565808594E-1
2.088317350E1;9.677675962E-1;4.577998519E-1;-3.225892186E-1
2.089508131E1;8.836601973E-1;-2.991668880E-1;-4.460887015E-1
2.090699225E1;8.921774030E-1;-7.250272036E-1;-5.376486778E-1
2.091890475E1;1.059327602E0;-6.036570072E-1;-5.291314721E-1
2.093081569E1;1.241382837E0;5.323254317E-2;-4.514119625E-1
2.094272819E1;1.095525742E0;5.557477474E-1;-3.939208090E-1
2.095464850E1;8.016820550E-1;8.006174564E-1;-3.098133802E-1
2.096655162E1;6.217560768E-1;7.803890705E-1;-1.767320335E-1
2.097846256E1;6.877644658E-1;5.333900452E-1;-9.581857361E-3
2.099037350E1;8.559792638E-1;2.406110913E-1;2.682920098E-1
2.100228600E1;9.571211338E-1;5.855579674E-2;5.387133360E-1
2.101420319E1;9.315694571E-1;-7.239625603E-2;6.451784372E-1
2.102610788E1;7.335444093E-1;-1.639562249E-1;5.642649531E-1
2.103802038E1;4.141491652E-1;-9.688322991E-2;2.714859545E-1
2.104993131E1;1.724734306E-1;1.181762442E-1;-1.117883399E-1
2.106184225E1;1.224348471E-1;2.800031602E-1;-3.225892186E-1
2.107375475E1;1.937664598E-1;3.353650272E-1;-2.949082851E-1
2.108566881E1;2.757445574E-1;5.365840197E-1;-1.618269235E-1
2.109757819E1;1.841845959E-1;7.921002507E-1;-9.155996889E-2
2.110948912E1;2.768092230E-2;1.012483001E0;-1.309520602E-1
2.112140162E1;-7.026695460E-2;1.137047052E0;-1.948311031E-1
2.113331256E1;-6.174974889E-2;1.206249356E0;-2.257059813E-1
2.114522506E1;4.258603230E-2;1.205184698E0;-2.129301727E-1
2.115713600E1;1.990897059E-1;1.142370343E0;-2.214473784E-1
2.116904694E1;2.842617631E-1;1.016741514E0;-2.991668880E-1
2.118095944E1;2.800031602E-1;8.229750991E-1;-3.875329196E-1
2.119287038E1;2.171887755E-1;5.749114752E-1;-4.577998519E-1
2.120478131E1;1.703441292E-1;4.322482347E-1;-4.620584548E-1
2.121669381E1;2.097362131E-1;4.876100719E-1;-4.269249737E-1
2.122860475E1;3.012961745E-1;8.208457828E-1;-3.396236300E-1
2.124052350E1;2.619041204E-1;1.062521577E0;-1.841845959E-1
2.125242819E1;5.216789246E-2;9.336987734E-1;-1.309520602E-1
2.126433913E1;-8.943066746E-2;7.516434789E-1;-2.076069117E-1
2.127625162E1;-5.855579674E-2;7.165099978E-1;-2.725506127E-1
2.128816256E1;1.149822921E-1;8.027467132E-1;-2.533869147E-1
2.130007506E1;2.959729433E-1;7.676132321E-1;-2.416757345E-1
2.131198600E1;3.726277947E-1;4.961272776E-1;-2.448696941E-1
2.132389850E1;3.758217394E-1;1.958957613E-1;-1.565036774E-1
2.133580944E1;3.662398756E-1;-5.855579674E-2;-2.448697016E-2
2.134772194E1;3.928561509E-1;-2.587101460E-1;5.429719388E-2
2.135965006E1;3.470761776E-1;-4.141491652E-1;5.110324174E-2
2.137154381E1;2.661627233E-1;-5.695881844E-1;3.193952516E-2
2.138345631E1;2.342231870E-1;-6.302732825E-1;8.517206647E-3
2.139536725E1;2.523222566E-1;-5.174202919E-1;2.448697016E-2
2.140727975E1;2.352878302E-1;-3.098133802E-1;8.517206460E-2
2.141919225E1;1.596976221E-1;-2.384817898E-1;1.149822921E-1
2.143110319E1;6.600835174E-2;-2.395464331E-1;1.117883399E-1
2.144301412E1;3.513347730E-2;-3.012961745E-1;8.304276317E-2
2.145492663E1;1.085943878E-1;-3.577226698E-1;4.471533373E-2
2.146683756E1;2.331585288E-1;-4.184077680E-1;-1.064650808E-2
2.147874850E1;3.215245605E-1;-5.365840197E-1;-7.984881103E-2
2.149066100E1;3.587873280E-1;-7.282211781E-1;-1.437278688E-1
2.150257194E1;3.822096586E-1;-1.002901077E0;-2.182534188E-1
2.151448444E1;4.003087282E-1;-1.254158735E0;-3.076840937E-1
2.152639538E1;4.141491652E-1;-1.294615388E0;-3.257831633E-1
2.153832194E1;4.088259339E-1;-1.008224368E0;-2.650980651E-1
2.155022975E1;3.864682615E-1;-4.471533597E-1;-1.298874021E-1
2.156213288E1;3.662398756E-1;1.501157731E-1;3.300417587E-2
2.157404069E1;3.193952441E-1;8.336216211E-1;2.118655145E-1
2.158595319E1;2.012190074E-1;1.273322463E0;2.757445574E-1
2.159786412E1;3.193952609E-3;1.254158735E0;2.118655145E-1
2.160977663E1;-1.969604045E-1;8.740783334E-1;1.149822921E-1
2.162168756E1;-2.778738737E-1;4.045673311E-1;1.288227588E-1
2.163360006E1;-2.203827202E-1;-1.213701963E-1;1.639562249E-1
2.164551100E1;-6.387905031E-2;-6.270793676E-1;1.522450745E-1
2.165742194E1;1.075297371E-1;-8.975006342E-1;1.117883399E-1
2.166933444E1;2.299645841E-1;-7.079927921E-1;2.981022373E-2
2.168125319E1;2.555162013E-1;9.581857361E-3;-8.197811246E-2
2.169315788E1;1.043357849E-1;4.503473043E-1;-1.384046078E-1
2.170506881E1;-8.836601675E-2;2.395464331E-1;-7.133160532E-2
2.171697975E1;-1.054004356E-1;-2.640334070E-1;-6.068509817E-2
2.172889225E1;-3.406882659E-2;-7.473849058E-1;-1.192408949E-1
2.174080319E1;4.577998444E-2;-1.081685305E0;-1.873785406E-1
2.175271412E1;6.494370103E-2;-1.054004312E0;-2.065422684E-1
2.176462663E1;3.087487444E-2;-4.375714958E-1;-1.703441292E-1
2.177654069E1;-1.809906401E-2;7.654839754E-1;-8.410741389E-2
2.178845006E1;-8.836601675E-2;2.131430864E0;5.323254317E-2
2.180036100E1;-2.171887755E-1;2.180404902E0;3.428175747E-1
2.181227350E1;-2.044129670E-1;1.153016806E0;5.493598580E-1
2.182418600E1;-9.901253134E-2;7.878416032E-2;6.036570072E-1
2.183609694E1;7.346090674E-2;-7.452555895E-1;5.930105448E-1
2.184800788E1;2.991668880E-1;-1.357429862E0;5.259374976E-1
2.185992038E1;5.301961303E-1;-1.655532002E0;3.822096586E-1
2.187183131E1;6.611481905E-1;-1.392563343E0;3.023608327E-1
2.188374225E1;6.760532856E-1;-5.142263770E-1;3.587873280E-1
2.189565788E1;5.887519121E-1;1.341460049E-1;4.535412490E-1
2.190756569E1;4.620584548E-1;-9.262461960E-2;5.397779942E-1
2.191947819E1;3.715631366E-1;-5.035798550E-1;5.067738295E-1
2.193138913E1;2.853264213E-1;-6.803118587E-1;3.577226698E-1
2.194330006E1;2.225120217E-1;-5.365840197E-1;2.895850241E-1
2.195521256E1;2.193180770E-1;-1.948311031E-1;3.247185051E-1
2.196712350E1;2.831971347E-1;2.257059813E-1;3.758217394E-1
2.197903600E1;3.736924529E-1;4.897393882E-1;4.173431396E-1
2.199094694E1;4.482180178E-1;5.887519121E-1;4.397007823E-1
2.200285788E1;4.343775511E-1;6.686007380E-1;4.439594150E-1
2.201477662E1;2.129301727E-1;1.216895938E0;4.716403186E-1
2.202668131E1;-1.533097178E-1;1.615075350E0;4.929333329E-1
2.203859381E1;-2.374171317E-1;6.547602415E-1;4.673817158E-1
2.205050475E1;-1.799259931E-1;-4.790928662E-1;3.172659576E-1
2.206241725E1;-4.790928960E-2;-1.558648825E0;3.726277873E-2
2.207433131E1;8.623671532E-2;-2.219796896E0;-2.480636388E-1
2.208623913E1;5.003859103E-2;-1.873785496E0;-3.896622062E-1
2.209815162E1;-7.665485889E-2;-7.122514248E-1;-4.375714958E-1
2.211006256E1;-3.193952516E-2;-2.874557376E-1;-3.907268643E-1
2.212197506E1;1.405339092E-1;-2.533869147E-1;-3.396236300E-1
2.213388600E1;3.566580415E-1;-1.916371472E-2;-4.045673311E-1
2.214579850E1;5.621356368E-1;5.610709786E-1;-4.035026729E-1
2.215771256E1;6.249500513E-1;1.948311090E0;-1.362753063E-1
2.216962038E1;5.812993646E-1;3.256767035E0;3.587873280E-1
2.218153288E1;4.971919358E-1;3.414335251E0;1.150887609E0
2.219344381E1;2.981022373E-2;1.353171229E0;1.724734306E0
2.220535631E1;-8.027467132E-1;-2.571131706E0;1.890819907E0
2.221726725E1;-7.378030419E-1;-3.999893188E0;1.577812552E0
2.222917975E1;-3.396236300E-1;-3.619812965E0;9.730908871E-1
2.224109069E1;-9.581857361E-3;-2.526416540E0;2.959729433E-1
2.225300163E1;1.639562249E-1;-1.280774951E0;-7.984881103E-2
2.226491256E1;1.650208831E-1;-1.735380888E-1;-1.533097178E-1
2.227682662E1;-1.064650831E-3;4.428947568E-1;-1.234994978E-1
2.228873600E1;-3.470761776E-1;6.057863235E-1;-1.490511149E-1
2.230064850E1;-7.335444093E-1;3.949854672E-1;-2.800031602E-1
2.231257975E1;-1.024194121E0;1.064650863E-1;-3.598519862E-1
2.232447194E1;-1.243512154E0;-1.426632106E-1;-3.587873280E-1
2.233638288E1;-1.368076324E0;-2.203827202E-1;-3.587873280E-1
2.234829381E1;-1.402145147E0;-1.054004356E-1;-3.492054641E-1
2.236020631E1;-1.375528932E0;1.330813617E-1;-3.119426966E-1
2.237213288E1;-1.302067995E0;3.438822329E-1;-2.491282970E-1
2.238402975E1;-1.213701963E0;4.375714958E-1;-1.618269235E-1
2.239594069E1;-1.102978230E0;4.152138233E-1;-4.258603230E-2
2.240785319E1;-1.006095052E0;3.343003690E-1;5.962044746E-2
2.241976412E1;-9.411513209E-1;3.044901490E-1;1.054004356E-1
2.243167506E1;-9.230522513E-1;3.939208090E-1;9.581857920E-2
2.244359069E1;-9.368927479E-1;5.717175007E-1;8.197811246E-2
2.245549850E1;-9.539271593E-1;7.867769599E-1;8.943066746E-2
2.246741100E1;-9.528625011E-1;9.635090232E-1;7.559020817E-2
2.247932194E1;-9.198583364E-1;1.021000147E0;5.429719388E-2
2.249123444E1;-8.740783334E-1;9.933192134E-1;4.897394031E-2
2.250314538E1;-8.282983303E-1;9.400866628E-1;3.300417587E-2
2.251505788E1;-7.708072066E-1;8.676904440E-1;1.064650808E-2
2.252696881E1;-7.218332887E-1;7.250272036E-1;-4.152138159E-2
2.253888131E1;-6.909583807E-1;3.204599023E-1;-2.054776102E-1
2.255079225E1;-6.249500513E-1;-1.415985674E-1;-3.875329196E-1
2.256270319E1;-4.556705654E-1;-4.397007823E-1;-5.461658835E-1
2.257461725E1;-3.236538470E-1;-4.567352235E-1;-5.972691178E-1
2.258652662E1;-2.448696941E-1;-3.289771080E-1;-5.653296113E-1
2.259843756E1;-2.108008713E-1;-1.863138974E-1;-4.450240433E-1
2.261035162E1;-1.916371584E-1;-1.735380888E-1;-3.172659576E-1
2.262226412E1;-1.756673902E-1;-3.385589719E-1;-2.544515431E-1
2.263417975E1;-1.415985674E-1;-6.419844627E-1;-3.130073547E-1
2.264608444E1;-6.813765317E-2;-1.043357849E0;-4.269249737E-1
2.265799538E1;4.152138159E-2;-1.408533096E0;-4.865454435E-1
2.266990631E1;1.277581006E-1;-1.664049268E0;-4.939979911E-1
2.268181881E1;1.948311031E-1;-1.803518534E0;-5.014505386E-1
2.269372975E1;2.395464331E-1;-1.753479958E0;-5.259374976E-1
2.270564850E1;2.523222566E-1;-1.541614413E0;-5.632002950E-1
2.271755319E1;1.905725002E-1;-1.273322463E0;-5.844933391E-1
2.272946412E1;6.494370103E-2;-1.021000147E0;-5.653296113E-1
2.274137975E1;-1.213701963E-1;-7.452555895E-1;-5.099677444E-1
2.275329069E1;-3.087487519E-1;-4.886747301E-1;-4.045673311E-1
2.276520006E1;-3.875329196E-1;-2.203827202E-1;-2.406110913E-1
2.277711100E1;-2.927789688E-1;1.085943878E-1;-2.022836544E-2
2.278904225E1;-5.110324174E-2;3.012961745E-1;1.181762442E-1
2.280093444E1;1.682148278E-1;3.917915225E-1;1.064650863E-1
2.281284850E1;3.619812727E-1;4.397007823E-1;5.216789246E-2
2.282475788E1;5.482951999E-1;3.747570813E-1;3.939208016E-2
2.283667038E1;8.091346622E-1;1.735380888E-1;2.022836544E-2
2.284858131E1;1.082749963E0;-2.118655145E-1;3.193952609E-3
2.286049225E1;1.236059666E0;-6.228207350E-1;-2.235766686E-2
2.287240475E1;1.108301520E0;-9.177290201E-1;-1.181762442E-1
2.288431569E1;7.335444093E-1;-8.857895136E-1;-2.501929402E-1
2.289622662E1;2.299645841E-1;-5.014505386E-1;-3.385589719E-1
2.290814069E1;4.471533373E-2;-1.958957613E-1;-2.650980651E-1
2.292005006E1;1.639562249E-1;-1.054004356E-1;-1.650208831E-1
2.293196256E1;3.492054641E-1;-2.714859545E-1;-1.777966917E-1
2.294387350E1;2.448696941E-1;-6.324025989E-1;-2.491282970E-1
2.295578600E1;-5.749114603E-2;-9.368927479E-1;-2.906496823E-1
2.296769694E1;-2.544515431E-1;-9.060178399E-1;-1.937664598E-1
2.297960944E1;-2.097362131E-1;-4.514119625E-1;-3.832742944E-2
2.299152038E1;1.064650808E-2;1.692794859E-1;7.559020817E-2
2.300343131E1;2.800031602E-1;8.698197603E-1;1.128529906E-1
2.301534381E1;3.460115194E-1;1.254158735E0;1.266934574E-1
2.302725631E1;2.171887755E-1;1.116818786E0;1.554390192E-1
2.303916569E1;-2.981022373E-2;6.036570072E-1;1.692794859E-1
2.305108131E1;-2.182534188E-1;2.661627159E-2;2.395464331E-1
2.306298912E1;-3.481408358E-1;-5.568124056E-1;3.268478215E-1
2.307490163E1;-4.194724262E-1;-8.527853489E-1;3.385589719E-1
2.308681881E1;-5.174202919E-1;-7.356737256E-1;1.660855263E-1
2.309872506E1;-6.845704913E-1;-5.536184460E-2;-1.384046078E-1
2.311063913E1;-8.251044154E-1;8.400095105E-1;-3.343003690E-1
2.312254694E1;-9.230522513E-1;1.803518534E0;-4.247956872E-1
2.313445944E1;-7.729365230E-1;1.921694756E0;-3.843389452E-1
2.314637975E1;-5.834286809E-1;1.590588331E0;-2.863910794E-1
2.315828288E1;-5.014505386E-1;1.320167065E0;-2.491282970E-1
2.317019381E1;-6.036570072E-1;1.900401711E0;-3.949854672E-1
2.318210475E1;-9.432806373E-1;3.579356194E0;-6.324025989E-1
2.319401725E1;-1.032711267E0;4.045673370E0;-7.889062762E-1
2.320592819E1;-9.294402003E-1;3.439886808E0;-6.824411750E-1
2.321783912E1;-1.082749963E0;3.134332180E0;-5.216789246E-1
2.322975163E1;-1.161534071E0;1.835458040E0;-5.152910352E-1
2.324166256E1;-9.528625011E-1;-3.832742944E-2;-6.281439662E-1
2.325357506E1;-8.101992607E-1;-1.367011666E0;-8.730136752E-1
2.326548756E1;-8.336216211E-1;-1.568230629E0;-1.054004312E0
2.327739850E1;-6.877644658E-1;-1.862074375E0;-1.194538236E0
2.328930944E1;-3.321710527E-1;-2.629687548E0;-1.413856268E0
2.330122038E1;-1.703441329E-2;-2.795773029E0;-1.735380888E0
2.331313288E1;1.958957613E-1;-2.274094105E0;-2.128237009E0
2.332505162E1;4.162784815E-1;-1.563972116E0;-2.422080755E0
2.333696569E1;5.461658835E-1;-5.557477474E-1;-2.209150553E0
2.334886725E1;6.430491209E-1;-3.960501254E-1;-1.341460109E0
2.336077975E1;5.408426523E-1;-3.055547774E-1;-3.460115194E-1
2.337269069E1;1.501157731E-1;4.045673087E-2;4.152138159E-2
2.338460319E1;-2.661627233E-1;-3.066194355E-1;8.730136603E-2
2.339651413E1;-8.272337317E-1;-1.148758292E0;1.298874021E-1
2.340842662E1;-1.277580976E0;-1.916371465E0;2.171887755E-1
2.342033756E1;-1.462830305E0;-2.758510351E0;3.619812727E-1
2.343224850E1;-1.351041913E0;-3.414335251E0;5.174202919E-1
2.344416725E1;-1.137047052E0;-3.663463593E0;6.451784372E-1
2.345607194E1;-8.687551022E-1;-3.526123524E0;6.771179438E-1
2.346798288E1;-7.037342191E-1;-2.981022358E0;6.217560768E-1
2.347989538E1;-6.643421054E-1;-1.160469413E0;5.238082409E-1
2.349180631E1;-9.848020077E-1;-2.022836544E-2;5.983337760E-1
2.350372038E1;-1.206249356E0;-3.949854672E-1;7.378030419E-1
2.351563444E1;-8.293629885E-1;-8.016820550E-1;7.846476436E-1
2.352754069E1;-3.066194355E-1;-7.910355926E-1;7.729365230E-1
2.353945319E1;1.501157731E-1;-5.206142664E-1;7.963588238E-1
2.355136413E1;4.322482347E-1;-5.876872540E-1;7.835830450E-1
2.356328288E1;4.918686748E-1;-7.058635354E-1;7.239625454E-1
2.357518756E1;6.185621619E-1;-6.696653962E-1;7.335444093E-1
2.358710006E1;7.250272036E-1;-7.058635354E-1;8.495913744E-1
2.359901100E1;7.569667697E-1;-7.473849058E-1;1.035905242E0
2.361092194E1;7.463202477E-1;-6.377258301E-1;1.292486072E0
2.362283444E1;7.708072066E-1;-5.674588680E-1;1.425567508E0
2.363474694E1;7.654839754E-1;-7.111867666E-1;1.447925091E0
2.364665788E1;6.984109282E-1;-1.035905242E0;1.457507014E0
2.365856881E1;6.057863235E-1;-1.168986678E0;1.518192053E0
2.367048131E1;6.952170134E-1;-1.116818786E0;1.550131679E0
2.368239850E1;8.740783334E-1;-1.212637305E0;1.423438191E0
2.369430319E1;6.952170134E-1;-1.040163875E0;1.286098242E0
2.370621569E1;1.490511149E-1;-5.280668139E-1;1.265869856E0
2.371812662E1;-2.682920098E-1;-3.630459309E-1;1.187085629E0
2.373003756E1;-3.822096586E-1;-4.652524292E-1;8.357509375E-1
2.374196100E1;-6.079156399E-1;1.586329788E-1;5.152910352E-1
2.375386256E1;-9.986425042E-1;1.250964761E0;4.066966176E-1
2.376577194E1;-1.347847939E0;2.175081730E0;2.044129670E-1
2.377768444E1;-1.463894963E0;2.443373680E0;-3.758217394E-1
2.378960319E1;-1.241382837E0;2.163370609E0;-1.341460109E0
2.380153288E1;-8.772723079E-1;1.905725002E0;-2.286870003E0
2.381341881E1;-4.599291682E-1;2.087780237E0;-2.694631338E0
2.382533131E1;3.939208016E-2;2.575390339E0;-2.648851395E0
2.383724225E1;6.164328456E-1;3.047030687E0;-2.150594711E0
2.384915475E1;1.131723881E0;3.021479130E0;-1.381916761E0
