"Time (s)";"Acceleration x (m/s^2)";"Acceleration y (m/s^2)";"Acceleration z (m/s^2)"
0.000000000E0;-2.407446623E0;6.223190784E0;9.972012520E0
1.191875000E-2;-2.136010885E0;6.506597519E0;1.037069511E1
2.382187500E-2;-2.675147057E0;5.975726604E0;9.142374039E0
3.573437500E-2;-3.597747803E0;5.506960869E0;7.229090691E0
4.764843700E-2;-4.209169388E0;5.459373474E0;6.035897255E0
5.955625000E-2;-3.938212872E0;5.426640034E0;5.752002239E0
7.146875000E-2;-3.714565754E0;5.372454643E0;5.850787163E0
8.337968700E-2;-3.940357924E0;5.206699371E0;6.384100437E0
9.529218700E-2;-3.973828793E0;5.067749500E0;6.843250751E0
1.072046870E-1;-3.339499474E0;5.453876495E0;7.730848789E0
1.191156250E-1;-2.488811016E0;6.168076515E0;8.394750595E0
1.310281250E-1;-1.933365703E0;6.895022869E0;8.259641647E0
1.429390620E-1;-2.350119591E0;6.874049664E0;7.702941895E0
1.548593750E-1;-2.883394480E0;6.340315342E0;6.970957756E0
1.667609370E-1;-3.214541435E0;5.695154667E0;6.566394806E0
1.786734370E-1;-3.463509560E0;5.113248348E0;7.055492401E0
1.905875000E-1;-3.593735218E0;4.854291916E0;7.720869541E0
2.024968750E-1;-3.230544090E0;5.145647049E0;8.195103645E0
2.144078120E-1;-2.718166113E0;5.712182045E0;8.591199875E0
2.263203120E-1;-2.314800262E0;6.072537899E0;8.830418587E0
2.382312500E-1;-2.251296520E0;6.048318386E0;8.595748901E0
2.501437500E-1;-2.377739191E0;5.749886036E0;7.754177570E0
2.620546870E-1;-2.867774963E0;5.378306389E0;6.693096161E0
2.739656250E-1;-3.207377911E0;5.142543793E0;6.414727211E0
2.858765620E-1;-3.520893812E0;4.644674778E0;6.898930550E0
2.977890620E-1;-3.460569620E0;4.726393700E0;7.923342228E0
3.097031250E-1;-2.642537832E0;5.349192619E0;9.021859169E0
3.216328120E-1;-1.919278264E0;6.060164928E0;9.141838074E0
3.335234370E-1;-1.816940546E0;6.635529995E0;8.637934685E0
3.454359370E-1;-2.006781578E0;6.618473530E0;8.015997887E0
3.573468750E-1;-2.085158110E0;5.815745831E0;7.659396172E0
3.692593750E-1;-2.815973759E0;5.005222321E0;6.917911530E0
3.811703120E-1;-3.749789000E0;4.438342094E0;6.461997986E0
3.930890620E-1;-3.786995173E0;4.403204918E0;6.373039722E0
4.049937500E-1;-3.221580267E0;4.984038353E0;6.666501522E0
4.169046870E-1;-2.312367916E0;6.038885117E0;6.976875782E0
4.288171870E-1;-1.540869832E0;6.958354473E0;7.467256546E0
4.407312500E-1;-9.205514193E-1;6.724000454E0;7.805988312E0
4.526390620E-1;-6.635290384E-1;5.715649128E0;7.844870090E0
4.645515620E-1;-9.602760077E-1;4.658330917E0;8.394157410E0
4.764625000E-1;-1.504794121E0;3.842310429E0;8.886051178E0
4.883859370E-1;-2.044724941E0;3.226157904E0;9.335404396E0
5.002859370E-1;-2.154513359E0;3.083750963E0;9.460477829E0
5.122031250E-1;-1.787817478E0;3.670339823E0;1.044022274E1
5.241093750E-1;-1.158870220E0;4.656770229E0;1.029908943E1
5.360203120E-1;-7.388314605E-1;5.534570694E0;1.001399803E1
5.479406250E-1;-2.878884077E-1;5.260272026E0;9.212542534E0
5.598640620E-1;-1.211466044E-1;4.094266891E0;9.081954002E0
5.717562500E-1;-1.443224847E-1;3.944476128E0;8.611800194E0
5.836671870E-1;-4.283035398E-1;4.061533451E0;8.514097214E0
5.955796870E-1;-1.413431406E0;4.516269207E0;9.203502655E0
6.074906250E-1;-3.941813707E0;5.110298634E0;1.023208141E1
6.194046870E-1;-2.724563122E0;4.625032902E0;9.279485703E0
6.313171870E-1;-1.611537099E0;3.003650665E0;9.311059952E0
6.432296870E-1;-1.079114676E0;2.524810314E0;1.017661095E1
6.551375000E-1;-2.578076422E-1;1.851800084E0;8.968201637E0
6.670484370E-1;4.437988102E-1;1.533246875E0;8.255274773E0
6.789640620E-1;1.709938884E0;1.568929911E0;7.710153103E0
6.908718750E-1;1.739464164E0;1.610435843E0;8.085362434E0
7.027843750E-1;-5.448724627E-1;3.494864106E-1;9.630877495E0
7.146953120E-1;-3.402438164E0;-1.450369120E0;1.072752762E1
7.266078120E-1;-5.465100765E0;-2.732904434E0;9.210408211E0
7.385187500E-1;-6.456664085E0;-3.040952206E0;5.782686710E0
7.504296870E-1;-4.996392727E0;-2.477328300E0;2.698380232E0
7.623437500E-1;-2.558377028E0;-1.282775044E0;1.742021143E-1
7.742531250E-1;-4.840319157E0;-1.448951602E0;3.815495491E0
7.861640620E-1;-8.019234657E0;-1.052864552E0;9.886952400E0
7.980765620E-1;-9.363473892E0;-1.603444815E-1;1.026182652E1
8.099875000E-1;-8.982892036E0;8.012531400E-1;9.392731667E0
8.219000000E-1;-4.779774666E0;2.562609911E0;1.192257786E1
8.338109370E-1;-4.010958374E-1;3.873349190E0;9.421643257E0
8.457218750E-1;1.358402967E0;5.387930870E0;1.163300514E1
8.576406250E-1;5.150885582E-1;4.858946323E0;1.079270744E1
8.695453120E-1;1.019336224E0;4.898201466E0;1.074591541E1
8.814562500E-1;2.282938480E0;5.430078030E0;9.435616493E0
8.933687500E-1;3.245503187E0;5.970219612E0;7.824663162E0
9.052796870E-1;3.245953321E0;4.759452820E0;8.576815605E0
9.172046870E-1;2.248854399E0;3.096535921E0;8.306481361E0
9.291046870E-1;1.590353251E0;2.989017010E0;7.948931694E0
9.410156250E-1;1.328638315E0;2.858657598E0;8.949879646E0
9.529265620E-1;1.061474085E0;3.298874855E0;1.115356064E1
9.648375000E-1;7.863036990E-1;3.771356106E0;1.006075191E1
9.767500000E-1;4.620809108E-2;4.508416176E0;9.107993126E0
9.886609370E-1;-1.013992280E-1;4.551501751E0;7.362773418E0
1.000571875E0;-1.011780143E0;2.962249994E0;5.720073223E0
1.012484375E0;-2.073809624E0;1.715311408E0;5.704099178E0
1.024395312E0;-1.445111394E0;1.920379639E0;6.998356819E0
1.036307812E0;1.669505596E0;3.235505104E0;9.646200180E0
1.048218750E0;2.577348709E0;3.404899597E0;1.077364922E1
1.060129687E0;1.981613755E0;2.804462671E0;1.001525211E1
1.072042187E0;1.320746899E0;2.276751757E0;9.374353409E0
1.083954687E0;8.134443760E-1;2.108036995E0;7.441992760E0
1.095865625E0;1.069403648E0;2.494221926E0;6.475338936E0
1.107776562E0;2.304764032E0;3.365356922E0;6.685568810E0
1.119690625E0;3.788125038E0;4.095061779E0;7.998903275E0
1.131600000E0;4.107339382E0;3.374014378E0;9.204594612E0
1.143510937E0;3.911646843E0;2.428534746E0;1.035563087E1
1.155423437E0;3.221867561E0;1.542670250E0;1.083697033E1
1.167334375E0;2.508290291E0;1.055795074E0;1.062533283E1
1.179246875E0;2.063208103E0;7.563091516E-1;9.603985786E0
1.191159375E0;2.529110193E0;9.925019741E-1;8.986119270E0
1.203070312E0;4.038941860E0;2.153795242E0;8.548047066E0
1.214981250E0;4.928693771E0;2.808820009E0;7.684046745E0
1.226893750E0;4.585384846E0;2.600620031E0;6.997782230E0
1.238804687E0;4.725780964E0;2.323946238E0;7.075938702E0
1.250717187E0;4.706348896E0;2.037714481E0;7.528356552E0
1.262629687E0;4.483027935E0;1.543781281E0;7.942122459E0
1.274539062E0;4.124989033E0;1.076011777E0;8.216211319E0
1.286451562E0;3.510483980E0;2.232353687E-1;8.373087883E0
1.298362500E0;3.801331520E0;-3.441904485E-2;7.920890808E0
1.310273437E0;5.579131603E0;1.494700074E0;7.271812916E0
1.322196875E0;6.717804432E0;2.559593201E0;7.415982246E0
1.334109375E0;8.183525085E0;3.659968376E0;7.641439438E0
1.346009375E0;8.144595146E0;3.374359131E0;7.332329273E0
1.357920312E0;7.277741432E0;2.775253057E0;7.565581322E0
1.369832812E0;7.032891273E0;2.484233141E0;7.501436234E0
1.381754687E0;6.425912857E0;2.049436808E0;6.779172421E0
1.393656250E0;6.404077530E0;1.494154334E0;6.487395763E0
1.405567187E0;7.931568623E0;2.031202316E0;7.281715393E0
1.417478125E0;9.158376694E0;2.991516590E0;7.223363876E0
1.429389062E0;9.513034821E0;3.173935890E0;6.545594215E0
1.441301562E0;9.853308678E0;3.346758842E0;6.308386326E0
1.453212500E0;9.763573647E0;3.054924726E0;6.126302242E0
1.465125000E0;9.170434952E0;2.591062546E0;5.290534496E0
1.477043750E0;8.292183876E0;1.812152147E0;5.193416119E0
1.488948437E0;7.454548359E0;7.327311039E-1;5.172787666E0
1.500859375E0;6.517945766E0;-5.094382167E-1;4.927601814E0
1.512770312E0;6.962233543E0;-1.462751985E0;4.633440971E0
1.524682812E0;8.821560860E0;-1.307281971E0;6.187258720E0
1.536593750E0;8.541946411E0;-1.749816656E0;7.222789764E0
1.548506250E0;7.465188026E0;-2.729887962E0;6.906180382E0
1.560417187E0;6.094105244E0;-3.885923386E0;5.881308556E0
1.572328125E0;4.381944180E0;-4.987485886E0;4.445170403E0
1.584240625E0;4.803295612E0;-5.338859081E0;3.794694901E0
1.596156250E0;7.472083092E0;-4.726010799E0;5.792243958E0
1.608064062E0;1.036540890E1;-3.883299351E0;8.629286766E0
1.619987500E0;1.144444752E1;-3.155471563E0;1.017807674E1
1.631892187E0;1.206543541E1;-2.276253700E0;1.143276405E1
1.643801562E0;1.171891785E1;-1.540381432E0;1.172615814E1
1.655710937E0;1.090065670E1;-1.136134863E0;1.016237068E1
1.667621875E0;9.866753578E0;-4.292899370E-1;8.102380753E0
1.679532812E0;9.540165901E0;4.089009166E-1;5.659816265E0
1.691445312E0;9.590157509E0;9.667115808E-1;4.312637329E0
1.703356250E0;1.037462234E1;1.616890669E0;4.316362858E0
1.715268750E0;1.068566704E1;1.437880993E0;4.834544659E0
1.727179687E0;1.142817593E1;1.148460150E0;5.971158028E0
1.739092187E0;1.181420708E1;1.125859022E0;7.448074341E0
1.751007812E0;1.131998634E1;5.629917383E-1;7.528002262E0
1.762914062E0;1.042006302E1;-2.637069523E-1;7.562574863E0
1.774826562E0;9.643251419E0;-8.082920313E-1;7.900856018E0
1.786737500E0;8.363089561E0;-1.815475225E0;7.518980980E0
1.798648437E0;7.620150566E0;-2.288186550E0;7.486716747E0
1.810560937E0;7.939843178E0;-1.920858383E0;6.800241470E0
1.822473437E0;8.187499046E0;-1.581389427E0;6.015987396E0
1.834384375E0;8.032680511E0;-1.528535008E0;5.361872196E0
1.846295312E0;7.438909054E0;-1.763846636E0;4.869423389E0
1.858207812E0;6.549463272E0;-2.193519831E0;4.488390446E0
1.870126562E0;6.255062580E0;-2.330659628E0;4.803697586E0
1.882029687E0;5.733825684E0;-2.457954645E0;4.916358948E0
1.893942187E0;4.925868511E0;-2.577109098E0;4.316247463E0
1.905853125E0;4.453569412E0;-2.525413513E0;4.073293686E0
1.917784375E0;4.776106834E0;-2.066895247E0;4.760314465E0
1.929676562E0;5.167501450E0;-1.973712921E0;5.475884438E0
1.941587500E0;5.559192657E0;-2.494585752E0;6.081358433E0
1.953500000E0;6.611013412E0;-1.998459339E0;7.340354443E0
1.965410937E0;7.131915092E0;-1.699691653E0;7.107724190E0
1.977323437E0;7.859694958E0;-1.276597857E0;7.087517262E0
1.989234375E0;8.079185486E0;-5.356978178E-1;7.189050198E0
2.001145312E0;8.215645790E0;-1.658607125E-1;6.668550968E0
2.013057812E0;8.564576149E0;-1.233109683E-1;6.594023705E0
2.024968750E0;8.456148148E0;-3.911454976E-1;7.760622978E0
2.036893750E0;7.980381966E0;-9.554396868E-1;8.345181465E0
2.048795312E0;7.396570206E0;-1.656758785E0;8.446130753E0
2.060703125E0;7.158366203E0;-2.102022886E0;8.771569252E0
2.072615625E0;7.453533173E0;-1.798313618E0;9.505171776E0
2.084526562E0;7.958537102E0;-1.338234305E0;9.426431656E0
2.096456250E0;8.034873962E0;-1.259943843E0;8.589083672E0
2.108354687E0;7.591582298E0;-1.391308904E0;7.847560883E0
2.120262500E0;7.065547943E0;-1.462091088E0;7.587637424E0
2.132173437E0;6.231082439E0;-1.786974788E0;7.465101719E0
2.144085937E0;5.314543247E0;-2.501844883E0;7.466030598E0
2.155996875E0;4.497555733E0;-3.005623341E0;7.222798824E0
2.167907812E0;4.044132233E0;-3.207176685E0;7.309775352E0
2.179820312E0;3.795212030E0;-3.288541317E0;7.746535301E0
2.191732812E0;3.831115484E0;-3.710380554E0;8.605689049E0
2.203643750E0;4.226963043E0;-4.149275780E0;9.555421829E0
2.215560937E0;4.303711414E0;-4.720580578E0;1.008183002E1
2.227476562E0;4.465492725E0;-5.656703472E0;9.136637688E0
2.239378125E0;4.084862709E0;-6.619632244E0;8.231331825E0
2.251290625E0;3.969931126E0;-6.900463104E0;7.754062653E0
2.263201562E0;3.633258581E0;-6.981367588E0;7.774614811E0
2.275132812E0;3.143807173E0;-6.935226440E0;8.354011536E0
2.287025000E0;2.132323980E0;-7.092075825E0;9.083045959E0
2.298935937E0;1.140607357E0;-7.711704731E0;9.669711113E0
2.310846875E0;3.848248422E-1;-8.443382263E0;9.837756157E0
2.322759375E0;5.154333115E-1;-8.540194511E0;9.176074982E0
2.334670312E0;1.223312616E0;-7.758812904E0;7.234233856E0
2.346592187E0;2.431426764E0;-6.825888157E0;5.139460564E0
2.358493750E0;2.707573891E0;-5.729908466E0;4.214608669E0
2.370404687E0;2.203469992E0;-4.870792389E0;3.248625278E0
2.382317187E0;1.489394546E0;-5.009570122E0;2.512446642E0
2.394228125E0;1.378351450E0;-4.645479202E0;3.068265200E0
2.406140625E0;1.093757510E0;-3.919030428E0;4.581151962E0
2.418051562E0;4.251431823E-1;-4.173438549E0;6.126666546E0
2.429962500E0;-5.309381485E-1;-5.140724659E0;7.778924465E0
2.441875000E0;-1.039093137E0;-5.883769989E0;8.082489967E0
2.453785937E0;-1.975886822E-1;-5.279885292E0;8.485777855E0
2.465698437E0;7.550737262E-1;-4.341798782E0;8.638643265E0
2.477609375E0;1.639731288E0;-3.548743248E0;8.543220520E0
2.489520312E0;2.218936443E0;-3.418747663E0;7.522591114E0
2.501432812E0;2.528209925E0;-3.359926939E0;8.000713348E0
2.513343750E0;3.130438089E0;-2.981767654E0;9.556398392E0
2.525256250E0;3.580796957E0;-2.894043922E0;1.072482586E1
2.537167187E0;3.818273067E0;-3.620444775E0;1.130725861E1
2.549078125E0;4.207100391E0;-3.946468115E0;1.175679493E1
2.560990625E0;4.084805012E0;-4.366726875E0;1.154027271E1
2.572907812E0;3.798046589E0;-4.707824230E0;1.108548927E1
2.584812500E0;3.668529987E0;-4.447775364E0;9.951642990E0
2.596737500E0;2.978597641E0;-4.165135384E0;7.859445572E0
2.608637500E0;2.666977882E0;-4.241041183E0;5.912911892E0
2.620548437E0;2.713952065E0;-4.196489811E0;5.722486973E0
2.632460937E0;2.694271803E0;-4.593381405E0;6.866599083E0
2.644371875E0;2.214933395E0;-5.465799809E0;7.597999096E0
2.656282812E0;2.374128580E0;-5.207934380E0;8.233084679E0
2.668195312E0;2.834303856E0;-4.507851124E0;8.043981552E0
2.680107812E0;2.986948490E0;-4.108507633E0;7.862405300E0
2.692020312E0;2.902414083E0;-3.641408443E0;6.910624027E0
2.703948437E0;2.351115704E0;-4.027784824E0;6.513329983E0
2.715842187E0;9.599599838E-1;-5.022958279E0;6.337356091E0
2.727753125E0;6.851055622E-1;-5.327166080E0;8.496811867E0
2.739665625E0;1.286423683E0;-5.496569633E0;1.012028122E1
2.751576562E0;1.948410869E0;-5.055232525E0;9.011028290E0
2.763487500E0;2.350282431E0;-4.248003483E0;6.218450546E0
2.775400000E0;2.213937521E0;-4.096613407E0;4.609355450E0
2.787310937E0;2.855171680E0;-3.799186230E0;3.813072681E0
2.799221875E0;4.180247784E0;-2.961464643E0;5.106784344E0
2.811134375E0;4.560303211E0;-3.129240751E0;5.450361729E0
2.823045312E0;6.450458050E0;-3.344163656E0;8.240286827E0
2.834956250E0;8.136522293E0;-2.468661308E0;1.197301960E1
2.846868750E0;8.485921860E0;-2.984343767E0;1.310958576E1
2.858779687E0;7.476842880E0;-3.836286783E0;1.213107491E1
2.870692187E0;5.591792107E0;-4.236156940E0;1.020900059E1
2.882603125E0;3.739848375E0;-4.645096302E0;7.859225750E0
2.894515625E0;2.845154285E0;-4.815697193E0;6.069885254E0
2.906426562E0;5.425280094E0;-3.803591490E0;6.996115685E0
2.918339062E0;6.821971416E0;-2.336463213E0;8.716588974E0
2.930250000E0;7.046796322E0;-2.461718321E0;7.930965424E0
2.942160937E0;6.895760536E0;-3.389433146E0;7.531794548E0
2.954073437E0;6.470301151E0;-4.082094669E0;7.693920612E0
2.965984375E0;5.774440765E0;-5.049275398E0;6.978073120E0
2.977896875E0;5.644962311E0;-5.758055210E0;6.786087036E0
2.989807812E0;7.163441658E0;-5.683432579E0;8.187595367E0
3.001718750E0;8.655307770E0;-4.838088036E0;9.816379547E0
3.013631250E0;8.686297417E0;-5.286483288E0;9.993389130E0
3.025542187E0;8.463598251E0;-5.266668797E0;9.454060555E0
3.037453125E0;7.525244236E0;-4.741582394E0;7.753928661E0
3.049365625E0;6.135438919E0;-4.864376068E0;5.827831745E0
3.061276562E0;4.577301979E0;-4.950280190E0;3.990741730E0
3.073189062E0;3.508415222E0;-5.092093945E0;2.680768490E0
3.085100000E0;3.194937706E0;-5.480413914E0;2.554862261E0
3.097012500E0;3.762708187E0;-5.606837273E0;3.996889830E0
3.108943750E0;4.565694809E0;-5.823828697E0;6.077853680E0
3.120835937E0;4.826921463E0;-6.024587631E0;7.782448292E0
3.132746875E0;4.594779491E0;-6.379197121E0;8.305371284E0
3.144659375E0;4.566604614E0;-6.160942078E0;8.147238731E0
3.156570312E0;4.444873333E0;-5.116303921E0;7.312801838E0
3.168485937E0;4.771653175E0;-4.223927021E0;5.809492111E0
3.180393750E0;5.205607414E0;-4.005365372E0;5.307227135E0
3.192304687E0;5.124376774E0;-3.328534126E0;5.751188278E0
3.204217187E0;5.081156731E0;-3.004503012E0;5.846305370E0
3.216128125E0;5.143195152E0;-3.117499590E0;6.204305649E0
3.228039062E0;5.255071640E0;-3.769038677E0;7.425310135E0
3.239956250E0;5.742272377E0;-4.702279091E0;9.300804138E0
3.251862500E0;6.031788826E0;-4.949609756E0;1.100837708E1
3.263775000E0;6.493821621E0;-4.435287476E0;1.164482212E1
3.275685937E0;6.832678318E0;-3.539242983E0;1.078945160E1
3.287612500E0;7.029998302E0;-2.853151083E0;9.644984245E0
3.299509375E0;6.592884064E0;-2.729054689E0;8.098291397E0
3.311420312E0;6.216487408E0;-2.718290567E0;6.733673573E0
3.323332812E0;5.932391167E0;-2.897386312E0;6.566490650E0
3.335243750E0;5.619430542E0;-3.120353460E0;7.215721607E0
3.347156250E0;5.343092442E0;-3.409554005E0;8.137814522E0
3.359067187E0;5.156363487E0;-4.038481712E0;8.935735703E0
3.370978125E0;4.700995922E0;-4.286109447E0;9.489600182E0
3.382890625E0;4.340975285E0;-4.164713860E0;9.432235718E0
3.394801562E0;4.324244022E0;-3.747883320E0;8.959035873E0
3.406712500E0;4.392517567E0;-3.341491461E0;7.982249737E0
3.418634375E0;4.322367191E0;-3.124959946E0;7.113364697E0
3.430535937E0;4.481122017E0;-3.139650822E0;6.933742046E0
3.442448437E0;4.827409744E0;-3.296442032E0;7.055118561E0
3.454359375E0;5.039650917E0;-3.258460760E0;7.687417984E0
3.466270312E0;4.854598045E0;-3.659048796E0;8.002331734E0
3.478182812E0;4.952788830E0;-4.190523624E0;8.034471512E0
3.490093750E0;4.963802814E0;-4.555170059E0;7.963382721E0
3.502004687E0;4.891794205E0;-4.399297714E0;8.158912659E0
3.513917187E0;4.513395786E0;-4.044161320E0;8.644772530E0
3.525848437E0;3.863724470E0;-3.749836922E0;9.211719513E0
3.537746875E0;3.486225843E0;-3.642433167E0;1.002690697E1
3.549653125E0;2.546396255E0;-3.947176695E0;1.003929996E1
3.561564062E0;1.886544824E0;-4.442000389E0;8.718504906E0
3.573475000E0;1.842769146E0;-4.540402412E0;7.324456692E0
3.585385937E0;2.196766376E0;-4.556961060E0;6.112434864E0
3.597298437E0;3.194161892E0;-4.400351048E0;5.758131981E0
3.609209375E0;4.369216919E0;-3.991105556E0;6.563033581E0
3.621121875E0;5.452526569E0;-3.834850311E0;7.752118587E0
3.633032812E0;6.309784889E0;-3.678049326E0;9.310753822E0
3.644945312E0;6.808669090E0;-3.357503891E0;1.037940979E1
3.656862500E0;6.440862179E0;-3.559833288E0;1.029943466E1
3.668768750E0;5.598668575E0;-3.778730154E0;9.204345703E0
3.680679687E0;4.611615658E0;-3.969308615E0;7.655067444E0
3.692590625E0;4.039247990E0;-3.815265894E0;5.824374676E0
3.704506250E0;3.742127657E0;-3.603848219E0;4.664182663E0
3.716414062E0;3.973848104E0;-3.370940208E0;4.555408955E0
3.728326562E0;4.044908047E0;-3.342439651E0;4.719517708E0
3.740237500E0;3.930723667E0;-3.536848783E0;4.853333950E0
3.752150000E0;4.313633442E0;-3.685250998E0;5.439224243E0
3.764067187E0;4.753228188E0;-3.776527643E0;6.611865520E0
3.775976562E0;5.210529804E0;-3.776958466E0;7.025430679E0
3.787884375E0;5.550027847E0;-3.899273396E0;6.935849190E0
3.799795312E0;5.830695152E0;-3.668108702E0;7.058681011E0
3.811707812E0;5.507899284E0;-3.627675295E0;6.061218262E0
3.823634375E0;5.293254375E0;-3.989305258E0;5.612717152E0
3.835531250E0;4.910564899E0;-4.627522469E0;4.482491493E0
3.847442187E0;3.718674183E0;-4.994735718E0;2.909405231E0
3.859353125E0;2.473325253E0;-5.436054230E0;1.826411963E0
3.871265625E0;1.825674534E0;-5.762958527E0;2.151429653E0
3.883176562E0;4.100989819E0;-5.511854649E0;3.857643127E0
3.895090625E0;6.796496868E0;-4.000596046E0;6.332969666E0
3.907000000E0;8.229464531E0;-2.807364225E0;7.363893986E0
3.918910937E0;9.030508041E0;-2.444776773E0;6.419821739E0
3.930823437E0;8.604933739E0;-2.759566307E0;5.205540657E0
3.942740625E0;6.903230667E0;-3.455541849E0;3.451854706E0
3.954645312E0;4.773425102E0;-4.057348251E0;2.176310301E0
3.966557812E0;4.086404324E0;-4.540220261E0;2.648283958E0
3.978468750E0;4.239575863E0;-4.834123135E0;3.656683445E0
3.990381250E0;6.118018627E0;-4.987534046E0;4.095109463E0
4.002292187E0;7.457411766E0;-4.808801651E0;4.423517704E0
4.014203125E0;7.945177555E0;-4.829784870E0;3.351987839E0
4.026115625E0;7.723024368E0;-4.477904320E0;1.748274803E0
4.038026562E0;6.902273178E0;-4.137525558E0;5.562975407E-1
4.049939062E0;6.601647377E0;-4.371065617E0;2.308585048E-1
4.061850000E0;7.715506554E0;-4.461508751E0;6.645346284E-1
4.073760937E0;9.252440453E0;-3.601425409E0;1.093182802E0
4.085673437E0;1.045269203E1;-3.309342384E0;1.443847299E0
4.097585937E0;1.137705421E1;-3.200272083E0;1.656241655E0
4.109496875E0;1.108745193E1;-3.147226095E0;5.019012690E-1
4.121407812E0;1.088742161E1;-2.913753033E0;-1.489135981E0
4.133325000E0;9.919809341E0;-3.382049322E0;-2.309063911E0
4.145231250E0;7.854944706E0;-4.816827297E0;-2.026002169E0
4.157142187E0;6.300782204E0;-6.180123806E0;-1.633468032E0
4.169054687E0;7.338936806E0;-6.333697796E0;-1.775932670E0
4.180965625E0;9.341399193E0;-5.704616547E0;-2.512254953E0
4.192878125E0;1.083007526E1;-5.437183857E0;-3.522665501E0
4.204789062E0;1.177023029E1;-5.555084705E0;-3.949110985E0
4.216701562E0;1.204365826E1;-5.709414482E0;-3.600036621E0
4.228612500E0;1.269707394E1;-5.442671776E0;-2.856531620E0
4.240525000E0;1.245550919E1;-5.329205513E0;-3.320298195E0
4.252442187E0;1.213260746E1;-5.131119251E0;-2.947367668E0
4.264346875E0;1.190379906E1;-5.199851513E0;-3.257560253E0
4.276259375E0;1.065829659E1;-6.337624550E0;-4.275996685E0
4.288170312E0;8.424850464E0;-7.898202896E0;-4.387556553E0
4.300082812E0;6.918725491E0;-8.034452438E0;-5.016513348E0
4.311993750E0;7.061994553E0;-8.146328926E0;-4.555658340E0
4.323904687E0;7.797512531E0;-8.182797432E0;-3.717812300E0
4.335817187E0;9.272169113E0;-7.872546673E0;-2.057758808E0
4.347728125E0;1.036901951E1;-7.579228401E0;1.056034490E-1
4.359639062E0;1.011505222E1;-7.597654343E0;1.499220371E0
4.371554687E0;8.367706299E0;-7.747292042E0;2.118294001E0
4.383462500E0;6.213527679E0;-8.426623344E0;3.516287327E0
4.395375000E0;5.076330185E0;-8.502767563E0;3.823214531E0
4.407285937E0;4.454144001E0;-7.790847301E0;3.544069767E0
4.419198437E0;4.109685421E0;-7.164830685E0;3.602191448E0
4.431109375E0;5.371765137E0;-6.578912258E0;3.935042858E0
4.443020312E0;6.109638691E0;-6.256546974E0;4.270049095E0
4.454932812E0;6.337595940E0;-6.022585392E0;4.138933182E0
4.466843750E0;7.308061123E0;-5.743172646E0;3.750880957E0
4.478768750E0;7.985888481E0;-6.387136459E0;4.073284149E0
4.490667187E0;8.585826874E0;-6.655124187E0;3.725703478E0
4.502578125E0;9.802647591E0;-5.780952930E0;2.028453827E0
4.514490625E0;1.035193443E1;-4.899092197E0;3.799502254E-1
4.526401562E0;1.102489662E1;-4.091345787E0;-6.923456192E-1
4.538314062E0;1.140617752E1;-3.717764378E0;-1.110967040E0
4.550226562E0;1.104340839E1;-3.652603865E0;-1.014930844E0
4.562135937E0;1.076811314E1;-3.413767815E0;-9.848787785E-1
4.574048437E0;1.013486576E1;-3.421132326E0;-1.488532662E0
4.585960937E0;8.986904144E0;-4.169990540E0;-6.953240633E-1
4.597871875E0;8.056690216E0;-4.468777180E0;-7.276362181E-1
4.609785937E0;8.319123268E0;-4.516603947E0;-2.454344034E-1
4.621695312E0;8.546179771E0;-4.485488892E0;-4.068897963E-1
4.633606250E0;8.597367287E0;-4.181454182E0;-6.392805576E-1
4.645518750E0;8.272713661E0;-4.184355736E0;-4.692539573E-1
4.657429687E0;7.864818573E0;-4.062136650E0;-4.178169370E-1
4.669342187E0;7.509538174E0;-3.791285515E0;-1.063533068E0
4.681257812E0;7.230259418E0;-3.897319794E0;-1.129143834E0
4.693164062E0;7.209898949E0;-4.192390442E0;-5.777017474E-1
4.705076562E0;7.200015545E0;-4.540843010E0;3.437211514E-1
4.716987500E0;9.081006050E0;-4.628930092E0;2.221550941E0
4.728898437E0;9.601495743E0;-4.851984024E0;3.484224319E0
4.740810937E0;8.939211845E0;-5.171427727E0;3.985014677E0
4.752723437E0;9.324629784E0;-5.032985210E0;3.815725327E0
4.764634375E0;7.783425331E0;-4.896879673E0;2.821231365E0
4.776551562E0;7.653793335E0;-4.453023434E0;1.699346900E0
4.788457812E0;7.012271881E0;-4.611577034E0;6.833147407E-1
4.800370312E0;6.482444763E0;-4.663923740E0;-4.690145254E-1
4.812279687E0;5.788403988E0;-4.558828354E0;-9.521548748E-1
4.824192187E0;6.771070957E0;-4.332173824E0;-5.399212241E-1
4.836109375E0;8.604330063E0;-4.516201496E0;1.275515795E0
4.848015625E0;8.958048820E0;-4.612994671E0;2.755620956E0
4.859926562E0;8.898836136E0;-4.309132099E0;2.656347752E0
4.871837500E0;8.555909157E0;-3.920687199E0;2.096870661E0
4.883750000E0;8.132959366E0;-3.369714260E0;1.287582517E0
4.895660937E0;8.873783112E0;-3.072172642E0;9.507758021E-1
4.907573437E0;9.073363304E0;-3.102502346E0;1.068273664E0
4.919484375E0;8.759838104E0;-3.291280270E0;1.458317876E0
4.931395312E0;8.517994881E0;-3.621153593E0;1.611441374E0
4.943307812E0;8.680234909E0;-4.230707645E0;1.656797171E0
4.955218750E0;8.345249176E0;-4.306010246E0;1.912459612E0
4.967131250E0;7.314870834E0;-4.426007271E0;1.001408339E0
4.979042187E0;5.597624302E0;-5.054543018E0;4.367962360E0
4.990953125E0;6.810728073E0;-6.440182209E0;8.871187568E-1
5.002865625E0;1.165354729E1;-6.629822254E0;-1.333388448E0
5.014776562E0;1.381892014E1;-5.326208115E0;-1.635622829E-1
5.026687500E0;1.244836426E1;-4.094142437E0;1.691695094E0
5.038600000E0;1.121784115E1;-4.189460278E0;1.811587095E0
5.050510937E0;9.031446457E0;-5.708380222E0;1.048535943E0
5.062423437E0;6.694465637E0;-6.524831772E0;1.027016759E0
5.074337500E0;5.626096249E0;-6.230402470E0;1.583592057E0
5.086246875E0;6.538402081E0;-6.252515316E0;1.456048131E0
5.098157812E0;8.259670258E0;-6.649186611E0;2.140636444E0
5.110070312E0;9.654656410E0;-5.933138371E0;3.711070061E0
5.121981250E0;8.832756042E0;-4.168391228E0;3.609977245E0
5.133893750E0;5.864597321E0;-1.902289033E0;1.618020654E0
5.145804687E0;4.852031708E0;-1.548876047E0;-5.658552051E-1
5.157715625E0;5.004264832E0;-2.087514162E0;-2.094514608E0
5.169628125E0;5.334329128E0;-3.173916578E0;-3.078426361E0
5.181539062E0;6.187076569E0;-3.219990492E0;-4.289250374E0
5.193451562E0;5.933128834E0;-5.408511162E0;8.948185444E-1
5.205364062E0;5.594320297E0;-7.725341797E0;1.330984682E-1
5.217275000E0;5.745844841E0;-8.955147743E0;1.586465120E0
5.229185937E0;5.719479561E0;-9.212542534E0;2.550064325E0
5.241096875E0;6.142640591E0;-8.150542259E0;2.342898607E0
5.253009375E0;7.258932114E0;-7.163288593E0;-4.017183185E-1
5.264920312E0;8.282472610E0;-7.133322716E0;-4.401289463E0
5.276832812E0;7.355897427E0;-9.455612183E0;-4.798439980E0
5.288743750E0;6.200618744E0;-1.189949799E1;-9.953749776E-1
5.300654687E0;6.411901951E0;-1.261026096E1;3.174481630E0
5.312579687E0;7.986080170E0;-9.459414482E0;3.754481792E0
5.324487500E0;7.775534153E0;-7.652136803E0;1.922314048E0
5.336390625E0;6.204037666E0;-7.729210854E0;2.080561221E-1
5.348301562E0;4.084881783E0;-7.854322433E0;9.717585891E-2
5.360214062E0;2.130916119E0;-7.142277241E0;1.003515244E0
5.372128125E0;2.343923450E-1;-7.912501335E0;-3.968437314E-1
5.384035937E0;-2.346317656E-2;-8.773015976E0;-2.215163231E0
5.395948437E0;1.108716607E0;-9.456981659E0;-2.534157276E0
5.407860937E0;2.085799694E0;-1.067046833E1;-1.950182676E0
5.419771875E0;2.731477737E0;-1.118921566E1;-1.160038590E0
5.431704687E0;2.597718477E0;-1.033572102E1;-6.563943624E-1
5.443593750E0;2.157721758E0;-9.152085304E0;3.853707016E-2
5.455506250E0;2.259388924E0;-7.588642597E0;1.529281974E0
5.467417187E0;2.642537832E0;-5.576392651E0;3.167653322E0
5.479328125E0;2.201506853E0;-4.604404449E0;4.609125614E0
5.491240625E0;1.111599088E0;-5.356939793E0;5.185783386E0
5.503157812E0;3.696934879E-1;-6.938454151E0;4.576622009E0
5.515064062E0;7.837658525E-1;-8.747359276E0;3.230706930E0
5.526975000E0;3.104753017E0;-1.288941479E1;1.255979061E0
5.538887500E0;2.955239773E0;-1.656117249E1;8.889575005E-1
5.550810937E0;2.596942663E0;-2.006409073E1;-4.009138346E-1
5.562709375E0;8.717575669E-1;-2.007038307E1;-1.719822168E0
5.574621875E0;-3.399862051E-1;-1.426954746E1;-2.076002598E0
5.586532812E0;-4.528201520E-1;-9.753652573E0;-1.792423964E0
5.598445312E0;-5.063736439E-1;-7.474218845E0;-1.512072444E0
5.610356250E0;-4.961073399E-1;-7.064092159E0;-9.486688972E-1
5.622268750E0;-1.371207088E-1;-8.410389900E0;-1.059003323E-1
5.634181250E0;5.905441642E-1;-9.663256645E0;8.471643329E-1
5.646090625E0;1.064107776E0;-1.043269539E1;2.534291267E0
5.658003125E0;1.173752546E0;-1.018722248E1;4.022507668E0
5.669914062E0;9.310476184E-1;-9.894556046E0;3.697509289E0
5.681826562E0;4.248941839E-1;-9.301013947E0;2.739483833E0
5.693737500E0;-5.736507475E-2;-9.111670494E0;1.685134888E0
5.705650000E0;-7.439263165E-2;-9.128640175E0;7.800117731E-1
5.717560937E0;-1.505569816E-1;-9.506771088E0;3.132190406E-1
5.729475000E0;-2.720962167E-1;-9.972108841E0;5.233916640E-1
5.741384375E0;-2.037178278E-1;-1.010015011E1;1.209742188E0
5.753306250E0;-8.496543020E-2;-1.007791328E1;1.868166924E0
5.765207812E0;-7.408617437E-2;-1.007788467E1;2.362282276E0
5.777118750E0;5.680004135E-2;-9.926427841E0;2.480823994E0
5.789032812E0;3.115335405E-1;-9.551792145E0;2.219587803E0
5.800942187E0;8.446264863E-1;-9.280146599E0;1.937809467E0
5.812853125E0;1.685010433E0;-9.109018326E0;1.842960715E0
5.824765625E0;2.251277447E0;-9.263031960E0;1.843583226E0
5.836676562E0;2.475508690E0;-9.430866241E0;1.830549240E0
5.848595312E0;2.599107265E0;-9.607222557E0;1.524665952E0
5.860500000E0;2.272250652E0;-9.820297241E0;1.366447568E0
5.872410937E0;1.634990692E0;-1.011892128E1;1.427662492E0
5.884323437E0;6.829699874E-1;-1.033590221E1;1.640803814E0
5.896234375E0;-1.154962927E-2;-1.025992107E1;2.567024708E0
5.908145312E0;3.544663489E-1;-9.705998421E0;2.491626501E0
5.920067187E0;9.750817418E-1;-9.291724205E0;1.104167461E0
5.931970312E0;-8.371087164E-2;-9.866112709E0;9.976063967E-1
5.943879687E0;-7.223019600E-1;-1.006445789E1;1.740278244E0
5.955792187E0;-7.711149454E-1;-9.820096016E0;1.748016238E0
5.967709375E0;-5.892896652E-1;-9.484955788E0;1.127918005E0
5.979615625E0;-3.405608237E-1;-9.494570732E0;1.037378907E0
5.991526562E0;-6.751649082E-3;-9.517143250E0;1.423477411E0
6.003439062E0;-2.473689243E-2;-9.698546410E0;2.025925636E0
6.015350000E0;2.886928320E-1;-9.808938980E0;2.109052181E0
6.027264062E0;6.538661122E-1;-9.959371567E0;2.001763344E0
6.039173437E0;9.235393405E-1;-9.971199036E0;1.803925633E0
6.051084375E0;1.070581675E0;-9.911104202E0;1.627195239E0
6.062996875E0;1.321244955E0;-9.779414177E0;1.084946871E0
6.074907812E0;1.497295380E0;-9.744228363E0;7.195534110E-1
6.086826562E0;1.430477977E0;-9.535837173E0;5.414534807E-1
6.098731250E0;1.082409024E0;-9.481565475E0;6.500161886E-1
6.110643750E0;6.734601855E-1;-9.548152924E0;9.848021865E-1
6.122554687E0;6.968372464E-1;-9.526960373E0;1.332172155E0
6.134465625E0;9.708104730E-1;-9.647885323E0;1.363497972E0
6.146376562E0;1.059482217E0;-9.661551476E0;1.222680569E0
6.158289062E0;9.990812540E-1;-9.616952896E0;1.216273546E0
6.170201562E0;1.155997157E0;-9.474478722E0;1.316236377E0
6.182112500E0;1.187208056E0;-9.443363190E0;1.525652289E0
6.194025000E0;8.378652334E-1;-9.594236374E0;1.462062359E0
6.205935937E0;7.807587385E-1;-9.583702087E0;9.746316671E-1
6.217848437E0;6.874614954E-1;-9.589908600E0;2.857910693E-1
6.229759375E0;4.676738083E-1;-9.748203278E0;1.244984940E-2
6.241670312E0;1.424071193E-1;-9.819387436E0;3.793373108E-1
6.253582812E0;-1.587834656E-1;-9.525810242E0;1.258909583E0
6.265498437E0;3.967671096E-2;-9.021955490E0;1.944273710E0
6.277406250E0;7.570753098E-1;-8.893904686E0;2.275353432E0
6.289317187E0;1.101811647E0;-9.083209038E0;2.409974575E0
6.301228125E0;9.591746926E-1;-9.546477318E0;2.643016577E0
6.313140625E0;7.533882260E-1;-9.848528862E0;2.937599421E0
6.325053125E0;6.370683312E-1;-9.915384293E0;3.330985785E0
6.336962500E0;7.968190312E-1;-9.851221085E0;3.529551268E0
6.348875000E0;1.057107091E0;-9.609511375E0;3.205146551E0
6.360785937E0;9.815269113E-1;-9.794123650E0;2.831105232E0
6.372698437E0;8.861323595E-1;-9.981034279E0;2.452859640E0
6.384610937E0;9.390825033E-1;-1.027412319E1;2.094773293E0
6.396520312E0;9.811151028E-1;-1.089113808E1;1.597660422E0
6.408432812E0;9.676789045E-1;-1.154536724E1;1.262338042E0
6.420351562E0;1.031048536E0;-1.224749088E1;5.442882180E-1
6.432254687E0;1.624418020E0;-1.242411613E1;-8.003145456E-1
6.444167187E0;2.727704287E0;-1.257129192E1;-2.307895422E0
6.456078125E0;2.727235079E0;-1.341403198E1;-2.618155241E0
6.467990625E0;2.286692381E0;-1.413848972E1;-2.041028261E0
6.479901562E0;1.990079641E0;-1.408390141E1;-6.130592823E-1
6.491812500E0;1.530680180E0;-1.347936535E1;4.112089276E-1
6.503731250E0;1.067497969E0;-1.284436512E1;5.770504475E-1
6.515635937E0;6.639025211E-1;-1.196275330E1;3.681037426E-1
6.527548437E0;2.178915143E-1;-1.152919197E1;3.371036053E-2
6.539459375E0;-1.857900470E-1;-1.150150585E1;-2.515731454E-1
6.551371875E0;-5.019012690E-1;-1.168685532E1;-5.119761229E-1
6.563282812E0;-1.015687346E0;-1.169291687E1;2.680548280E-2
6.575193750E0;-1.106896877E0;-1.146236515E1;1.505119681E0
6.587106250E0;-8.717862964E-1;-1.133665085E1;2.781708002E0
6.599018750E0;-5.299900770E-1;-1.120526695E1;3.997052670E0
6.610929687E0;-1.702851951E-1;-1.109210682E1;4.924681187E0
6.622843750E0;-1.599230915E-1;-1.071310425E1;5.163746834E0
6.634753125E0;-8.542894721E-1;-1.027986908E1;4.283016205E0
6.646664062E0;-1.200874090E0;-9.829740524E0;1.598043442E0
6.658575000E0;-1.110449910E0;-8.998233795E0;5.200206116E-2
6.670487500E0;-1.121166348E0;-8.598602295E0;-9.929711819E-1
6.682406250E0;-7.733654976E-1;-8.525646210E0;-1.143375039E0
6.694310937E0;1.101332717E-2;-8.722412109E0;-1.195769668E0
6.706221875E0;7.218326330E-1;-9.036206245E0;-1.377594948E0
6.718134375E0;1.214913726E0;-9.392596245E0;-1.817266107E0
6.730045312E0;1.428725481E0;-9.163423538E0;-2.218926907E0
6.741957812E0;1.505263329E0;-8.486745834E0;-2.001571894E0
6.753868750E0;1.154522300E0;-7.974980354E0;-1.743084192E0
6.765779687E0;2.451662570E-1;-7.810910702E0;-1.731726050E0
6.777692187E0;-5.871157050E-1;-7.825362206E0;-1.737405181E0
6.789603125E0;-1.552678108E0;-7.999286652E0;-1.943814039E0
6.801514062E0;-2.288042784E0;-8.050848007E0;-1.278168559E0
6.813426562E0;-2.074489594E0;-7.576192856E0;1.398980021E-1
6.825337500E0;-1.681783080E0;-7.064092159E0;6.626862884E-1
6.837251562E0;-1.245482922E0;-6.696620464E0;5.384559035E-1
6.849160937E0;-4.736688435E-1;-6.297574043E0;2.167518586E-1
6.861071875E0;1.967842281E-1;-6.288351536E0;-2.002797574E-1
6.872990625E0;3.522541225E-1;-6.525923252E0;-9.826474190E-1
6.884895312E0;4.139862061E-1;-6.352478027E0;-1.705121756E0
6.896807812E0;5.200206041E-1;-5.831739426E0;-1.938872457E0
6.908718750E0;7.835456133E-1;-5.541983604E0;-1.818463206E0
6.920637500E0;1.136154056E0;-5.866330624E0;-2.096698284E0
6.932542187E0;1.527136683E0;-7.152782917E0;-3.368929148E0
6.944453125E0;2.401479959E0;-8.569307327E0;-4.245312691E0
6.956365625E0;3.795518398E0;-9.067482948E0;-4.304831982E0
6.968276562E0;5.157397747E0;-9.472841263E0;-3.749980688E0
6.980187500E0;6.309277058E0;-9.866705894E0;-4.597547531E0
6.992106250E0;7.210434914E0;-1.057080269E1;-4.637444496E0
7.004010937E0;7.839545250E0;-1.132434368E1;-3.823233604E0
7.015923437E0;7.882564545E0;-1.189179897E1;-3.351767540E0
7.027834375E0;7.349978924E0;-1.207263756E1;-3.719832659E0
7.039746875E0;6.521173477E0;-1.169573212E1;-4.059350014E0
7.051657812E0;5.055519581E0;-1.159856606E1;-3.734111786E0
7.063568750E0;2.741581202E0;-1.238750362E1;-1.655935168E0
7.075481250E0;6.956114173E-1;-1.279674911E1;7.267838717E-1
7.087393750E0;-6.749159098E-1;-1.253895092E1;1.557026029E0
7.099304687E0;-1.143049359E0;-1.213548088E1;1.849434614E0
7.111215625E0;-1.213745356E0;-1.131155014E1;1.160776019E0
7.123128125E0;-1.790872455E0;-9.736270905E0;5.260348320E-1
7.135039062E0;-2.507351637E0;-8.314219475E0;1.983969569E0
7.146951562E0;-2.658061743E0;-7.326017380E0;2.779323578E0
7.158860937E0;-2.574676514E0;-6.736124992E0;2.699318886E0
7.170773437E0;-1.865255475E0;-6.537358284E0;2.429453850E0
7.182685937E0;-4.818378985E-1;-6.752998829E0;2.146545410E0
7.194598437E0;6.517495513E-1;-7.659817219E0;2.262348175E0
7.206509375E0;1.332660556E0;-8.665401459E0;2.355463505E0
7.218428125E0;1.267653227E0;-9.512968063E0;2.169788361E0
7.230331250E0;1.643724799E0;-9.778446198E0;2.113515139E0
7.242243750E0;2.548867226E0;-9.650730133E0;2.009606600E0
7.254154687E0;3.650554180E0;-9.205379486E0;1.013465524E0
7.266067187E0;4.159609318E0;-8.861208916E0;-4.497460127E-1
7.278000000E0;3.970065117E0;-8.952475548E0;-1.646042347E0
7.289889062E0;3.545305252E0;-8.945120811E0;-2.333111286E0
7.301801562E0;3.210672379E0;-8.830429077E0;-2.498138666E0
7.313712500E0;2.883969307E0;-8.766809464E0;-2.284585476E0
7.325625000E0;2.630882740E0;-8.821589470E0;-1.777005196E0
7.337546875E0;2.547172070E0;-9.158731461E0;-1.029621720E0
7.349453125E0;2.473612547E0;-9.339436531E0;-3.644645512E-1
7.361359375E0;2.352983236E0;-9.293850899E0;1.455100030E-1
7.373270312E0;2.161561966E0;-9.151616096E0;3.713215292E-1
7.385189062E0;1.668088198E0;-9.072808266E0;4.636898339E-1
7.397095312E0;1.040280581E0;-9.193897247E0;5.657115579E-1
7.409015625E0;5.609901547E-1;-9.420168877E0;6.784592867E-1
7.420917187E0;4.874020219E-1;-9.679297447E0;9.599695206E-1
7.432828125E0;7.384292483E-1;-1.015342712E1;1.242533207E0
7.444740625E0;9.474622011E-1;-1.063800335E1;1.654536963E0
7.456651562E0;8.069130182E-1;-1.090206432E1;2.331368208E0
7.468564062E0;6.237853169E-1;-1.092683029E1;3.117920876E0
7.480475000E0;5.367704630E-1;-1.060555649E1;3.480412483E0
7.492387500E0;4.003392756E-1;-1.025094700E1;3.219320297E0
7.504298437E0;4.099830985E-1;-1.016977406E1;2.434893608E0
7.516209375E0;7.562804818E-1;-1.054035854E1;1.424952269E0
7.528121875E0;1.499143839E0;-1.123526096E1;7.782592177E-1
7.540032812E0;2.581859112E0;-1.180469704E1;4.546876252E-1
7.551943750E0;4.219521999E0;-1.205975723E1;3.776517808E-1
7.563856250E0;6.019961357E0;-1.181251240E1;-8.061085939E-1
7.575789062E0;6.911916733E0;-1.128509903E1;-1.870944142E0
7.587687500E0;6.931128025E0;-1.157842636E1;-2.257799387E0
7.599590625E0;7.110999584E0;-1.259301281E1;-2.147148848E0
7.611503125E0;7.495431423E0;-1.381464958E1;-1.555637360E0
7.623414062E0;6.858334541E0;-1.495509338E1;-1.180102110E0
7.635346875E0;5.919654369E0;-1.487172794E1;-1.882484078E0
7.647237500E0;4.497287750E0;-1.295893288E1;-1.770138621E0
7.659148437E0;3.012729168E0;-1.132401848E1;-1.320440531E0
7.671060937E0;1.338981152E0;-1.115953732E1;-1.557447433E0
7.682971875E0;-2.283110842E-2;-1.259063816E1;-1.707132816E0
7.694890625E0;-7.814673781E-1;-1.512787819E1;-1.573210835E0
7.706795312E0;-1.393454075E0;-1.685275841E1;-5.983205438E-1
7.718707812E0;-1.468421340E0;-1.723451805E1;7.380174398E-1
7.730618750E0;-1.030244112E0;-1.654400063E1;-2.235035151E-1
7.742531250E0;-4.753160775E-1;-1.476349068E1;-1.607486248E0
7.754454687E0;-9.611092210E-1;-1.266628551E1;3.490746021E-2
7.766353125E0;-1.007920623E0;-1.045290279E1;2.031087637E0
7.778264062E0;-6.689399481E-1;-8.309392929E0;2.868885756E0
7.790176562E0;2.058726251E-1;-6.306681633E0;2.935530663E0
7.802089062E0;1.416831017E0;-4.950461864E0;2.989361763E0
7.813998437E0;2.445006609E0;-4.611538887E0;2.460080624E0
7.825910937E0;3.209436893E0;-4.800815105E0;2.962364912E0
7.837823437E0;3.394154310E0;-5.293397903E0;2.804500818E0
7.849734375E0;2.393923998E0;-6.102063656E0;1.536751866E0
7.861646875E0;1.347810984E0;-6.677083969E0;-4.888001829E-2
7.873575000E0;4.973906279E-1;-6.857099056E0;-1.540860295E0
7.885468750E0;-5.219455361E-1;-6.836652279E0;-2.039658785E0
7.897379687E0;-1.635833502E0;-6.870285988E0;-1.328916073E0
7.909292187E0;-2.790605068E0;-6.819921970E0;-2.985952497E-1
7.921203125E0;-3.230553627E0;-6.415272713E0;5.019970536E-1
7.933114062E0;-2.933251381E0;-5.854790688E0;7.988398075E-1
7.945028125E0;-2.786285639E0;-5.285295963E0;1.231673121E0
7.956939062E0;-2.069701195E0;-4.909195900E0;7.380270362E-1
7.968850000E0;-1.071529746E0;-4.619516373E0;2.279758900E-1
7.980762500E0;-7.220911980E-2;-4.451069832E0;-4.084699750E-1
7.992707812E0;9.943215251E-1;-4.315567970E0;-1.201851010E0
8.004584375E0;2.150491238E0;-4.588353634E0;-2.097368717E0
8.016496875E0;3.534157753E0;-5.745116711E0;-3.885061502E0
8.028407812E0;4.878147602E0;-8.115127563E0;-6.435374737E0
8.040320312E0;7.411988735E0;-1.085731220E1;-9.059535027E0
8.052234375E0;1.101082802E1;-1.368886757E1;-1.171790314E1
8.064145312E0;1.398209000E1;-1.575416279E1;-6.433468819E0
8.076054687E0;1.455975437E1;-1.687845039E1;-7.759320736E-1
8.087965625E0;1.223890018E1;-1.711418533E1;1.039753929E-1
8.099878125E0;1.007752991E1;-1.767537689E1;-3.289575577E0
8.111796875E0;8.148177147E0;-1.843108177E1;-4.681717873E0
8.123701562E0;4.867565632E0;-1.798533058E1;-1.931364298E0
8.135612500E0;1.869593740E0;-1.616883850E1;1.015333056E0
8.147523437E0;-1.003869653E0;-1.305455780E1;2.051782846E0
8.159435937E0;-3.108133554E0;-8.414776802E0;4.485115528E0
8.171362500E0;-4.434406281E0;-4.632981300E0;4.205099106E0
8.183259375E0;-4.523959160E0;-2.224328279E0;2.206017256E0
8.195189062E0;-4.372807980E0;-1.259714007E0;7.603218555E-1
8.207082812E0;-5.570416451E0;-1.697862506E0;-1.711969137E0
8.218993750E0;-4.694435596E0;-3.977994919E0;-5.964913964E-1
8.230904687E0;-2.265748024E0;-6.576288223E0;2.893814325E0
8.242817187E0;-1.192417860E0;-9.302766800E0;4.526554108E0
8.254728125E0;-3.406853378E-1;-1.167903137E1;3.926998377E0
8.266640625E0;1.508059651E-1;-1.271692657E1;2.893249035E0
8.278551562E0;3.650583029E-1;-1.158747673E1;2.257483244E0
8.290464062E0;1.182764411E0;-1.026933384E1;1.915888071E0
8.302375000E0;3.197102070E0;-8.811648369E0;1.914489865E0
8.314285937E0;5.731460571E0;-7.985045910E0;1.605551600E0
8.326198437E0;6.781021118E0;-7.817873001E0;-5.117845535E-2
8.338109375E0;6.042256355E0;-8.085593224E0;-1.150021195E0
8.350028125E0;4.127488613E0;-8.819032669E0;-1.621908784E0
8.361932812E0;2.651884794E0;-9.838923454E0;-1.378016353E0
8.373843750E0;2.357005358E0;-1.029154301E1;-8.475952744E-1
8.385756250E0;2.555858135E0;-9.895072937E0;1.639549248E-2
8.397667187E0;2.865620136E0;-9.277943611E0;2.674897909E-1
8.409579687E0;2.891937017E0;-8.927393913E0;-1.269022673E-1
8.421501562E0;2.557112694E0;-8.751917839E0;-2.695488036E-1
8.433401562E0;2.301641941E0;-8.481153488E0;1.584961563E-1
8.445314062E0;1.663749933E0;-8.546007156E0;6.682695746E-1
8.457225000E0;1.170716763E0;-8.783962250E0;6.938204765E-1
8.469135937E0;9.478836060E-1;-9.116382599E0;4.105864167E-1
8.481048437E0;1.028865099E0;-9.490327835E0;7.328172028E-2
8.492959375E0;1.436971068E0;-9.750568390E0;1.195855886E-1
8.504875000E0;1.682031989E0;-9.989030838E0;6.758927107E-1
8.516782812E0;1.768491507E0;-1.020137691E1;1.295502543E0
8.528693750E0;1.610656142E0;-1.021291733E1;1.848122597E0
8.540610937E0;1.363488317E0;-9.932863235E0;2.116522312E0
8.552517187E0;1.098565102E0;-9.803700447E0;2.083683252E0
8.564429687E0;1.214645505E0;-1.044831562E1;1.274883628E0
8.576342187E0;2.349899530E0;-1.134152508E1;1.827254705E-2
8.588267187E0;3.528900146E0;-1.195874023E1;-7.377014160E-1
8.600164062E0;4.488802910E0;-1.199007607E1;-1.035319805E0
8.612076562E0;4.752088547E0;-1.177580452E1;-9.717490077E-1
8.623987500E0;4.699587822E0;-1.153644180E1;-9.140487909E-1
8.635900000E0;4.557353497E0;-1.101178646E1;-1.044934988E0
8.647818750E0;5.021158218E0;-1.035456848E1;-1.476743698E0
8.659729687E0;6.215041161E0;-9.729279518E0;-1.754882812E0
8.671634375E0;7.268250465E0;-9.424822807E0;-1.545169950E0
8.683551562E0;7.023629665E0;-9.972749710E0;-1.140339136E0
8.695457812E0;6.795261860E0;-1.077302647E1;-5.230947733E-1
8.707368750E0;6.584389687E0;-1.159245586E1;1.383273900E-1
8.719279687E0;4.631401539E0;-1.258535194E1;4.320384860E-1
8.731192187E0;3.053363800E0;-1.351663780E1;4.175200462E-1
8.743103125E0;1.325066209E0;-1.461787510E1;1.269549489E0
8.755015625E0;-4.941919446E-1;-1.587052155E1;1.881306291E0
8.766939062E0;-1.411745906E0;-1.706242180E1;1.875301600E0
8.778848437E0;-1.597880602E0;-1.739245796E1;1.785183787E0
8.790750000E0;-1.308115244E0;-1.664438438E1;1.471217752E0
8.802660937E0;-7.523156404E-1;-1.396987057E1;-3.824018836E-1
8.814573437E0;-1.023377627E-1;-1.120269012E1;-1.749079227E0
8.826484375E0;2.689550519E-1;-9.079109192E0;-1.173168421E0
8.838395312E0;7.855662704E-1;-7.790176868E0;-2.256391495E-1
8.850317187E0;1.001054049E0;-6.900232792E0;6.698976159E-1
8.862218750E0;1.491827011E0;-6.381763458E0;1.038145065E0
8.874131250E0;1.645486951E0;-6.368854523E0;1.441012621E0
8.886042187E0;1.600973964E0;-6.785627365E0;2.066588640E0
8.897953125E0;1.329088330E0;-7.308205128E0;2.076539040E0
8.909865625E0;4.199238420E-1;-7.480903149E0;1.733143449E0
8.921776562E0;-6.741784811E-1;-7.190055847E0;9.590309858E-1
8.933689062E0;-1.398980021E0;-6.667842388E0;1.550676525E-1
8.945600000E0;-1.623824239E0;-6.087765694E0;-1.247924924E0
8.957520312E0;-1.754835010E0;-5.688115597E0;-2.156716108E0
8.969423437E0;-2.012881994E0;-5.517255783E0;-2.029085875E0
8.981334375E0;-2.107673168E0;-5.334080219E0;-9.354528785E-1
8.993246875E0;-1.983481169E0;-5.061189175E0;4.376887977E-1
9.005164062E0;-1.962977290E0;-4.946660042E0;9.399444461E-1
9.017081250E0;-1.662572026E0;-4.879105568E0;7.156460285E-1
9.028981250E0;-9.303388596E-1;-4.791927814E0;1.833766997E-1
9.040892187E0;2.758120187E-3;-4.625406265E0;-2.719525695E-1
9.052803125E0;1.004539967E0;-4.563080311E0;-3.807738423E-1
9.064715625E0;2.072066545E0;-4.951323986E0;-7.477666736E-1
9.076628125E0;3.340093374E0;-6.296300411E0;-1.368113875E0
9.088539062E0;4.545851707E0;-8.577984810E0;-3.752288580E0
9.100451562E0;6.581420898E0;-1.121478558E1;-8.521595955E0
9.112362500E0;1.069050312E1;-1.322238064E1;-1.338482285E1
9.124292187E0;1.477555752E1;-1.435226250E1;-7.340162754E0
9.136198437E0;1.705410004E1;-1.519871807E1;-2.244803496E-2
9.148096875E0;1.644248581E1;-1.393139076E1;-2.023579121E0
9.160009375E0;1.354194927E1;-1.112786579E1;-6.980707169E0
9.171920312E0;9.457604408E0;-9.148167610E0;-5.646628857E0
9.183832812E0;4.342507362E0;-1.013987541E1;-9.402030110E-1
9.195743750E0;1.186652541E0;-1.205776501E1;1.657706857E0
9.207654687E0;-9.419651628E-1;-1.290975571E1;2.008907557E0
9.219567187E0;-1.920159340E0;-1.303020287E1;4.074710846E0
9.231478125E0;-2.248136282E0;-1.293278790E1;3.392784834E0
9.243398437E0;-1.419953108E0;-1.177343941E1;1.959606171E0
9.255301562E0;-1.817256570E0;-1.063859653E1;3.957807124E-1
9.267212500E0;-3.721029997E0;-1.070040512E1;-8.876742125E-1
9.279123437E0;-5.758428574E0;-1.046160793E1;-1.324184984E-1
9.291035937E0;-5.170757294E0;-9.101605415E0;3.226330578E-1
9.302948437E0;-3.409122944E0;-8.545145035E0;2.103813648E0
9.314859375E0;-1.248767734E0;-8.777459145E0;3.191011190E0
9.326770312E0;4.396424592E-1;-8.608400345E0;2.961531639E0
9.338682812E0;1.183300614E0;-8.527092934E0;3.004799843E0
9.350593750E0;1.812439442E0;-8.977126122E0;4.011427402E0
9.362520312E0;2.582826376E0;-9.140066147E0;4.794963360E0
9.374429687E0;4.094056129E0;-8.951632500E0;5.048423290E0
9.386328125E0;5.007808208E0;-8.801285744E0;5.565178394E0
9.398240625E0;4.872564316E0;-8.838597298E0;2.323850632E0
9.410151562E0;3.424876690E0;-8.839938164E0;2.949847877E-1
9.422062500E0;1.810840130E0;-8.702280998E0;-6.627437472E-1
9.433975000E0;1.000201702E0;-8.701045990E0;-1.172402263E0
9.445885937E0;8.984481096E-1;-8.850952148E0;-1.456871748E0
9.457798437E0;7.908335328E-1;-9.097449303E0;-1.687586546E0
9.469709375E0;1.000364542E0;-9.026609421E0;-1.544011116E0
9.481620312E0;1.676985145E0;-8.681950569E0;-1.290139556E0
9.493534375E0;2.297456741E0;-8.293361664E0;-9.719022512E-1
9.505443750E0;2.446376324E0;-8.094316483E0;-6.723493338E-1
9.517354687E0;2.026624680E0;-8.223363876E0;-5.321065784E-1
9.529267187E0;1.881928682E0;-8.656734467E0;-3.367396891E-1
9.541179687E0;2.054004908E0;-9.229360580E0;1.441692561E-1
9.553090625E0;2.036661148E0;-9.740522385E0;4.903133512E-1
9.565001562E0;1.771096349E0;-9.928707123E0;6.998443007E-1
9.576914062E0;1.529779911E0;-9.868544579E0;8.614816070E-1
9.588826562E0;1.902700782E0;-9.838090897E0;5.207867622E-1
9.600737500E0;3.089631081E0;-9.756601334E0;1.652573794E-1
9.612648437E0;4.056227684E0;-1.004498863E1;2.964021564E-1
9.624560937E0;4.453435421E0;-1.044034767E1;4.383974969E-1
9.636471875E0;5.162396908E0;-1.099816799E1;6.652720571E-1
9.648382812E0;5.588478565E0;-1.123804760E1;7.467610836E-1
9.660301562E0;5.980955124E0;-1.116075325E1;3.809558153E-1
9.672210937E0;6.782974720E0;-1.168388653E1;3.210337162E-1
9.684118750E0;7.634113312E0;-1.287178421E1;6.351146698E-1
9.696031250E0;7.933829308E0;-1.516048717E1;1.026911378E0
9.707942187E0;6.947408199E0;-1.790337181E1;1.476829886E0
9.719859375E0;4.562735558E0;-1.945060921E1;1.500072718E0
9.731771875E0;1.894914865E0;-1.751199532E1;3.770101666E-1
9.743676562E0;7.272244096E-1;-1.427195072E1;-5.912050009E-1
9.755587500E0;-9.361328930E-2;-1.212269497E1;-1.425009608E0
9.767500000E0;-1.091928363E0;-1.153608704E1;-3.394336462E0
9.779410937E0;-2.195281744E0;-1.202074146E1;-1.221055317E1
9.791323437E0;-2.143241405E0;-1.269075298E1;-1.145433044E1
9.803234375E0;-1.278896332E0;-1.294212532E1;-3.211544037E0
9.815145312E0;-1.142608821E-1;-1.274622250E1;1.774706841E0
9.827057812E0;-6.707596034E-2;-1.247706604E1;2.882886887E0
9.838989062E0;1.026250646E-1;-1.203758717E1;2.453118086E0
9.850887500E0;1.366227269E0;-1.041696072E1;2.225937366E0
9.862792187E0;3.387546301E0;-8.226572990E0;2.493953705E0
9.874703125E0;5.149372578E0;-6.458225250E0;3.408701658E0
9.886615625E0;6.098290443E0;-5.600229263E0;5.445151806E0
9.898526562E0;6.246280670E0;-5.676230907E0;7.487904072E0
9.910439062E0;4.993854523E0;-6.577427864E0;6.801936626E0
9.922350000E0;3.350924730E0;-7.120231628E0;5.247266769E0
9.934260937E0;1.553233504E0;-7.161124706E0;3.679399729E0
9.946173437E0;-3.302178681E-1;-6.810517788E0;1.534577966E0
9.958084375E0;-2.082256317E0;-6.562200069E0;-1.493091226E0
9.969996875E0;-3.492373943E0;-6.657566547E0;-3.550591469E0
9.981907812E0;-4.284500599E0;-6.795807838E0;-3.782857895E0
9.993818750E0;-4.381810665E0;-6.538229465E0;-2.290570974E0
1.000573125E1;-4.481715679E0;-5.947561264E0;-1.718366444E-1
1.001766250E1;-3.779467583E0;-4.555954933E0;2.058927298E0
1.002955469E1;-3.091632605E0;-2.898573637E0;2.735040188E0
1.004146562E1;-2.523919344E0;-1.929669023E0;1.700639725E0
1.005337656E1;-1.011952400E0;-1.775156856E0;1.060344055E-1
1.006528906E1;7.433996797E-1;-3.299181223E0;-1.442707658E0
1.007720000E1;1.619141102E0;-5.539397240E0;-3.471544743E0
1.008911875E1;3.431934834E0;-8.174819946E0;-9.154469490E0
1.010103125E1;9.014121056E0;-1.111420059E1;-1.936707115E1
1.011293438E1;1.398137188E1;-1.444523430E1;-8.551590919E0
1.012484688E1;1.607515907E1;-1.784237671E1;-1.423209161E-1
1.013676562E1;1.426283360E1;-1.768145752E1;1.901771903E0
1.014867031E1;1.115063095E1;-1.232212257E1;-1.150184035E0
1.016058281E1;9.535607338E0;-7.394836903E0;-4.911561012E0
1.017249375E1;7.102217197E0;-4.996335030E0;-3.440247536E0
1.018440625E1;3.682808876E0;-7.742426872E0;1.284537077E0
1.019632344E1;1.470451713E0;-1.062587929E1;4.351222038E0
1.020823438E1;-5.029259920E-1;-1.188904953E1;5.345773220E0
1.022014062E1;-1.072899342E0;-1.416760254E1;3.634790659E0
1.023205156E1;-7.838137746E-1;-1.901980591E1;-1.276243567E0
1.024396406E1;-6.710277200E-1;-2.345837975E1;-5.713063240E0
1.025587500E1;-1.674619675E0;-1.830113411E1;-2.403299659E-1
1.026778594E1;-4.515742302E0;-1.071070099E1;1.253900886E0
1.027969844E1;-5.751427650E0;-7.025296211E0;5.252782702E-1
1.029160938E1;-4.368489265E0;-4.866262913E0;1.162902117E0
1.030352188E1;-9.152937531E-1;-4.411814690E0;2.206908226E0
1.031544844E1;9.886999726E-1;-5.054025650E0;1.923147321E0
1.032735000E1;1.216934443E0;-6.582886219E0;2.261926651E0
1.033925469E1;1.338904619E0;-8.424190521E0;2.862986326E0
1.035116719E1;2.730328321E0;-9.205553055E0;3.270307064E0
1.036307969E1;3.948852539E0;-9.402432442E0;4.796428680E0
1.037499062E1;4.411106110E0;-9.338210106E0;4.356230736E0
1.038690156E1;3.122776270E0;-9.295114517E0;2.270967245E0
1.039881406E1;1.824898839E0;-9.083380699E0;1.225850463E0
1.041072500E1;1.055019259E0;-8.580445290E0;3.688411117E-1
1.042263750E1;9.567804337E-1;-8.335700035E0;-3.304572999E-1
1.043455469E1;1.047903776E0;-8.688682556E0;-7.958709598E-1
1.044646094E1;9.522027373E-1;-9.363636971E0;-1.384346604E0
1.045837031E1;1.315048814E0;-9.613476753E0;-1.879687786E0
1.047028281E1;2.272135735E0;-9.553487778E0;-2.046726465E0
1.048219531E1;2.899742126E0;-9.072386742E0;-1.834236264E0
1.049410625E1;3.008860350E0;-8.408167839E0;-1.558050632E0
1.050601719E1;3.161811590E0;-7.950214863E0;-1.163304329E0
1.051792969E1;3.196278334E0;-7.906688690E0;-7.496628165E-1
1.052984062E1;3.232737303E0;-8.178191185E0;-3.372951448E-1
1.054175313E1;3.035512447E0;-9.024962425E0;5.326620117E-2
1.055366406E1;2.809107065E0;-9.721426010E0;-2.701617219E-2
1.056558594E1;2.877207994E0;-9.834355354E0;-4.379377961E-1
1.057748750E1;2.962068081E0;-9.600920677E0;-4.845097959E-1
1.058939844E1;3.060757160E0;-9.152152061E0;-3.552133441E-1
1.060131094E1;3.742051125E0;-8.926560402E0;3.801992396E-3
1.061322188E1;5.014397144E0;-8.455439568E0;4.014788866E-1
1.062514375E1;5.997370243E0;-7.847130299E0;9.449818134E-1
1.063704531E1;6.499491692E0;-7.757548809E0;1.269357920E0
1.064895625E1;6.935877800E0;-8.094556808E0;1.562867761E0
1.066086875E1;6.926597595E0;-8.396637917E0;1.296910286E0
1.067280000E1;7.245027065E0;-8.776281357E0;-4.476199299E-2
1.068469844E1;7.643556118E0;-9.609866142E0;-9.776387215E-1
1.069660313E1;7.506914139E0;-1.021272564E1;-1.671277285E0
1.070851562E1;7.373040199E0;-1.068173027E1;-2.545687675E0
1.072042656E1;7.666377544E0;-1.195825195E1;-2.323256731E0
1.073235781E1;6.917088032E0;-1.399424362E1;-1.870331168E0
1.074425000E1;4.731861591E0;-1.653693390E1;-8.544043899E-1
1.075616094E1;3.018236160E0;-1.941762733E1;-2.339996994E-1
1.076807344E1;1.490725756E0;-2.251327133E1;-8.259038627E-2
1.077998438E1;-1.362482667E0;-2.595167160E1;1.144313455E0
1.079189531E1;-4.602364063E0;-2.717761803E1;1.209167600E0
1.080380781E1;-6.797138691E0;-2.437439156E1;8.518186808E-1
1.081571875E1;-6.844256401E0;-1.918783188E1;5.747712255E-1
1.082763594E1;-5.163335323E0;-1.352014351E1;4.901409522E-2
1.083954219E1;-2.409878969E0;-8.765862465E0;-1.130072713E0
1.085145469E1;7.812567949E-1;-5.461135864E0;-2.690843344E0
1.086336562E1;3.088357449E0;-3.357906342E0;-4.434291363E0
1.087527656E1;2.838690042E0;-3.276292801E0;-2.630451918E0
1.088718750E1;2.566785336E0;-3.716729879E0;-1.933557354E-2
1.089910000E1;2.115200758E0;-4.393810272E0;2.260413885E0
1.091101719E1;1.249801993E0;-5.320174694E0;3.773175716E0
1.092292344E1;2.530383766E-1;-6.094325542E0;3.499154568E0
1.093483438E1;-7.325873971E-1;-6.250206947E0;2.228848696E0
1.094674688E1;-1.896044970E0;-6.213365078E0;1.032896996E0
1.095865781E1;-3.066531658E0;-5.888826370E0;2.024824172E-1
1.097057344E1;-3.596799612E0;-5.195925236E0;-5.783816576E-1
1.098248125E1;-4.003995895E0;-4.621422291E0;-7.307965755E-1
1.099439219E1;-3.992101669E0;-4.042293549E0;-7.220912259E-3
1.100630469E1;-3.621795177E0;-3.291290045E0;6.796276569E-1
1.101821562E1;-2.785031319E0;-2.747250795E0;1.217489839E0
1.103012656E1;-1.184287071E0;-2.838239908E0;9.690866470E-1
1.104204062E1;9.843425155E-1;-3.702843428E0;-2.205347121E-1
1.105395000E1;2.790901899E0;-4.806560993E0;-1.572923422E0
1.106586250E1;4.348578930E0;-6.259334087E0;-3.436129570E0
1.107777500E1;5.461595058E0;-8.945522308E0;-9.149250031E0
1.108969219E1;8.949468613E0;-1.218917751E1;-1.589133167E1
1.110159688E1;1.465909386E1;-1.458336067E1;-8.186512947E0
1.111350938E1;1.772565460E1;-1.635057831E1;-3.646464944E-1
1.112542031E1;1.735009003E1;-1.568326664E1;2.156601101E-1
1.113733125E1;1.376060772E1;-1.234246349E1;-2.091641665E0
1.114925625E1;1.125418472E1;-7.847666740E0;-4.707316399E0
1.116115938E1;9.133774757E0;-5.022843838E0;-4.854971886E0
1.117306719E1;6.970555782E0;-5.272884369E0;-2.625653982E0
1.118497812E1;4.643161774E0;-9.191321373E0;8.128027320E-1
1.119689062E1;2.580135584E0;-1.240997028E1;2.577137947E0
1.120880156E1;1.006905437E0;-1.298708916E1;3.834735394E0
1.122071406E1;-6.962913275E-1;-1.448948860E1;3.995769262E0
1.123262500E1;-8.479783535E-1;-1.807489967E1;2.666901350E0
1.124453594E1;-2.206840992E0;-2.318216324E1;-4.240973949E0
1.125644844E1;-5.598141670E0;-2.176659775E1;-7.931616783E0
1.126835938E1;-7.438985825E0;-1.377408218E1;1.984678388E0
1.128027031E1;-8.235010147E0;-8.288286209E0;3.609575272E0
1.129218281E1;-6.222290993E0;-5.261152744E0;3.352878332E0
1.130409375E1;-2.783326387E0;-4.220010281E0;3.984392166E0
1.131600469E1;-4.867029190E-1;-4.440420628E0;3.663406134E0
1.132791719E1;5.851428956E-3;-6.032181740E0;3.900767565E0
1.133983125E1;6.360340714E-1;-8.411491394E0;3.810314417E0
1.135174063E1;1.817476749E0;-1.014377213E1;4.728577137E0
1.136365156E1;2.651444435E0;-1.099890518E1;5.128561974E0
1.137556406E1;2.643667936E0;-1.105895233E1;4.588248253E0
1.138747969E1;2.663310051E0;-1.062279510E1;4.847176075E0
1.139939375E1;2.541502714E0;-9.956593513E0;7.549099922E0
1.141129844E1;3.473593950E0;-9.438278198E0;3.399153471E0
1.142320938E1;4.423766613E0;-8.769787788E0;-7.553419471E-1
1.143512188E1;4.330421448E0;-8.397920609E0;-3.286214113E0
1.144703281E1;4.249487877E0;-8.337635040E0;-4.108181953E0
1.145894531E1;4.621747971E0;-8.477619171E0;-4.764288902E0
1.147085625E1;4.954177856E0;-8.367783546E0;-5.680597782E0
1.148276719E1;4.789121628E0;-8.087823868E0;-6.132843494E0
1.149467969E1;4.366315365E0;-7.713523865E0;-4.269618034E0
1.150659063E1;3.262004137E0;-7.376190662E0;-1.601893306E0
1.151850312E1;2.121416092E0;-6.668311596E0;1.638208628E-1
1.153041406E1;1.316619396E0;-5.895903587E0;9.055923820E-1
1.154232500E1;7.643823624E-1;-5.217185497E0;1.166838169E0
1.155423750E1;4.202589989E-1;-4.839055061E0;1.136431813E0
1.156615000E1;3.159101307E-1;-4.951189995E0;1.074230433E0
1.157806094E1;6.589992046E-1;-5.891019344E0;1.221378088E0
1.158997188E1;1.073483348E0;-7.602366447E0;1.574158907E0
1.160188438E1;1.410395503E0;-9.067579269E0;1.846695662E0
1.161379531E1;1.582031012E0;-9.943139076E0;1.892242908E0
1.162570625E1;1.669859886E0;-1.051582241E1;1.882072330E0
1.163762656E1;1.720224380E0;-1.084761047E1;1.777560711E0
1.164952969E1;2.474062681E0;-1.063511086E1;1.230485559E0
1.166144219E1;3.974987745E0;-9.972050667E0;4.224616587E-1
1.167335469E1;5.224531174E0;-9.764196396E0;1.683794111E-1
1.168527031E1;5.627944946E0;-1.004544830E1;6.756724119E-1
1.169717656E1;5.469362259E0;-1.017552090E1;1.517224789E0
1.170908906E1;5.977641582E0;-9.745645523E0;-5.400457382E-1
1.172100000E1;7.203080177E0;-9.266393661E0;-2.169405222E0
1.173291094E1;9.578195572E0;-8.820823669E0;-2.493541956E0
1.174482188E1;1.119234657E1;-8.604463577E0;-3.064856052E0
1.175673438E1;1.024268246E1;-9.317409515E0;-3.008027077E0
1.176864688E1;9.607959747E0;-1.069586658E1;-1.315786242E0
1.178055781E1;9.957781792E0;-1.284414577E1;7.321373224E-1
1.179246875E1;9.472247124E0;-1.541189766E1;1.546060562E0
1.180438438E1;7.737772465E0;-1.857216835E1;1.390743852E0
1.181629219E1;4.666270733E0;-2.420082092E1;1.679235578E0
1.182820312E1;1.009883881E0;-3.012788582E1;4.135868549E0
1.184011563E1;-3.321897507E0;-3.400193405E1;5.770668030E0
1.185202812E1;-6.798843384E0;-3.219350815E1;4.202053547E0
1.186394063E1;-8.167934418E0;-2.462949753E1;9.594523907E-1
1.187585000E1;-6.499596596E0;-1.636494255E1;-1.400962234E0
1.188776250E1;-4.021531105E0;-1.057554340E1;-4.266562939E0
1.189967344E1;-1.602199793E0;-6.140408993E0;-6.271841526E0
1.191158438E1;1.616564989E-1;-3.920878649E0;-5.117960453E0
1.192350312E1;3.448224962E-1;-3.557314396E0;-2.476093054E0
1.193540781E1;-2.308680862E-1;-3.922976017E0;-1.621161848E-1
1.194731875E1;2.544844747E-1;-3.850718975E0;1.135569811E0
1.195923125E1;7.617200613E-1;-3.872669220E0;2.318133116E0
1.197114219E1;1.193222284E0;-4.111801624E0;3.415271282E0
1.198305469E1;7.283449173E-1;-4.638937950E0;4.609374523E0
1.199497188E1;-1.132495761E0;-5.326303482E0;4.534761906E0
1.200687656E1;-2.302551746E0;-5.271533966E0;3.791275978E0
1.201878906E1;-2.856416702E0;-4.617409706E0;2.845920324E0
1.203070156E1;-3.327700853E0;-3.656664371E0;2.391261816E0
1.204261406E1;-3.819115639E0;-2.666211605E0;1.715617895E0
1.205452656E1;-3.698754311E0;-1.830731034E0;1.269999504E0
1.206643594E1;-3.259657621E0;-1.304897308E0;1.503568292E0
1.207834688E1;-2.511641979E0;-1.145213723E0;1.763846636E0
1.209025938E1;-1.132811785E0;-2.061474562E0;1.382258773E0
1.210217344E1;4.469495714E-1;-3.691504717E0;-4.111514688E-1
1.211408438E1;1.869315982E0;-5.817258835E0;-3.910296440E0
1.212599375E1;3.412168503E0;-8.757912636E0;-1.036018944E1
1.213790469E1;7.030142784E0;-1.164800167E1;-1.679984665E1
1.214981719E1;1.320836067E1;-1.423616314E1;-1.160067368E1
1.216172813E1;1.844224739E1;-1.709807587E1;-4.470194817E0
1.217364062E1;1.974297142E1;-1.739945984E1;-6.786603928E-1
1.218555156E1;1.332955456E1;-1.526893520E1;-5.507525802E-1
1.219746406E1;9.569719315E0;-1.072404099E1;-4.637770176E0
1.220937500E1;8.041998863E0;-7.157274246E0;-5.194642067E0
1.222128594E1;6.461328030E0;-1.037022686E1;-1.137801290E0
1.223320469E1;5.162932873E0;-1.416585922E1;1.400043011E0
1.224510938E1;3.960325718E0;-1.614277077E1;3.558540344E0
1.225702031E1;1.225726008E0;-1.717095566E1;3.535489082E0
1.226894062E1;-2.666652441E0;-1.623110771E1;-2.154130459E0
1.228085000E1;-6.467074394E0;-1.148159599E1;-7.274944782E0
1.229275625E1;-7.565639019E0;-8.406530380E0;-2.758331060E0
1.230466719E1;-6.323153973E0;-9.673849106E0;2.756788969E0
1.231657813E1;-3.668501139E0;-1.210657787E1;6.096528530E0
1.232849062E1;-2.169357538E0;-1.330914783E1;5.536821365E0
1.234040938E1;-1.714660287E0;-1.245934868E1;4.396271706E0
1.235231875E1;-1.667092204E0;-1.047373199E1;2.935664892E0
1.236422500E1;-1.083615780E0;-9.123344421E0;2.409840584E0
1.237613750E1;-3.551079929E-1;-8.896059036E0;2.857575417E0
1.238804844E1;2.177670151E-1;-9.078458786E0;2.833786726E0
1.239995938E1;9.197852612E-1;-9.068038940E0;3.114348888E0
1.241187188E1;2.237132549E0;-8.661532402E0;4.034191608E0
1.242378281E1;2.818243742E0;-8.351770401E0;4.236271858E0
1.243569531E1;3.303969622E0;-8.307257652E0;2.642135859E0
1.244760625E1;3.133828163E0;-8.500172615E0;1.008658051E0
1.245952031E1;2.677186728E0;-8.425521851E0;-4.719067514E-1
1.247142969E1;2.887464523E0;-7.816302299E0;-1.544671893E0
1.248334062E1;3.699022532E0;-7.392710686E0;-2.366591692E0
1.249525313E1;4.150118828E0;-7.292201996E0;-2.597862005E0
1.250716406E1;4.153125763E0;-7.606599331E0;-2.447065592E0
1.251908125E1;3.797558308E0;-7.890924931E0;-1.536253929E0
1.253099844E1;3.319005013E0;-8.136780739E0;-4.840117991E-1
1.254289844E1;3.200156927E0;-8.098549843E0;8.266700059E-2
1.255480938E1;3.204409122E0;-7.895205498E0;2.178148925E-1
1.256672188E1;3.234212160E0;-7.480836391E0;1.016386524E-1
1.257864219E1;2.901015759E0;-6.962960720E0;-1.222287863E-1
1.259055156E1;2.284212112E0;-6.805135250E0;-7.010797262E-1
1.260245625E1;1.729245782E0;-7.272100449E0;-1.525547028E0
1.261436875E1;1.614716649E0;-8.140285492E0;-2.129431725E0
1.262627969E1;1.421504617E0;-9.006019592E0;-1.876182675E0
1.263819219E1;1.426695228E0;-9.553056717E0;-1.144342184E0
1.265010313E1;1.232918143E0;-9.688855171E0;-4.232948646E-3
1.266201562E1;1.006953359E0;-9.600002289E0;8.654081225E-1
1.267392656E1;1.513824940E0;-1.003898335E1;1.175466776E0
1.268583906E1;2.835242510E0;-1.023050022E1;9.115683436E-1
1.269775000E1;4.476879597E0;-9.721417427E0;4.723089635E-1
1.270966719E1;5.507478237E0;-8.975440025E0;5.620819926E-1
1.272157344E1;5.793565750E0;-8.572209358E0;8.762778044E-1
1.273348438E1;5.711291313E0;-8.595519066E0;9.363723397E-1
1.274539688E1;5.699550152E0;-8.756994247E0;-2.849387228E-1
1.275730781E1;6.448054314E0;-9.570821762E0;-1.725721478E0
1.276921875E1;7.772181988E0;-1.100063896E1;-2.021367073E0
1.278113125E1;9.114830971E0;-1.195330048E1;-2.257444859E0
1.279304219E1;9.962291718E0;-1.320240402E1;-2.041373014E0
1.280495469E1;9.304270744E0;-1.459625053E1;-8.658678532E-1
1.281687969E1;6.332491398E0;-1.574428940E1;3.754587173E-1
1.282878281E1;4.042178631E0;-1.669480705E1;9.697762132E-1
1.284068906E1;2.861635923E0;-1.765239334E1;9.751008749E-1
1.285260000E1;1.060583472E0;-1.929037094E1;8.250898123E-1
1.286451250E1;-6.939737797E-1;-2.142649651E1;1.115515947E0
1.287642344E1;-2.624887943E0;-2.357156563E1;2.531015873E0
1.288833594E1;-4.770676613E0;-2.385373878E1;3.260127068E0
1.290024688E1;-6.258089066E0;-2.155967140E1;3.277547121E0
1.291215781E1;-5.971301556E0;-1.682302094E1;2.102080345E0
1.292407031E1;-4.248894215E0;-1.169888401E1;1.341902167E-1
1.293598125E1;-2.276751757E0;-7.872766972E0;-1.829045653E0
1.294790313E1;-6.284492016E-1;-5.359017849E0;-3.166839361E0
1.295980469E1;3.672418296E-1;-4.524715900E0;-3.421505928E0
1.297171563E1;1.715397686E-1;-4.634657383E0;-2.480881453E0
1.298362813E1;-1.561594158E-1;-4.702240944E0;-1.725424528E0
1.299554375E1;6.533297896E-1;-4.248682976E0;-1.715579629E0
1.300745156E1;1.539222598E0;-3.779706955E0;-4.122432172E-1
1.301936250E1;1.632098556E0;-3.884601831E0;1.812927842E0
1.303127344E1;9.039739370E-1;-4.662075520E0;2.916674137E0
1.304318594E1;-2.766356468E-1;-5.632790565E0;2.126041412E0
1.305509688E1;-1.349735975E0;-6.253683567E0;2.188980341E0
1.306700938E1;-1.793563485E0;-6.050837517E0;2.453989744E0
1.307892031E1;-1.939236283E0;-5.515551090E0;2.366304398E0
1.309083281E1;-2.121569157E0;-4.960364819E0;1.913082004E0
1.310274375E1;-2.419063091E0;-4.425624371E0;1.792682528E0
1.311466094E1;-2.696435928E0;-3.925437212E0;1.720760584E0
1.312656719E1;-2.856943369E0;-3.429416180E0;1.593915939E0
1.313847812E1;-2.663022757E0;-3.491454840E0;1.391146064E0
1.315039844E1;-1.613749385E0;-4.317731857E0;4.089871347E-1
1.316230156E1;4.850652814E-1;-5.483736992E0;-1.416783214E0
1.317422031E1;2.168524265E0;-7.190247536E0;-4.815879345E0
1.318613750E1;4.800949097E0;-9.426192284E0;-1.335148621E1
1.319803594E1;1.146924114E1;-1.080802059E1;-1.965669250E1
1.320994844E1;1.888850784E1;-1.251021194E1;-1.002156353E1
1.322185938E1;2.153894806E1;-1.449894047E1;-1.769745946E0
1.323377188E1;1.501218033E1;-1.447644424E1;2.921596467E-1
1.324568438E1;8.488785744E0;-1.149032021E1;-3.545046568E0
1.325759375E1;6.017442703E0;-6.948595524E0;-8.109381676E0
1.326950469E1;5.723875523E0;-4.722093582E0;-6.218555450E0
1.328141719E1;4.000797272E0;-8.821646690E0;3.043710232E0
1.329334844E1;1.749376059E0;-1.448305321E1;5.526736736E0
1.330525156E1;1.090463161E0;-2.034888458E1;4.447813988E0
1.331715156E1;1.282449365E0;-2.600151062E1;3.020084143E0
1.332906406E1;7.498735189E-1;-2.614405060E1;-2.469283938E-1
1.334097500E1;-3.278801680E0;-1.504176331E1;-4.658598900E0
1.335291094E1;-7.253253460E0;-8.167426109E0;-8.069494247E0
1.336479844E1;-7.295917988E0;-5.120239735E0;-3.491224766E0
1.337670938E1;-4.916617870E0;-5.367599010E0;4.118984222E0
1.338862188E1;-1.807411671E0;-6.640366077E0;5.539215565E0
1.340053281E1;-3.856579959E-2;-8.287155151E0;5.567227364E0
1.341245000E1;8.378748298E-1;-1.066796875E1;4.650143147E0
1.342435469E1;1.647488475E0;-1.259001446E1;3.991775990E0
1.343626719E1;3.030934811E0;-1.355640984E1;4.098097801E0
1.344820000E1;4.655774593E0;-1.338903713E1;5.078274250E0
1.346009063E1;5.386791229E0;-1.216066837E1;4.326887608E0
1.347200312E1;4.168889046E0;-1.062000847E1;1.619064569E0
1.348391406E1;2.802030087E0;-8.761112213E0;-8.460821509E-1
1.349582500E1;1.979142904E0;-7.229416370E0;-2.035617352E0
1.350773750E1;1.592182517E0;-6.411011219E0;-2.013284206E0
1.351964844E1;1.026260257E0;-6.519698620E0;-1.596396208E0
1.353157813E1;4.546014369E-1;-7.075564861E0;-1.071721315E0
1.354347812E1;2.242409289E-1;-7.828628063E0;-2.118964195E-1
1.355538281E1;2.581907064E-2;-8.529467583E0;5.707010627E-1
1.356729531E1;2.873808146E-1;-8.631614685E0;6.875764132E-1
1.357920781E1;1.116904616E0;-7.986213684E0;2.435381860E-1
1.359111875E1;1.770646214E0;-7.098339081E0;-6.630406380E-1
1.360303125E1;2.120525360E0;-6.149334431E0;-1.052270770E0
1.361494219E1;2.525461435E0;-5.303884983E0;-1.081403494E0
1.362685312E1;2.921711445E0;-5.099821568E0;-7.786901593E-1
1.363876563E1;3.020706892E0;-5.810899734E0;-2.488437444E-1
1.365067812E1;3.011570454E0;-7.233659267E0;2.012087107E-1
1.366258906E1;2.660666704E0;-8.389866829E0;2.052692771E-1
1.367449844E1;2.305280924E0;-9.047669411E0;3.707948029E-1
1.368641094E1;1.986584067E0;-9.476575851E0;2.891429365E-1
1.369832344E1;1.897950649E0;-9.988216400E0;-1.526734531E-1
1.371023438E1;2.212893486E0;-1.061667538E1;-5.507525802E-1
1.372214688E1;3.158928871E0;-1.103039360E1;-3.087562621E-1
1.373405781E1;4.242218971E0;-1.042204571E1;-1.221617535E-1
1.374596875E1;5.493763924E0;-9.085832596E0;-5.092850327E-1
1.375787969E1;6.470176697E0;-8.410351753E0;-3.017747402E-1
1.376979219E1;7.329838753E0;-8.718590736E0;-1.490246952E-1
1.378170469E1;7.850769520E0;-9.552701950E0;-5.231905580E-1
1.379361563E1;8.006449699E0;-9.591249466E0;-1.577079892E0
1.380552656E1;8.649207115E0;-9.373031616E0;-2.190426588E0
1.381743906E1;1.082808399E1;-9.494130135E0;-2.011129379E0
1.382935000E1;1.134350777E1;-9.039002419E0;-1.446116924E0
1.384126094E1;9.968852997E0;-9.500862122E0;-3.754012585E-1
1.385317344E1;9.445767403E0;-1.147064972E1;3.744148314E-1
1.386508594E1;9.135746956E0;-1.386215019E1;-4.209006578E-2
1.387699688E1;8.020757675E0;-1.716854286E1;-4.890204668E-1
1.388890781E1;5.826529503E0;-2.234888649E1;-1.086680293E0
1.390083125E1;2.180974007E0;-2.907310677E1;-1.002011776E0
1.391273125E1;-1.968302011E0;-3.473762512E1;8.584458232E-1
1.392464375E1;-5.371324539E0;-3.499982834E1;1.146008492E0
1.393655469E1;-5.978953838E0;-2.698445320E1;5.924787521E-1
1.394847188E1;-5.123725414E0;-1.785712433E1;-8.512727618E-1
1.396037812E1;-2.489835739E0;-1.064130783E1;-2.584387541E0
1.397228906E1;-2.080274075E-1;-6.527925014E0;-2.182918310E0
1.398420000E1;1.447227955E0;-4.423603535E0;-6.474112868E-1
1.399611250E1;2.034391403E0;-3.959023237E0;5.244067907E-1
1.400803750E1;2.305520535E0;-4.150003910E0;3.073532581E0
1.401994531E1;2.210192919E0;-4.518567562E0;5.362245560E0
1.403184688E1;1.276004195E0;-5.131999969E0;4.758044720E0
1.404375781E1;-1.332057238E0;-5.876836300E0;4.122595310E0
1.405567031E1;-2.818243742E0;-5.845855236E0;1.921318173E0
1.406758125E1;-3.959607363E0;-5.133197308E0;1.051820666E-1
1.407949375E1;-4.589713573E0;-4.284711361E0;-2.204964012E-1
1.409140469E1;-5.111831665E0;-3.441913843E0;5.314361453E-1
1.410331719E1;-5.389730930E0;-2.364552021E0;1.527519941E0
1.411522813E1;-4.712373257E0;-9.225050807E-1;1.767629504E0
1.412714688E1;-3.253796577E0;1.925321221E-1;1.577826738E0
1.413905781E1;-1.891936541E0;2.402150482E-1;1.596156836E0
1.415096406E1;-4.086902142E-1;-1.317778230E0;-5.906686783E-1
1.416287500E1;7.139892578E-1;-3.579350471E0;-4.760448933E0
1.417478594E1;1.740536690E0;-6.267971992E0;-1.006007099E1
1.418670313E1;4.593975067E0;-9.451082230E0;-1.519643879E1
1.419860938E1;1.174377918E1;-1.257277679E1;-1.129612064E1
1.421052188E1;1.626413727E1;-1.758226967E1;-5.838069439E0
1.422243281E1;1.974736595E1;-2.227718544E1;-3.143012285E0
1.423434531E1;1.614238739E1;-2.093240929E1;-2.035004377E0
1.424626250E1;1.112776089E1;-1.331995869E1;-5.768991470E0
1.425816719E1;9.056182861E0;-6.577839375E0;-4.529619217E0
1.427007969E1;5.791516781E0;-7.315196037E0;-1.264262915E0
1.428199062E1;2.942358971E0;-1.121367455E1;5.780560374E-1
1.429390156E1;3.203939915E0;-1.203337288E1;2.475461006E0
1.430581719E1;1.979947329E0;-1.489610100E1;4.753572941E0
1.431773438E1;-2.694434524E-1;-1.925327873E1;7.367724776E-1
1.432963750E1;-2.264761448E0;-1.995453072E1;-3.948249340E0
1.434154844E1;-5.878818989E0;-1.407015800E1;-2.017220259E0
1.435345938E1;-8.063441277E0;-9.337980270E0;1.089285135E0
1.436537188E1;-8.602280617E0;-7.561491966E0;2.319253683E0
1.437728906E1;-5.844772816E0;-7.862309456E0;4.839399815E0
1.438919531E1;-2.616575241E0;-9.546055794E0;4.988328457E0
1.440110625E1;-1.072927952E0;-1.162695217E1;3.918944359E0
1.441301875E1;-1.038077950E0;-1.293588161E1;2.976969481E0
1.442492969E1;-1.078635693E0;-1.256061459E1;3.285725832E0
1.443685156E1;4.385603070E-1;-1.075392056E1;4.993548393E0
1.444875156E1;1.628555179E0;-9.517823219E0;4.659528255E0
1.446066406E1;2.591752052E0;-8.525675774E0;4.120536327E0
1.447257656E1;4.253538609E0;-7.780590534E0;3.108689070E0
1.448450156E1;5.726298332E0;-7.147754669E0;6.956496835E-1
1.449642500E1;4.969385624E0;-6.857826710E0;-7.374715805E-1
1.450831094E1;3.898402214E0;-6.775485516E0;-1.337860703E0
1.452022188E1;4.304094791E0;-6.746955872E0;-1.524962902E0
1.453213281E1;4.184432507E0;-7.082652092E0;-1.009328365E0
1.454404531E1;3.076223612E0;-8.305907249E0;-5.369428396E-1
1.455595781E1;1.828835011E0;-9.238333702E0;-4.525615871E-1
1.456786875E1;1.627492070E0;-9.142039299E0;-1.482920647E0
1.457977969E1;2.402073622E0;-8.520896912E0;-2.468307018E0
1.459169219E1;3.195598364E0;-8.125240326E0;-2.863292933E0
1.460360781E1;3.306315899E0;-8.084692001E0;-2.850440741E0
1.461551875E1;3.163037300E0;-8.376086235E0;-2.701808929E0
1.462742656E1;3.431609392E0;-8.620917320E0;-1.580335975E0
1.463934062E1;3.583238840E0;-8.641507149E0;1.592814475E-1
1.465125000E1;3.736611366E0;-9.010625839E0;1.547353387E0
1.466318906E1;3.419006109E0;-9.660249710E0;1.923329234E0
1.467507344E1;2.966080904E0;-1.004808140E1;1.176300049E0
1.468698438E1;2.922659397E0;-1.053796387E1;2.666374445E-1
1.469889688E1;3.733029842E0;-1.097194672E1;2.401863039E-2
1.471080781E1;4.981720924E0;-1.080123997E1;4.990857244E-1
1.472272656E1;5.720743656E0;-9.989768982E0;1.202703238E0
1.473463750E1;5.995253563E0;-9.528903008E0;1.728690147E0
1.474654219E1;6.082526684E0;-1.004784203E1;2.295369148E0
1.475845312E1;6.068975449E0;-1.069169998E1;2.237419605E0
1.477036562E1;6.315310478E0;-1.136964226E1;-2.400714010E-1
1.478227656E1;7.064245224E0;-1.156795883E1;-2.287410736E0
1.479418750E1;7.082824230E0;-1.112920666E1;-2.927543640E0
1.480610000E1;6.536755085E0;-1.038649750E1;-2.707813501E0
1.481801094E1;6.006956100E0;-1.075430393E1;-2.262367487E0
1.482992344E1;5.159466267E0;-1.177328587E1;-1.747326612E0
1.484184844E1;4.145780087E0;-1.309075737E1;-1.991688490E0
1.485375469E1;2.864269733E0;-1.491968822E1;-1.805630207E0
1.486565781E1;1.265594125E0;-1.723818588E1;-1.457398415E0
1.487757031E1;-9.492052197E-1;-1.978154564E1;-2.440304518E0
1.488948125E1;-3.069462299E0;-2.235584068E1;-3.610858440E0
1.490141094E1;-4.599951267E0;-2.314134789E1;-2.701473713E0
1.491330938E1;-5.323172569E0;-2.147228241E1;-5.089594126E-1
1.492521563E1;-5.262474537E0;-1.704765511E1;2.971874774E-1
1.493712813E1;-4.095090389E0;-1.221216202E1;-8.216899633E-2
1.494903906E1;-2.379309893E0;-8.357038498E0;-4.959923923E-1
1.496096719E1;-2.907518744E-1;-5.377789021E0;-5.133360028E-1
1.497286719E1;1.284144402E0;-3.555331945E0;6.515101343E-2
1.498477344E1;2.460339069E0;-2.725913525E0;1.074105978E0
1.499668594E1;3.245579720E0;-2.315595150E0;2.575845003E0
1.500859688E1;3.746992588E0;-2.284192801E0;4.416718006E0
1.502050781E1;2.865035772E0;-3.048537016E0;5.766492367E0
1.503242031E1;7.655699253E-1;-4.494366646E0;5.378516674E0
1.504433125E1;-5.663627982E-1;-5.516623974E0;3.129719734E0
1.505624375E1;-1.759680748E0;-6.217588425E0;3.295379281E-1
1.506815625E1;-2.655744314E0;-6.340889931E0;-1.552831292E0
1.508007031E1;-3.735059977E0;-6.383889675E0;-2.136518478E0
1.509197812E1;-4.663119793E0;-6.377684116E0;-1.170103908E0
1.510389063E1;-4.845471859E0;-5.934248924E0;3.559795022E-1
1.511580156E1;-4.432165623E0;-5.148146629E0;1.403193712E0
1.512771406E1;-3.593304157E0;-4.598485947E0;1.250654340E0
1.513962500E1;-2.105097055E0;-4.948709488E0;5.138339996E-1
1.515154062E1;-4.276043922E-2;-6.063086033E0;-1.037091494E0
1.516344844E1;2.366936445E0;-7.648315430E0;-3.551434278E0
1.517535938E1;5.492901802E0;-1.018692589E1;-8.080698967E0
1.518727188E1;1.367748070E1;-1.258852196E1;-1.911371613E1
1.519918281E1;2.291406250E1;-1.566714859E1;-1.761631584E1
1.521110000E1;2.605800247E1;-1.787995529E1;-5.776758671E0
1.522300625E1;1.794360352E1;-1.697062874E1;1.316370368E0
1.523491719E1;1.063246822E1;-1.191268539E1;-2.402724981E0
1.524682969E1;7.323249817E0;-7.956774712E0;-4.625549793E0
1.525874063E1;4.607354164E0;-8.911765099E0;-1.325343847E0
1.527065156E1;2.014692068E0;-1.040019226E1;3.561614454E-1
1.528256406E1;7.001603246E-1;-1.191497421E1;3.535728216E0
1.529447500E1;2.081710547E-1;-1.419630337E1;5.007530212E0
1.530638750E1;-5.830264091E-1;-1.746709061E1;2.433475971E0
1.531829844E1;-3.316103458E0;-1.934243011E1;-5.753085136E0
1.533020938E1;-6.559978485E0;-1.476395988E1;-2.834897757E0
1.534212188E1;-7.180737972E0;-1.062236404E1;1.979564309E0
1.535403281E1;-6.315367699E0;-7.948902607E0;2.870485067E0
1.536594531E1;-4.805181980E0;-6.828703403E0;3.737080812E0
1.537786250E1;-2.083319426E0;-6.742397308E0;3.696072817E0
1.538976719E1;-7.569795251E-1;-7.704158306E0;3.653044224E0
1.540167969E1;-1.392132521E0;-8.911429405E0;4.105701447E0
1.541359063E1;-1.562187910E0;-9.588414192E0;4.720657349E0
1.542550312E1;-8.067215085E-1;-9.447415352E0;4.213757038E0
1.543741563E1;9.463704824E-1;-9.102390289E0;3.664134264E0
1.544932500E1;2.038461685E0;-8.961917877E0;3.963514566E0
1.546123750E1;2.576457977E0;-8.887620926E0;4.101238728E0
1.547314844E1;2.832321644E0;-9.033791542E0;6.130947113E0
1.548506094E1;3.940357924E0;-8.784613609E0;1.891582131E0
1.549697188E1;4.487136364E0;-8.152467728E0;-1.982743740E0
1.550888281E1;5.023332119E0;-7.538306713E0;-3.971702814E0
1.552079531E1;5.243924141E0;-7.710823059E0;-4.104877949E0
1.553270625E1;4.622255325E0;-8.450096130E0;-3.086719751E0
1.554461875E1;3.736429453E0;-9.150007248E0;-1.341796875E0
1.555653750E1;3.400398493E0;-9.206605911E0;-6.814568639E-1
1.556845469E1;3.495141745E0;-8.914255142E0;-1.073971748E0
1.558035312E1;3.890893698E0;-8.663821220E0;-1.416907668E0
1.559226563E1;3.581246853E0;-8.586478233E0;-1.991429925E0
1.560417656E1;3.140742540E0;-8.367026329E0;-1.357732654E0
1.561608750E1;2.910975933E0;-8.026685715E0;-3.152684867E-2
1.562800000E1;2.661624432E0;-8.460744858E0;9.260293841E-1
1.563991094E1;2.507686853E0;-9.078698158E0;1.017363310E0
1.565182344E1;2.100078821E0;-9.580532074E0;9.918507338E-1
1.566373438E1;2.100002289E0;-9.863594055E0;1.237524509E0
1.567565000E1;2.436109781E0;-1.024740314E1;1.459993720E0
1.568756563E1;2.824362993E0;-1.043603802E1;1.507485151E0
1.569947031E1;3.050337315E0;-1.026106071E1;1.401412487E0
1.571138125E1;3.097694874E0;-1.004741096E1;1.356851578E0
1.572329219E1;3.467493534E0;-1.049347019E1;1.207606554E0
1.573520469E1;4.107530594E0;-1.129036522E1;1.129354477E0
1.574711563E1;4.319340706E0;-1.211569500E1;1.547114015E0
1.575902656E1;3.782637358E0;-1.214132214E1;1.451757669E0
1.577093906E1;4.584388733E0;-1.165729141E1;-1.018914819E0
1.578285000E1;4.894150257E0;-1.140118885E1;-2.261869431E0
1.579476250E1;4.316439152E0;-1.005285072E1;-2.243932247E0
1.580669063E1;4.007060528E0;-8.317485809E0;-2.457964182E0
1.581858594E1;4.668185711E0;-7.612460136E0;-2.662237406E0
1.583049688E1;5.124520302E0;-8.259938240E0;-2.762659550E0
1.584240781E1;5.040072441E0;-1.032486057E1;-2.713473320E0
1.585432031E1;4.604212761E0;-1.276956081E1;-1.560215116E0
1.586623125E1;2.686677456E0;-1.577457142E1;-1.495763183E0
1.587814375E1;8.853853941E-1;-1.821986580E1;-2.147426605E0
1.589005469E1;-6.821271777E-1;-2.005862045E1;-1.472788334E0
1.590196562E1;-2.444231033E0;-2.109222603E1;-5.215815902E-1
1.591387813E1;-3.772246838E0;-2.076703644E1;1.567435861E-1
1.592579688E1;-4.768809319E0;-1.782169151E1;5.784391426E-3
1.593770000E1;-4.240964413E0;-1.318411255E1;-7.112311125E-1
1.594961250E1;-2.249074697E0;-9.214947701E0;-1.195645094E0
1.596152344E1;-9.006028622E-2;-6.442222118E0;-1.371494532E0
1.597343594E1;1.695066094E0;-4.622398853E0;-9.620285630E-1
1.598534688E1;2.799041986E0;-3.761808157E0;8.310753107E-2
1.599725938E1;2.659278154E0;-4.163363934E0;1.634770513E0
1.600917031E1;1.788593173E0;-5.129797459E0;2.831641674E0
1.602108125E1;-6.933608092E-3;-6.336791039E0;4.685232639E0
1.603299375E1;-8.882296681E-1;-6.871569157E0;3.163822412E0
1.604490781E1;-8.301846385E-1;-6.423595428E0;2.889131308E-1
1.605681719E1;-9.139816761E-1;-5.782044888E0;-1.929592490E0
1.606872812E1;-1.468928933E0;-5.529418468E0;-2.710973740E0
1.608064062E1;-2.199342489E0;-5.405542374E0;-2.039409876E0
1.609257344E1;-2.619515181E0;-5.270701408E0;-4.903612435E-1
1.610446250E1;-2.723069429E0;-4.869059086E0;1.083060145E0
1.611637500E1;-2.036488771E0;-4.270174026E0;1.736418724E0
1.612828594E1;-1.275314569E0;-4.076482773E0;8.044326305E-1
1.614019844E1;-1.967842281E-1;-4.189412594E0;5.273468494E-1
1.615211562E1;1.478208899E0;-4.923685551E0;-7.376056910E-2
1.616402812E1;3.544893265E0;-6.778435230E0;-2.291298866E0
1.617593281E1;6.308482170E0;-9.910826683E0;-5.962701797E0
1.618784531E1;1.239333630E1;-1.281057835E1;-1.595585060E1
1.619975625E1;2.049610901E1;-1.589141750E1;-1.606466293E1
1.621166719E1;2.351594543E1;-1.798528099E1;-4.472110271E0
1.622357969E1;1.812615585E1;-1.559844398E1;-6.375951171E-1
1.623549062E1;1.156169510E1;-1.068083096E1;-3.554929972E0
1.624740156E1;6.804579735E0;-7.288103104E0;-5.457706928E0
1.625931406E1;3.678853750E0;-8.529544830E0;-1.410050750E0
1.627122500E1;2.304285049E0;-1.081560516E1;6.370587945E-1
1.628314375E1;2.263870955E0;-1.272989368E1;5.081281185E0
1.629504844E1;1.596233368E0;-1.506068707E1;6.365349293E0
1.630695938E1;1.059482098E-1;-1.750242805E1;2.233493328E0
1.631887188E1;-3.971405983E0;-1.805723190E1;-8.027519226E0
1.633078906E1;-6.496858120E0;-1.373657894E1;-3.552526236E0
1.634269531E1;-7.086846828E0;-9.868956566E0;2.560483932E0
1.635460625E1;-6.083110809E0;-7.978542805E0;4.040866852E0
1.636651719E1;-4.321850300E0;-6.982401848E0;4.454517365E0
1.637842969E1;-1.904491663E0;-7.381495953E0;3.291883707E0
1.639035781E1;-1.167757511E0;-8.655163765E0;2.460875511E0
1.640226406E1;-1.567656279E0;-9.807167053E0;3.034190893E0
1.641416406E1;-1.554602981E0;-9.984194756E0;3.638257504E0
1.642607500E1;-6.679152250E-1;-9.467200279E0;3.900614262E0
1.643798750E1;5.637770295E-1;-9.014284134E0;4.190791607E0
1.644990469E1;1.906675220E0;-8.846565247E0;4.364696980E0
1.646181094E1;3.305683851E0;-8.989126205E0;5.988808155E0
1.647372188E1;4.020678520E0;-8.970431328E0;2.854511023E0
1.648563281E1;3.548158884E0;-8.770133018E0;1.721622646E-1
1.649754531E1;2.841764212E0;-8.272187233E0;-1.560933352E0
1.650945625E1;3.475710392E0;-7.373748302E0;-2.318631172E0
1.652136875E1;3.884515524E0;-7.253301144E0;-1.885567904E0
1.653327969E1;3.666662455E0;-8.121285439E0;-1.608951449E0
1.654519219E1;3.132056475E0;-9.080384254E0;-1.737156153E0
1.655710312E1;2.666048765E0;-9.261326790E0;-1.950431585E0
1.656901563E1;2.819124460E0;-8.802963257E0;-2.437871933E0
1.658092656E1;3.083482981E0;-8.307860374E0;-2.171655655E0
1.659283750E1;3.073082209E0;-8.332577705E0;-1.580699801E0
1.660475000E1;3.255712271E0;-8.696286201E0;-5.620148778E-1
1.661666094E1;3.624036074E0;-9.314852715E0;4.429177344E-1
1.662857656E1;3.507457495E0;-1.006190014E1;1.102683067E0
1.664048438E1;2.883624554E0;-1.024829388E1;4.305444956E-1
1.665239688E1;2.382738352E0;-1.036532307E1;-7.310742736E-1
1.666430781E1;2.888374567E0;-1.047781181E1;-8.610697985E-1
1.667622500E1;3.802116632E0;-1.048424721E1;-9.522219002E-2
1.668813125E1;4.642826080E0;-1.019372559E1;8.388995528E-1
1.670004688E1;5.152580738E0;-9.479295731E0;1.505062222E0
1.671195469E1;5.264121532E0;-9.176046371E0;1.728211403E0
1.672386563E1;5.220968723E0;-9.695405960E0;1.869047999E0
1.673577812E1;4.841947079E0;-1.039761639E1;1.231960416E0
1.674769531E1;5.227787018E0;-1.078657818E1;-5.619286895E-1
1.675960625E1;5.753085136E0;-1.120641518E1;-1.832541108E0
1.677151250E1;5.556721687E0;-1.104454803E1;-2.197245121E0
1.678342344E1;4.903392315E0;-1.007274246E1;-2.262415171E0
1.679533438E1;4.658484459E0;-9.824128151E0;-2.229308367E0
1.680725313E1;4.037457466E0;-1.022804928E1;-1.912066936E0
1.681915781E1;3.520510674E0;-1.168520832E1;-1.407896042E0
1.683107031E1;3.296834946E0;-1.350552940E1;-4.146853089E-1
1.684298906E1;2.537642956E0;-1.559597397E1;1.765867472E-1
1.685489375E1;7.748594880E-2;-1.833904839E1;-7.398083806E-2
1.686681562E1;-1.622368574E0;-2.056307030E1;-4.322204590E-1
1.687871719E1;-2.994820833E0;-2.139961243E1;9.284714609E-2
1.689062813E1;-4.111207962E0;-2.099921608E1;1.743649095E-1
1.690253906E1;-4.385056973E0;-1.829350281E1;-3.642730117E-1
1.691445781E1;-3.218525410E0;-1.385282230E1;-1.132246733E0
1.692636250E1;-1.026480436E0;-9.941779137E0;-1.723231435E0
1.693827500E1;8.090869784E-1;-6.938435078E0;-1.165123940E0
1.695018594E1;1.807478666E0;-5.239270210E0;-8.067502081E-2
1.696209688E1;2.591311455E0;-4.331034184E0;1.033940792E0
1.697400938E1;3.092034817E0;-3.945452929E0;1.623833776E0
1.698592031E1;3.334462166E0;-3.820111513E0;2.094658375E0
1.699783750E1;2.404496908E0;-4.248194695E0;3.240437031E0
1.700974375E1;2.612840235E-1;-5.164436340E0;2.638094187E0
1.702165469E1;-1.357263446E0;-5.501319885E0;2.257799387E0
1.703356719E1;-1.920542359E0;-5.292746544E0;6.167559028E-1
1.704547813E1;-2.471122503E0;-5.030313492E0;-5.171667337E-1
1.705739219E1;-3.311372519E0;-4.886546612E0;-6.545938849E-1
1.706930156E1;-4.224463463E0;-4.880503654E0;-1.549431682E-1
1.708121406E1;-4.592432976E0;-4.543879032E0;6.901334524E-1
1.709314062E1;-4.309553623E0;-3.983836651E0;1.415691376E0
1.710503594E1;-3.539099455E0;-3.820762873E0;1.346604347E0
1.711696563E1;-1.686791778E0;-4.364658356E0;5.404670835E-1
1.712885938E1;3.227288127E-1;-5.407553673E0;-1.038872838E0
1.714077188E1;2.438389063E0;-7.617670059E0;-3.222212315E0
1.715268281E1;4.963630199E0;-1.072808266E1;-8.569087029E0
1.716460781E1;1.305039120E1;-1.339917850E1;-2.424721146E1
1.717650625E1;2.195620918E1;-1.707022667E1;-1.240269279E1
1.718841719E1;2.559717560E1;-1.887461281E1;-4.649635553E-1
1.720032969E1;1.828608894E1;-1.666908455E1;3.224031925E0
1.721224062E1;1.126896191E1;-1.110413456E1;-3.719200611E0
1.722415625E1;8.486525536E0;-5.104495525E0;-8.403781891E0
1.723606406E1;6.056219101E0;-3.767611504E0;-3.754165888E0
1.724798438E1;3.860602379E0;-8.090936661E0;1.432690263E0
1.725988750E1;2.243644714E0;-1.077990246E1;5.404565334E0
1.727179844E1;-9.559568763E-2;-1.315189552E1;5.746419430E0
1.728371719E1;-6.223488450E-1;-1.670005417E1;2.672091722E0
1.729562188E1;-2.735049725E0;-2.310155678E1;-6.694322109E0
1.730753281E1;-4.135437489E0;-2.131641006E1;-8.383919597E-1
1.731944531E1;-5.915746689E0;-1.472328758E1;3.981490374E0
1.733135625E1;-6.768293381E0;-1.061388874E1;4.422080994E0
1.734327031E1;-6.429456234E0;-8.562670708E0;4.012796879E0
1.735519063E1;-4.675100327E0;-7.547634602E0;2.710217237E0
1.736709062E1;-2.809394598E0;-7.551504135E0;2.012498856E0
1.737900312E1;-2.329634666E0;-8.212724686E0;2.132850647E0
1.739091406E1;-2.473018885E0;-9.079454422E0;3.394470453E0
1.740282500E1;-1.426522851E0;-9.460985184E0;4.053814411E0
1.741474062E1;8.126974106E-1;-9.434476852E0;4.175162315E0
1.742664844E1;1.792988896E0;-9.658668518E0;3.984985828E0
1.743856094E1;2.141814470E0;-9.671330452E0;3.124500275E0
1.745047188E1;2.044868469E0;-9.474813461E0;2.539175272E0
1.746241250E1;1.756147027E0;-9.044834137E0;2.564621210E0
1.747430156E1;1.353403926E0;-8.329150200E0;3.618012190E0
1.748620625E1;2.457398891E0;-8.075038910E0;1.002691686E-1
1.749811875E1;4.059033871E0;-7.937314987E0;-3.598446846E0
1.751002969E1;4.363528252E0;-7.686996460E0;-5.039565086E0
1.752194219E1;3.971932650E0;-7.584342957E0;-4.675703526E0
1.753385312E1;3.356153488E0;-7.722468853E0;-3.114099741E0
1.754576406E1;3.183474064E0;-7.761704922E0;-2.041057110E0
1.755767656E1;3.287066698E0;-7.624306679E0;-1.545083761E0
1.756958906E1;3.447679281E0;-7.707825661E0;-1.125495076E0
1.758150000E1;3.458414793E0;-8.130746841E0;-1.344583780E-1
1.759341094E1;3.411708832E0;-8.484389305E0;8.782601953E-1
1.760532344E1;3.216485500E0;-8.970470428E0;1.577683091E0
1.761723438E1;2.992177486E0;-9.410208702E0;2.145664215E0
1.762914688E1;2.533611298E0;-9.624135971E0;2.035291672E0
1.764105781E1;2.052884340E0;-9.955702782E0;9.933447242E-1
1.765297031E1;1.860304356E0;-1.047420120E1;-1.884045303E-1
1.766488125E1;2.494691133E0;-1.080874825E1;-6.907463670E-1
1.767679219E1;3.485603333E0;-1.057022858E1;-2.965171039E-1
1.768870469E1;4.264360428E0;-1.007903385E1;1.662629396E-1
1.770061562E1;4.769249916E0;-9.707252502E0;4.053191841E-1
1.771253750E1;5.289500237E0;-9.949191093E0;6.002838016E-1
1.772443906E1;5.683729649E0;-1.048096275E1;4.896142483E-1
1.773635000E1;6.000434399E0;-1.109568882E1;-6.229808331E-1
1.774826094E1;6.208902359E0;-1.215064049E1;-1.772255182E0
1.776017344E1;6.046843529E0;-1.198774910E1;-2.069567204E0
1.777208594E1;6.244719505E0;-1.026811790E1;-1.953477025E0
1.778399531E1;6.092257023E0;-9.588471413E0;-1.929688215E0
1.779590781E1;5.577560902E0;-1.031678677E1;-2.062221766E0
1.780782344E1;4.933329105E0;-1.126593590E1;-1.746531844E0
1.781973125E1;4.267779350E0;-1.264399052E1;-8.706658483E-1
1.783164219E1;3.368028879E0;-1.431492329E1;-1.078156903E-1
1.784355469E1;1.988547325E0;-1.641570854E1;2.911349293E-3
1.785546562E1;3.418345451E-1;-1.881954575E1;-6.605123729E-2
1.786737813E1;-1.647708774E0;-2.020980072E1;3.542460799E-1
1.787929219E1;-3.588036776E0;-2.069648361E1;1.769343734E0
1.789120156E1;-5.098711014E0;-2.022466469E1;2.064089060E0
1.790311250E1;-4.495659828E0;-1.728986168E1;3.572627902E-1
1.791502344E1;-2.300665140E0;-1.265447617E1;-1.363028526E0
1.792693594E1;-7.717086673E-1;-8.559988976E0;-1.750774384E0
1.793884688E1;-1.253029406E-1;-6.045196056E0;-7.985429168E-1
1.795076406E1;3.470155895E-1;-4.920984745E0;4.741189778E-1
1.796267031E1;8.099009991E-1;-4.502650738E0;1.243845224E0
1.797458125E1;1.549144268E0;-4.100654602E0;1.376148820E0
1.798649375E1;2.157980204E0;-3.856800318E0;1.590286255E0
1.799840625E1;2.384586573E0;-3.861646175E0;1.619868994E0
1.801031562E1;1.695516229E0;-4.333572388E0;1.935290694E0
1.802222812E1;6.397594213E-1;-5.023724556E0;9.121621251E-1
1.803413906E1;-9.402508289E-2;-5.428344727E0;-1.275439113E-1
1.804605156E1;-9.375310540E-1;-5.629630089E0;-1.938633025E-1
1.805796250E1;-2.144572735E0;-5.911494732E0;-3.930512965E-1
1.806987969E1;-3.537758589E0;-6.019798756E0;-3.410013616E-1
1.808178594E1;-4.318181992E0;-5.683490276E0;1.869967282E-1
1.809369844E1;-4.806312084E0;-5.093319416E0;9.831741452E-1
1.810560938E1;-4.517542362E0;-4.418126106E0;1.616986275E0
1.811752031E1;-3.818828344E0;-4.243674755E0;1.970016241E0
1.812943281E1;-1.428553104E0;-4.853324890E0;1.321101308E0
1.814134375E1;9.497702718E-1;-6.224426270E0;1.389594655E-2
1.815325625E1;3.580959797E0;-9.354902267E0;-3.675798893E0
1.816516719E1;7.880802155E0;-1.346992302E1;-1.455998325E1
1.817707969E1;1.769448280E1;-1.739430618E1;-2.240379143E1
1.818899375E1;2.232209015E1;-2.072469902E1;-6.636449337E0
1.820090312E1;2.155715179E1;-1.893618202E1;7.315722704E-1
1.821281406E1;1.341056538E1;-1.349647808E1;4.645613134E-1
1.822472656E1;1.044299030E1;-7.208625317E0;-5.911083221E0
1.823664219E1;8.494972229E0;-4.059454918E0;-5.171140671E0
1.824854844E1;5.712699413E0;-7.118411541E0;-1.586809874E0
1.826045938E1;4.642318726E0;-1.034498119E1;2.678010225E0
1.827237188E1;2.586254835E0;-1.100666237E1;5.993883610E0
1.828428438E1;-1.932791173E-1;-1.193382168E1;4.759558201E0
1.829620781E1;-9.060137868E-1;-1.366008854E1;1.901676178E0
1.830811719E1;-4.081798077E0;-1.803167152E1;-8.395641327E0
1.832001875E1;-5.115432262E0;-1.732046890E1;-3.787933588E0
1.833192969E1;-6.265405655E0;-1.302158356E1;2.355798483E0
1.834384063E1;-5.302457333E0;-9.185258865E0;4.648036003E0
1.835575312E1;-4.628633499E0;-6.662699223E0;4.588248253E0
1.836766406E1;-2.924996376E0;-5.807250977E0;2.988777876E0
1.837957500E1;-9.713946581E-1;-7.048922539E0;1.662935972E0
1.839148750E1;-4.191097915E-1;-8.959695816E0;1.912574410E0
1.840339844E1;-1.838076413E-1;-1.049256039E1;3.424962997E0
1.841531250E1;1.290963173E0;-1.117825031E1;3.382940054E0
1.842722188E1;3.165144205E0;-1.125214481E1;3.792176008E0
1.843913438E1;3.610235929E0;-1.079200745E1;4.831690311E0
1.845104531E1;3.185284138E0;-1.003281593E1;5.960135460E0
1.846295625E1;2.095117807E0;-9.037010193E0;5.878588676E0
1.847488438E1;2.500849009E0;-8.470532417E0;1.436865807E0
1.848677969E1;2.912919998E0;-7.672870636E0;-1.106054187E0
1.849869219E1;3.203317404E0;-6.931778908E0;-2.400809765E0
1.851060312E1;2.902835369E0;-6.673549652E0;-2.434998751E0
1.852251406E1;1.575288892E0;-7.576930046E0;-2.475336313E0
1.853442656E1;2.366428971E-1;-8.910126686E0;-4.020324230E0
1.854635156E1;4.558559973E-3;-8.923534393E0;-5.961054802E0
1.855825000E1;2.851494253E-1;-8.087909698E0;-5.733778000E0
1.857016094E1;1.467961669E0;-7.305025578E0;-2.775166988E0
1.858207344E1;1.797940135E0;-7.570724010E0;2.677675337E-2
1.859398438E1;2.171033382E0;-8.039442062E0;1.291604757E0
1.860589688E1;2.086661577E0;-8.861850739E0;1.934112787E0
1.861780781E1;1.914355874E0;-9.731576920E0;2.045720816E0
1.862971875E1;2.212931871E0;-1.047609806E1;1.582672596E0
1.864163125E1;2.625596523E0;-1.078772640E1;8.207706213E-1
1.865354219E1;2.854118109E0;-1.109000015E1;4.446319938E-1
1.866546562E1;3.652613163E0;-1.120309162E1;3.620511889E-1
1.867736562E1;4.958276749E0;-1.084170246E1;4.364438057E-1
1.868927656E1;6.108000755E0;-1.005548477E1;9.069523215E-1
1.870118906E1;6.804646969E0;-9.491200447E0;1.208976030E0
1.871310000E1;7.580138206E0;-9.607557297E0;8.807501793E-1
1.872501250E1;7.766062737E0;-1.016172981E1;-2.905315757E-1
1.873692344E1;7.451972008E0;-9.844277382E0;-2.472157001E0
1.874883438E1;6.859838009E0;-9.369996071E0;-3.633919477E0
1.876074688E1;6.073994160E0;-8.884125710E0;-3.524772406E0
1.877265781E1;4.875360966E0;-8.892486572E0;-4.066791058E0
1.878457656E1;5.077076912E0;-9.776339531E0;-4.286664963E0
1.879648125E1;5.457880020E0;-1.123800945E1;-2.567790985E0
1.880839219E1;5.097274303E0;-1.266287518E1;-6.089508533E-1
1.882030469E1;4.599031925E0;-1.384266090E1;4.873349667E-1
1.883223281E1;4.227834702E0;-1.561084652E1;8.509567380E-1
1.884412812E1;2.396375656E0;-1.921059608E1;7.176571488E-1
1.885603906E1;1.626716405E-1;-2.213631058E1;4.644559622E-1
1.886795000E1;-2.103890419E0;-2.379509926E1;2.052099228E0
1.887986250E1;-4.522053242E0;-2.388443184E1;2.871825695E0
1.889177969E1;-5.796984673E0;-2.092749596E1;1.309542060E0
1.890369531E1;-5.344547749E0;-1.493054771E1;-1.396681517E-1
1.891559688E1;-3.407830000E0;-9.854179382E0;-1.188041091E0
1.892750938E1;-1.117364407E0;-6.170920849E0;-1.643399119E0
1.893942031E1;-1.719324142E-1;-4.395572186E0;-1.133903384E0
1.895133125E1;-4.452257603E-2;-3.529819250E0;-6.460034847E-1
1.896324375E1;5.896152258E-1;-3.239967823E0;-4.972182214E-1
1.897515469E1;1.192906260E0;-3.131750107E0;1.561019570E-3
1.898706719E1;1.460884452E0;-3.346835375E0;5.521891117E-1
1.899898281E1;8.099105358E-1;-4.002549648E0;2.565703154E0
1.901089219E1;-5.688240528E-1;-4.774421215E0;4.569257259E0
1.902280781E1;-1.742863894E0;-5.789696693E0;2.593523741E0
1.903471250E1;-2.233148336E0;-6.054342270E0;4.150875211E-1
1.904662500E1;-2.753044605E0;-5.994640827E0;-1.938824505E-1
1.905853594E1;-3.403405428E0;-5.952311039E0;-3.646847978E-2
1.907046719E1;-3.796408892E0;-5.656253338E0;4.124251604E-1
1.908235938E1;-3.603484154E0;-4.914769650E0;9.150255919E-1
1.909427031E1;-2.850478888E0;-4.254898548E0;8.169686198E-1
1.910618281E1;-1.272144675E0;-4.061198235E0;5.784487128E-1
1.911809375E1;7.746966481E-1;-5.048413754E0;-1.145223260E0
1.913000625E1;2.232238770E0;-7.005529881E0;-3.172068357E0
1.914191719E1;4.080629349E0;-9.836136818E0;-7.263883114E0
1.915383438E1;9.406702995E0;-1.194407845E1;-1.735990715E1
1.916574062E1;1.832586098E1;-1.415122604E1;-2.028183746E1
1.917765313E1;2.142197609E1;-1.824000549E1;-5.867067814E0
1.918956406E1;1.689609146E1;-1.849918175E1;1.597315669E-1
1.920147656E1;1.041298676E1;-1.309385014E1;-1.956963062E0
1.921338750E1;8.932824135E0;-6.916657448E0;-8.267676353E0
1.922529844E1;7.852234364E0;-3.534636497E0;-6.939976692E0
1.923721094E1;6.011735439E0;-6.805441856E0;-5.911666751E-1
1.924912188E1;3.917143822E0;-1.036014175E1;4.802385807E0
1.926104062E1;8.160397410E-1;-1.218927383E1;7.605162621E0
1.927294531E1;-1.100509167E0;-1.427524567E1;5.475797653E0
1.928485625E1;-1.865063906E0;-1.673593903E1;3.417426109E0
1.929676875E1;-4.584129810E0;-2.210532951E1;-8.844612122E0
1.930867969E1;-5.279568672E0;-2.067420959E1;4.871338606E-1
1.932059062E1;-6.799149990E0;-1.488136101E1;4.946190834E0
1.933250313E1;-6.991825581E0;-1.054539585E1;5.172691822E0
1.934441406E1;-5.350562096E0;-7.733836651E0;4.503253937E0
1.935632656E1;-3.125065088E0;-6.588967800E0;2.443349838E0
1.936823750E1;-1.591062069E0;-6.945291996E0;2.193078995E0
1.938015625E1;-2.949369252E-1;-7.784286976E0;3.271897078E0
1.939206094E1;2.688688636E-1;-8.729326248E0;4.768703938E0
1.940397188E1;6.615179181E-1;-1.008101559E1;4.727102280E0
1.941588438E1;1.314589143E0;-1.077100563E1;3.735059977E0
1.942779531E1;1.884533525E0;-1.075626755E1;3.135982990E0
1.943970938E1;2.472329378E0;-9.856295586E0;3.444825172E0
1.945161875E1;2.613309622E0;-8.712288857E0;4.086423397E0
1.946352969E1;2.510435343E0;-7.811188698E0;3.730290890E0
1.947544219E1;3.261573076E0;-7.665304661E0;-3.858208060E-1
1.948735313E1;3.413767815E0;-7.629439831E0;-3.086365461E0
1.949926406E1;2.938978195E0;-7.650594711E0;-4.704711914E0
1.951117656E1;2.188051224E0;-7.451177120E0;-5.536016464E0
1.952308750E1;1.688697457E0;-7.094498634E0;-5.387327194E0
1.953500000E1;2.160853386E0;-7.060472012E0;-3.962480545E0
1.954691719E1;2.779850006E0;-7.374208450E0;-2.074441671E0
1.955882344E1;3.471285820E0;-8.115510941E0;-4.789456725E-1
1.957073438E1;3.836612463E0;-8.866590500E0;5.831796527E-1
1.958264531E1;4.226340771E0;-9.560851097E0;1.399899244E0
1.959455781E1;4.000328064E0;-9.988666534E0;2.037513494E0
1.960646875E1;3.295427084E0;-9.748883247E0;1.160910130E0
1.961838125E1;2.370652437E0;-9.782335281E0;-3.084689565E-2
1.963029219E1;2.030282974E0;-1.014811134E1;-2.449459881E-1
1.964220312E1;2.818406343E0;-1.003912735E1;3.549260199E-1
1.965411563E1;3.969184160E0;-9.722172737E0;1.015141487E0
1.966602656E1;5.170824051E0;-9.350200653E0;1.254906535E0
1.967795000E1;6.105473042E0;-9.609330177E0;1.847548008E0
1.968985000E1;6.372656345E0;-9.985717773E0;2.164751053E0
1.970177031E1;5.941699505E0;-1.063597298E1;7.301549315E-1
1.971367344E1;6.674028873E0;-1.121382809E1;-1.394967318E0
1.972559219E1;6.684869766E0;-1.140380287E1;-2.213544846E0
1.973750312E1;6.043980598E0;-1.112275219E1;-2.276033401E0
1.974940781E1;5.918763638E0;-1.150974083E1;-2.634349585E0
1.976132031E1;5.417407990E0;-1.249789524E1;-2.916195154E0
1.977323125E1;4.364265442E0;-1.312348175E1;-2.413307428E0
1.978514219E1;2.710447073E0;-1.438831902E1;-1.422529340E0
1.979705469E1;4.014118612E-1;-1.654334068E1;-1.175294399E0
1.980896563E1;-1.840786695E0;-1.914863205E1;-2.300301075E0
1.982087812E1;-3.456815481E0;-2.141534042E1;-4.020611763E0
1.983278906E1;-4.922469139E0;-2.260313988E1;-4.503982067E0
1.984470625E1;-6.035677433E0;-2.170977783E1;-2.453980207E0
1.985661562E1;-6.728137493E0;-1.930096245E1;-7.486956120E-1
1.986852344E1;-5.200493336E0;-1.482267475E1;-2.928683162E-1
1.988043594E1;-2.856550694E0;-1.048246574E1;-6.100234389E-1
1.989234688E1;-1.049608350E0;-7.407200336E0;-4.868178070E-1
1.990425938E1;1.289612800E-1;-5.607641697E0;4.455992579E-1
1.991617031E1;4.873445332E-1;-4.582223892E0;1.635910153E0
1.992808125E1;1.412090540E0;-3.686084270E0;2.451509237E0
1.993999375E1;3.364676952E0;-2.457025528E0;2.977582455E0
1.995190469E1;5.038003922E0;-1.469484329E0;3.059358835E0
1.996383438E1;5.179788589E0;-1.100202799E0;4.310951710E0
1.997573438E1;2.922094584E0;-2.224749804E0;4.022220612E0
1.998764062E1;8.363137841E-1;-3.589789391E0;1.944465280E0
1.999955156E1;-5.515857339E-1;-4.721816063E0;-4.993347079E-2
2.001146250E1;-1.353777409E0;-5.354373455E0;-1.181241751E0
2.002337344E1;-2.179537535E0;-5.826941013E0;-1.336290121E0
2.003528594E1;-3.165364504E0;-6.051689625E0;-1.000910401E0
2.004719844E1;-4.035886765E0;-5.882419586E0;-4.102033675E-1
2.005910938E1;-4.878540516E0;-5.514852047E0;4.479264319E-1
2.007102188E1;-4.795155048E0;-5.240562916E0;1.573526859E0
2.008295469E1;-3.495036364E0;-5.780330658E0;1.880827427E0
2.009485156E1;-3.001466990E-1;-7.020038605E0;5.820208788E-1
2.010675625E1;3.176588535E0;-9.697474480E0;-4.275393009E0
2.011866719E1;9.562413216E0;-1.244709110E1;-2.437240791E1
2.013057969E1;1.947752953E1;-1.581799221E1;-2.221175575E1
2.014249219E1;2.324001694E1;-2.014140511E1;-4.530327797E0
2.015440312E1;1.942526054E1;-1.902743912E1;1.673508644E0
2.016631406E1;1.151509476E1;-1.328384495E1;-6.471910477E-1
2.017822500E1;9.210464478E0;-7.159726143E0;-8.761792183E0
2.019013750E1;7.424323559E0;-6.154381752E0;-7.221094131E0
2.020206719E1;5.084517956E0;-1.084974575E1;-3.361325264E0
2.021396875E1;4.117711067E0;-1.321077442E1;3.381905794E0
2.022587188E1;2.347964764E0;-1.476090431E1;6.643201351E0
2.023778281E1;1.038834572E0;-1.576199722E1;5.372243881E0
2.024969531E1;-2.037657261E0;-1.589042187E1;3.376686275E-1
2.026160625E1;-7.161583900E0;-1.465775299E1;-6.516959667E0
2.027351875E1;-7.005654335E0;-1.095142269E1;1.686561942E0
2.028542969E1;-4.589570045E0;-8.697406769E0;4.798161983E0
2.029734219E1;-4.161706448E0;-7.835005760E0;5.250225544E0
2.030925312E1;-3.559574604E0;-7.906027317E0;4.377912521E0
2.032116406E1;-2.981307745E0;-8.736767769E0;3.287660360E0
2.033308281E1;-1.906684756E0;-9.599025726E0;3.193683147E0
2.034498750E1;-2.347658426E-1;-1.015178871E1;3.756923914E0
2.035690469E1;6.682695746E-1;-1.049621868E1;2.486043215E0
2.036881094E1;1.009673119E0;-1.111125088E1;3.228360891E0
2.038072188E1;1.112968683E0;-1.136087990E1;4.071119785E0
2.039263438E1;1.794961810E0;-1.063198948E1;3.486379147E0
2.040454531E1;1.957317352E0;-9.781213760E0;3.251517296E0
2.041645781E1;1.981364727E0;-8.525685310E0;3.843660831E0
2.042836875E1;2.131529093E0;-7.363683701E0;9.046921730E-1
2.044028125E1;3.557994366E0;-6.730091095E0;-2.639923334E0
2.045219062E1;3.660992861E0;-6.344395161E0;-4.484167576E0
2.046410156E1;2.914021254E0;-6.714979172E0;-4.771423817E0
2.047601406E1;2.177469015E0;-7.954370975E0;-4.487356663E0
2.048792656E1;1.765848279E0;-8.727506638E0;-4.645163059E0
2.049983750E1;1.433111668E0;-8.369554520E0;-4.585318089E0
2.051175000E1;1.765321493E0;-7.872509003E0;-2.807900667E0
2.052366094E1;2.284039736E0;-7.870133877E0;-5.979949832E-1
2.053557188E1;2.549527884E0;-8.311203003E0;1.037014842E0
2.054748438E1;3.125467539E0;-9.113691330E0;1.439260006E0
2.055939688E1;3.010267973E0;-1.009814930E1;1.939897060E0
2.057130938E1;2.940414906E0;-1.027950478E1;2.142379522E0
2.058321875E1;2.521420002E0;-1.000518608E1;6.855078340E-1
2.059513438E1;1.987503409E0;-1.039806557E1;-5.823560357E-1
2.060704531E1;2.282028675E0;-1.083375263E1;-5.289557576E-1
2.061895312E1;3.197283983E0;-1.134124660E1;1.540716738E-1
2.063086719E1;4.643697739E0;-1.088406944E1;7.784890532E-1
2.064277812E1;5.528058529E0;-1.008626461E1;1.350291491E0
2.065468906E1;6.601455688E0;-9.709138870E0;1.229939699E0
2.066660000E1;7.422446728E0;-1.025979614E1;7.066916823E-1
2.067851250E1;7.704607964E0;-1.040168571E1;-4.508377612E-1
2.069043125E1;7.373633862E0;-1.103237629E1;-1.759575486E0
2.070233594E1;7.431831837E0;-1.059008121E1;-2.343511820E0
2.071424688E1;6.845338821E0;-8.825104713E0;-2.212749958E0
2.072615938E1;5.850059509E0;-8.012406349E0;-2.611049414E0
2.073807656E1;5.840894699E0;-9.145428658E0;-2.740183115E0
2.074998125E1;5.486839771E0;-1.108623600E1;-1.885405183E0
2.076189375E1;5.214734077E0;-1.303153419E1;-7.020661235E-1
2.077380469E1;4.805651188E0;-1.517963219E1;3.573298156E-1
2.078571562E1;3.593342543E0;-1.807394409E1;3.314724565E-1
2.079764688E1;1.296795309E-1;-2.181533432E1;-2.472061217E-1
2.080954531E1;-3.480987310E0;-2.524191666E1;-3.614095449E-1
2.082145000E1;-5.696878433E0;-2.575715637E1;1.192666769E0
2.083336250E1;-7.805988312E0;-2.364599800E1;9.117790461E-1
2.084527344E1;-7.962109566E0;-1.831458092E1;-8.293897510E-1
2.085718594E1;-5.102446079E0;-1.161019230E1;-2.427184343E0
2.086910625E1;-2.233780622E0;-6.410542011E0;-2.983931780E0
2.088100938E1;-2.605849132E-2;-3.969222307E0;-2.186365604E0
2.089292031E1;9.164046645E-1;-3.065372944E0;-1.374032378E0
2.090483281E1;1.546673417E0;-2.770321369E0;-7.208079100E-1
2.091674531E1;2.288062096E0;-2.487728834E0;9.886616468E-1
2.092865469E1;2.518901348E0;-2.488619328E0;2.687999010E0
2.094056719E1;2.584358931E0;-2.838498592E0;5.004312515E0
2.095247813E1;1.590516090E0;-3.968427658E0;4.921070576E0
2.096439062E1;5.036730170E-1;-4.910498142E0;3.698447704E0
2.097630156E1;-7.608102560E-1;-5.820630074E0;2.042129517E0
2.098821250E1;-1.723164439E0;-6.321764946E0;5.211985707E-1
2.100012500E1;-2.753925800E0;-6.592070103E0;-5.757192969E-1
2.101203906E1;-4.342986107E0;-6.475980282E0;-6.918572187E-1
2.102394688E1;-5.690921783E0;-5.812365055E0;3.839246333E-1
2.103586406E1;-6.419764519E0;-4.663033009E0;1.509285688E0
2.104777656E1;-5.430461407E0;-4.021569252E0;1.823136687E0
2.105970469E1;-2.982524157E0;-5.036701202E0;-2.080657035E-1
2.107159375E1;-8.008221388E-1;-6.829067707E0;-3.810793400E0
2.108350625E1;1.967526197E0;-9.295526505E0;-9.465715408E0
2.109542344E1;8.474372864E0;-1.103153324E1;-2.080096817E1
2.110732813E1;1.769404984E1;-1.354125977E1;-1.298415852E1
2.111924062E1;2.283541679E1;-1.858307648E1;-7.283774376E0
2.113115312E1;1.769259644E1;-2.122883987E1;-1.752383351E0
2.114306406E1;9.353543282E0;-1.717858696E1;-2.910707474E0
2.115498281E1;8.166851997E0;-8.807233810E0;-9.953701973E0
2.116689375E1;7.398131371E0;-4.580529213E0;-7.167521477E0
2.117879844E1;5.185371399E0;-7.917682648E0;-2.563864470E0
2.119071094E1;4.327031136E0;-1.067826366E1;2.850852489E0
2.120262188E1;3.031557322E0;-1.194629097E1;7.503590584E0
2.121453281E1;4.106726348E-1;-1.435784531E1;6.229664803E0
2.122644688E1;-6.155109406E-1;-1.747841072E1;3.093643904E0
2.123835625E1;-2.687127352E0;-1.976685524E1;-3.845921040E0
2.125026875E1;-3.364581347E0;-1.610515404E1;5.890693888E-2
2.126217969E1;-5.148530006E0;-1.064592266E1;2.916233301E0
2.127409688E1;-4.592978954E0;-7.484360695E0;3.670742273E0
2.128600938E1;-3.528306484E0;-6.056094646E0;4.355962753E0
2.129791406E1;-2.156955481E0;-6.240869522E0;3.625625849E0
2.130982656E1;-9.329629540E-1;-7.785819530E0;2.786946535E0
2.132173750E1;-7.963114977E-2;-9.165186882E0;2.851752758E0
2.133365938E1;4.769345820E-1;-1.016329002E1;3.695258856E0
2.134556094E1;8.502001762E-1;-1.071876431E1;4.069587231E0
2.135748281E1;9.756754637E-1;-1.101662254E1;3.528766155E0
2.136938438E1;1.059932232E0;-1.099503613E1;2.669908524E0
2.138129531E1;1.213247299E0;-1.009403133E1;2.605063677E0
2.139320781E1;1.081547141E0;-8.555900574E0;2.769009352E0
2.140511875E1;6.411288977E-1;-7.597788811E0;1.866519690E0
2.141702969E1;1.176261663E0;-7.983724117E0;-1.388579488E0
2.142894219E1;1.881603122E0;-8.278603554E0;-3.299391747E0
2.144085312E1;1.622761250E0;-8.271928787E0;-3.516479015E0
2.145278594E1;1.452533484E0;-8.009036064E0;-2.661653042E0
2.146467656E1;1.698657393E0;-7.900185585E0;-1.663395643E0
2.147658750E1;1.827532530E0;-7.528461933E0;-1.028386235E0
2.148849844E1;1.868310571E0;-6.762250423E0;-8.687408566E-1
2.150041094E1;2.266868353E0;-6.605937481E0;-1.535976171E0
2.151232188E1;2.911368370E0;-7.266382694E0;-1.452897310E0
2.152424688E1;3.460799217E0;-8.771253586E0;-2.574916184E-1
2.153614688E1;3.514870167E0;-1.030499840E1;8.457278013E-1
2.154805781E1;3.392162323E0;-1.095082951E1;1.651798129E0
2.155996875E1;2.906953573E0;-1.073887634E1;1.494633079E0
2.157188125E1;2.080657005E0;-1.020836830E1;-5.317043141E-2
2.158379844E1;1.543417335E0;-1.031514931E1;-1.838564992E0
2.159570469E1;2.021357536E0;-1.063207531E1;-1.923721910E0
2.160761562E1;3.232670307E0;-1.100391388E1;-7.832008600E-1
2.161952656E1;4.794657230E0;-1.061155128E1;2.570415139E-1
2.163144531E1;5.963812828E0;-9.423443794E0;1.041113734E0
2.164336250E1;6.886336803E0;-8.467927933E0;1.481541634E0
2.165526250E1;7.688557625E0;-8.562939644E0;1.027677655E0
2.166717344E1;7.646199226E0;-9.172062874E0;-3.545621037E-1
2.167908594E1;7.553208351E0;-9.850061417E0;-1.755926609E0
2.169100312E1;7.299538136E0;-1.082656097E1;-2.569792509E0
2.170290938E1;7.061209679E0;-9.853394508E0;-2.357024431E0
2.171482031E1;6.396272659E0;-9.526537895E0;-2.018886566E0
2.172673125E1;5.804684639E0;-1.073222923E1;-1.900019288E0
2.173864375E1;5.118190289E0;-1.226832008E1;-1.567292333E0
2.175055469E1;4.081041336E0;-1.409364033E1;-7.212101221E-1
2.176246562E1;2.742873907E0;-1.629029274E1;1.035252810E-1
2.177437813E1;1.192858219E0;-1.906903076E1;1.170764640E-1
2.178628906E1;-1.563586116E0;-2.229650116E1;-8.884595633E-1
2.179820156E1;-3.986221552E0;-2.432689095E1;-1.356937766E0
2.181013906E1;-5.802050591E0;-2.371633911E1;8.787677437E-2
2.182202500E1;-7.011113167E0;-2.026056862E1;6.793116331E-1
2.183393594E1;-5.442748547E0;-1.538745785E1;1.846791357E-1
2.184584688E1;-2.808685780E0;-1.066375446E1;-5.179616213E-1
2.185775938E1;-8.729355335E-1;-7.409211636E0;-6.957550049E-1
2.186967656E1;1.159741640E0;-5.596609592E0;-7.822623253E-1
2.188160312E1;2.870666981E0;-4.681161880E0;-6.336206794E-1
2.189349375E1;3.597728491E0;-3.937551975E0;1.313363314E-1
2.190540469E1;4.208211899E0;-3.380497694E0;1.033356547E0
2.191731719E1;4.753840923E0;-2.903534651E0;1.522961259E0
2.192923594E1;3.754845619E0;-3.331254005E0;2.284221649E0
2.194114063E1;1.747642756E0;-4.456950188E0;1.518871903E0
2.195305156E1;-1.392467618E-1;-5.308242321E0;-9.290460497E-2
2.196496250E1;-8.544427156E-1;-5.581200123E0;-8.104563951E-1
2.197687500E1;-1.321848392E0;-5.707987309E0;-5.874029994E-1
2.198880000E1;-2.348759651E0;-5.826366425E0;3.306871280E-2
2.200072344E1;-3.501586914E0;-5.824029922E0;1.230504751E0
2.201260938E1;-4.455819607E0;-5.588171959E0;2.050806046E0
2.202452031E1;-4.901955605E0;-5.080687523E0;2.358460903E0
2.203643281E1;-4.874001026E0;-4.485728741E0;1.870350361E0
2.204834531E1;-4.210759163E0;-4.190781593E0;1.255097985E0
2.206025625E1;-3.113630533E0;-4.841449261E0;9.441007972E-1
2.207216719E1;-9.770641327E-1;-6.231944561E0;-1.419407248E0
2.208407812E1;1.301200628E0;-8.639026642E0;-5.769202709E0
2.209599063E1;5.422244072E0;-1.163665295E1;-1.233706284E1
2.210791719E1;1.436747074E1;-1.424534702E1;-1.457231808E1
2.211981406E1;2.272367477E1;-1.836217499E1;-1.372439766E1
2.213172500E1;2.503904915E1;-1.959856987E1;-5.633911133E0
2.214363750E1;1.604137993E1;-1.622051620E1;-1.630757809E0
2.215554844E1;1.088121605E1;-9.832833290E0;-5.798545837E0
2.216745938E1;8.684171677E0;-8.189941406E0;-6.555056095E0
2.217937188E1;6.435125828E0;-1.153993797E1;-4.184154987E0
2.219128438E1;4.623643875E0;-1.364144325E1;-2.854558945E0
2.220319531E1;4.015267849E0;-1.402430439E1;3.998996735E0
2.221510625E1;6.003509164E-1;-1.476625824E1;6.111161709E0
2.222705312E1;-1.724744678E0;-1.407416153E1;4.991269112E0
2.223894062E1;-4.233532906E0;-1.133707142E1;1.419254065E0
2.225084063E1;-7.048089504E0;-9.220922470E0;-2.123494148E0
2.226275312E1;-7.781538486E0;-8.864244461E0;-1.128818274E0
2.227466406E1;-4.739360332E0;-9.780237198E0;3.606319189E0
2.228657969E1;-2.697269201E0;-1.049905396E1;5.099458218E0
2.229848750E1;-2.069480896E0;-1.040726948E1;5.083579540E0
2.231039844E1;-1.991142631E0;-1.006037807E1;3.895864248E0
2.232231094E1;-1.076931000E0;-9.414269447E0;3.044869184E0
2.233422188E1;4.404660761E-1;-9.005043030E0;2.581638813E0
2.234613438E1;1.085837483E0;-9.025049210E0;2.263526201E0
2.235805156E1;1.395436525E0;-9.532686234E0;2.271273851E0
2.236995625E1;1.629685163E0;-9.908403397E0;1.856655478E0
2.238186875E1;1.763913751E0;-9.675169945E0;1.498109460E0
2.239377969E1;1.848256707E0;-9.008864403E0;1.834600091E0
2.240569844E1;2.133578300E0;-8.133505821E0;2.218017101E0
2.241760313E1;3.139440298E0;-7.408675194E0;-3.686878979E-1
2.242951406E1;4.252446651E0;-6.809770584E0;-2.239392519E0
2.244142656E1;3.788987160E0;-6.632369518E0;-2.378543615E0
2.245333750E1;3.225104570E0;-7.137536526E0;-1.419646740E0
2.246525156E1;2.661509514E0;-8.342250824E0;-5.993931890E-1
2.247716406E1;1.892032266E0;-9.017271996E0;-6.379302144E-1
2.248907188E1;1.271330714E0;-8.681337357E0;-1.505301595E0
2.250098438E1;1.406871200E0;-8.079808235E0;-2.612983942E0
2.251289531E1;1.924574256E0;-7.983819962E0;-2.622838497E0
2.252481406E1;2.320134878E0;-8.588040352E0;-1.209809303E0
2.253671875E1;2.620970964E0;-9.498487473E0;-2.285026200E-2
2.254863125E1;2.882044077E0;-1.004516029E1;8.359115720E-1
2.256054219E1;2.910947084E0;-1.018466568E1;1.386855721E0
2.257245313E1;2.472089767E0;-1.016549301E1;1.008380294E0
2.258436562E1;2.021520376E0;-1.031963158E1;-1.303116083E-1
2.259627656E1;2.269492388E0;-1.058051395E1;-3.589961827E-1
2.260818906E1;3.264379263E0;-1.079789734E1;1.964298785E-1
2.262010000E1;4.077402115E0;-1.071336365E1;7.253760695E-1
2.263201250E1;4.951084614E0;-1.004628086E1;9.806936979E-1
2.264392344E1;5.470061302E0;-9.949152946E0;1.213323951E0
2.265584531E1;6.222012997E0;-1.024157143E1;1.420690536E0
2.266774688E1;6.483670235E0;-1.059154606E1;1.323045373E0
2.267965938E1;6.545258999E0;-1.071920490E1;-3.417866528E-1
2.269157031E1;7.050971508E0;-1.080177593E1;-1.769276738E0
2.270348750E1;7.159142017E0;-1.037847137E1;-2.245713472E0
2.271539219E1;6.409316540E0;-8.557279587E0;-2.094945669E0
2.272730469E1;5.372167110E0;-7.742206573E0;-2.363460302E0
2.273921719E1;5.293445587E0;-8.340766907E0;-2.787435055E0
2.275112812E1;5.288648129E0;-1.001117325E1;-2.386693716E0
2.276303906E1;4.617696762E0;-1.187027931E1;-1.179527521E0
2.277495156E1;3.799990654E0;-1.417138481E1;-5.767153203E-2
2.278686250E1;2.213573456E0;-1.683381462E1;-2.505962849E-1
2.279877344E1;1.041477770E-1;-2.048246384E1;-1.715014577E0
2.281068594E1;-2.074671745E0;-2.356188393E1;-1.894282818E0
2.282259688E1;-4.399584770E0;-2.461851311E1;-4.112663865E-1
2.283452031E1;-6.162512302E0;-2.305159378E1;8.715468645E-1
2.284642031E1;-6.089297771E0;-1.862152481E1;6.220327616E-1
2.285833281E1;-3.847482204E0;-1.246522903E1;-1.656021476E-1
2.287024375E1;-1.750113487E0;-8.093943596E0;-1.248566628E0
2.288215469E1;2.641379237E-1;-5.341559410E0;-1.250453234E0
2.289406719E1;1.599345922E0;-3.942953348E0;-9.183104038E-1
2.290597656E1;2.320680618E0;-3.346739769E0;-4.078378975E-1
2.291788906E1;2.594558001E0;-3.181568384E0;1.132170111E-1
2.292982031E1;2.812851906E0;-3.263392687E0;2.150471956E-1
2.294171250E1;2.518058538E0;-3.705640078E0;8.156949282E-1
2.295363125E1;1.313104749E0;-4.279214382E0;2.257176876E0
2.296553750E1;-2.841725647E-1;-5.025716782E0;2.475518227E0
2.297745312E1;-1.040692329E0;-5.398484230E0;9.602472782E-1
2.298935938E1;-1.498253226E0;-5.419361591E0;1.748820692E-1
2.300127031E1;-2.443148613E0;-5.441455364E0;-1.976748705E-1
2.301318281E1;-3.526448488E0;-5.415875912E0;-1.591665298E-2
2.302509375E1;-4.187822819E0;-5.167520523E0;5.069674253E-1
2.303700625E1;-4.355656147E0;-4.516690254E0;1.179201841E0
2.304891719E1;-3.988213301E0;-4.055815697E0;1.512915134E0
2.306082812E1;-2.853677750E0;-3.917000294E0;1.210728645E0
2.307275313E1;-6.354498863E-1;-4.936499119E0;8.102936298E-2
2.308465156E1;1.415950060E0;-7.314516068E0;-2.876642704E0
2.309657031E1;4.480231285E0;-1.066965389E1;-8.010577202E0
2.310847500E1;1.100088787E1;-1.357336140E1;-1.610363007E1
2.312039063E1;2.049057388E1;-1.770074463E1;-1.668785286E1
2.313229844E1;2.395724487E1;-2.027635956E1;-4.765562534E0
2.314421094E1;1.822313118E1;-1.797248650E1;-1.540237814E-1
2.315612188E1;1.210780334E1;-1.181558704E1;-2.736725807E0
2.316803281E1;1.043943787E1;-5.513463497E0;-8.629564285E0
2.317994531E1;8.633223534E0;-4.391818523E0;-5.493083954E0
2.319186406E1;5.926042080E0;-9.007340431E0;-1.693275124E-1
2.320376875E1;3.535029411E0;-1.134811401E1;5.533210754E0
2.321567969E1;-8.929414302E-2;-1.215823555E1;6.662220478E0
2.322759219E1;-9.474334717E-1;-1.286286831E1;4.524456978E0
2.323950469E1;-1.303365111E0;-1.367766190E1;2.719841719E0
2.325141406E1;-4.404037952E0;-1.665725517E1;-5.670772076E0
2.326332656E1;-6.829728603E0;-1.800733566E1;-3.274329424E0
2.327523750E1;-7.028571606E0;-1.583166790E1;2.705831051E0
2.328715000E1;-5.122978687E0;-1.149559689E1;5.751236439E0
2.329906094E1;-3.703609943E0;-8.470474243E0;5.037304878E0
2.331097344E1;-3.088721275E0;-6.934364796E0;2.541205645E0
2.332288438E1;-2.443857431E0;-6.531717300E0;1.371868014E0
2.333479531E1;-1.847442627E0;-7.170911789E0;1.217279196E0
2.334670781E1;-5.859664679E-1;-8.058729172E0;1.670070529E0
2.335861875E1;3.716758788E-1;-8.862597466E0;2.992139101E0
2.337052969E1;1.143317461E0;-9.898577690E0;3.656415224E0
2.338244219E1;1.635565400E0;-1.045013523E1;3.225602627E0
2.339435313E1;2.060641527E0;-1.043121052E1;2.998919725E0
2.340626406E1;2.370556593E0;-9.959668159E0;3.135034561E0
2.341818906E1;2.104350090E0;-9.037115097E0;2.825215578E0
2.343009219E1;2.413508654E0;-8.127194405E0;1.158027500E-1
2.344200000E1;3.426658154E0;-7.089949608E0;-1.483629227E0
2.345391094E1;3.126051664E0;-6.934891701E0;-1.780022025E0
2.346582188E1;2.860668659E0;-7.509404182E0;-1.422328234E0
2.347773438E1;2.580575943E0;-8.378096581E0;-1.236729741E0
2.348964531E1;2.207415819E0;-8.824491501E0;-1.941027164E0
2.350155781E1;2.071396351E0;-8.680762291E0;-2.707899570E0
2.351346875E1;2.275171518E0;-8.513426781E0;-2.772839785E0
2.352537969E1;2.440984488E0;-8.601849556E0;-1.525748134E0
2.353729219E1;2.618366003E0;-9.006507874E0;-9.483911842E-2
2.354920938E1;2.751033545E0;-9.549081802E0;8.605048060E-1
2.356111563E1;3.281923771E0;-1.012303925E1;7.715171576E-1
2.357302656E1;3.579216480E0;-1.020262241E1;-1.396298409E-1
2.358493906E1;3.098173618E0;-9.685388565E0;-7.601207495E-1
2.359685156E1;2.836362839E0;-9.481192589E0;-6.830179095E-1
2.360876250E1;3.581869364E0;-9.704015732E0;-9.303867817E-2
2.362067344E1;4.818014622E0;-9.874128342E0;3.680558503E-1
2.363258438E1;5.999323845E0;-9.680850029E0;7.359871864E-1
2.364449688E1;6.694916248E0;-9.472314835E0;1.128808618E0
2.365640781E1;7.096442223E0;-9.814273834E0;1.554172158E0
2.366831875E1;6.372263908E0;-1.039171696E1;1.317117453E0
2.368023125E1;5.649032593E0;-1.068692207E1;-8.822250366E-1
2.369214375E1;5.893394470E0;-1.130080509E1;-2.348845959E0
2.370405469E1;6.567802906E0;-1.069999409E1;-2.872582197E0
2.371596563E1;5.417379379E0;-9.308560371E0;-2.789742947E0
2.372787812E1;3.954627514E0;-8.761342049E0;-2.941592693E0
2.373978906E1;3.821375847E0;-9.529200554E0;-2.838019848E0
2.375170156E1;4.220709324E0;-1.137166309E1;-2.027840853E0
2.376361250E1;4.789389610E0;-1.374671078E1;-3.654509485E-1
2.377552500E1;3.904205561E0;-1.684223175E1;3.865773976E-1
2.378743594E1;1.184564829E0;-2.061964989E1;-2.404161543E-1
2.379934688E1;-1.907757282E0;-2.423320961E1;-2.471400499E0
2.381125938E1;-4.280564308E0;-2.546769714E1;-2.650706768E0
2.382317031E1;-6.418490887E0;-2.355134964E1;-2.196996212E0
2.383508125E1;-6.082517147E0;-1.882640266E1;-1.923348427E0
2.384699688E1;-3.779055834E0;-1.310992050E1;-2.426753283E0
2.385890469E1;-1.501863480E0;-8.718140602E0;-2.528315067E0
2.387081719E1;-1.243835688E-1;-5.831509113E0;-2.191920519E0
2.388272812E1;1.179000735E0;-4.533659935E0;-1.194677949E0
2.389465312E1;9.309996963E-1;-4.290074348E0;7.861600816E-2
2.390655781E1;6.822612882E-1;-3.727992535E0;1.208698392E0
2.391846250E1;1.765742898E0;-3.268420458E0;1.469656706E0
2.393037500E1;2.966310501E0;-2.854300261E0;1.194419265E0
2.394228594E1;3.529216051E0;-2.869048595E0;1.301679611E0
2.395421875E1;2.827906609E0;-3.490439653E0;1.546673417E0
2.396610781E1;1.115975738E0;-4.776624203E0;1.796110988E0
2.397802031E1;-8.656475693E-2;-5.666807175E0;7.690463066E-1
2.398993281E1;-1.137073398E0;-5.977344513E0;-6.520847976E-2
2.400184375E1;-2.333915710E0;-6.012712002E0;-1.589175314E-1
2.401377188E1;-3.665015221E0;-6.088129520E0;-1.727177054E-1
2.402566719E1;-4.473728657E0;-5.773741722E0;2.654307783E-1
2.403757969E1;-4.615044117E0;-5.088770390E0;1.048353910E0
2.404949062E1;-4.207052708E0;-4.558473587E0;1.834868312E0
2.406140156E1;-2.781909227E0;-4.521267891E0;1.857459903E0
2.407331406E1;-6.182211637E-1;-5.520435333E0;-6.357084215E-2
2.408522500E1;1.251104474E0;-8.029166222E0;-3.123034954E0
2.409713750E1;3.757555962E0;-1.055210876E1;-6.857165813E0
2.410904844E1;1.015563869E1;-1.273024845E1;-1.476681328E1
2.412096094E1;1.898023415E1;-1.586327171E1;-1.475789738E1
2.413287188E1;2.303054428E1;-1.901186752E1;-6.449845314E0
2.414479063E1;1.860768700E1;-1.810777855E1;-1.973396897E0
2.415669531E1;1.188278675E1;-1.334522247E1;-4.078436375E0
2.416860625E1;9.631365776E0;-7.222310543E0;-6.396809101E0
2.418051875E1;7.462621689E0;-5.928398132E0;-2.599183559E0
2.419243281E1;4.545918465E0;-9.799879074E0;5.931873992E-2
2.420434219E1;2.579761982E0;-1.105624104E1;1.519867897E0
2.421625312E1;1.697259188E0;-1.024416733E1;4.387872696E0
2.422816406E1;3.434913456E-1;-1.024302769E1;3.993911505E0
2.424007656E1;1.014183834E-2;-1.186794376E1;1.572138190E0
2.425198906E1;-1.870618582E0;-1.635269356E1;-6.815966606E0
2.426390625E1;-4.367512226E0;-1.925315475E1;-5.076176643E0
2.427581094E1;-4.695652008E0;-1.601262283E1;2.863350391E0
2.428772188E1;-4.363375187E0;-1.079099178E1;4.646983147E0
2.429963438E1;-3.504766703E0;-7.420588970E0;4.040933609E0
2.431155000E1;-2.366170406E0;-5.891096115E0;3.098154545E0
2.432345625E1;-6.616137028E-1;-6.128735065E0;1.370125055E0
2.433536875E1;6.031185985E-1;-7.043061733E0;1.395637631E0
2.434727969E1;7.790349126E-1;-8.370483398E0;2.017249107E0
2.435919219E1;9.087910652E-1;-9.336563110E0;2.815820456E0
2.437110312E1;1.475642323E0;-9.812051773E0;3.610867977E0
2.438302188E1;1.889331579E0;-9.938656807E0;3.562811613E0
2.439493281E1;1.301957250E0;-9.671310425E0;3.287698746E0
2.440683750E1;6.486275792E-1;-9.323270798E0;-1.413421750E0
2.441874844E1;1.152223825E0;-8.507421494E0;-4.422205448E0
2.443067656E1;1.198604345E0;-7.425606728E0;-4.530729771E0
2.444257500E1;1.137312889E0;-6.684486866E0;-2.354754925E0
2.445448438E1;1.268448114E0;-6.965441227E0;-1.282238662E-1
2.446639531E1;1.351833344E0;-7.873456955E0;8.065394759E-1
2.447830781E1;1.830587506E0;-8.500191689E0;8.640099764E-1
2.449021875E1;2.384711266E0;-8.435290337E0;3.235907257E-1
2.450214063E1;2.608214617E0;-8.212284088E0;-2.703245282E-1
2.451404219E1;2.626151800E0;-8.179042816E0;-4.873541296E-1
2.452595312E1;2.266265154E0;-8.395220757E0;-7.353359461E-1
2.453786563E1;1.832100630E0;-8.972864151E0;-1.186824918E0
2.454977813E1;1.564495802E0;-9.619279861E0;-1.101878643E0
2.456168906E1;1.624178648E0;-1.028915787E1;-8.865728974E-1
2.457360000E1;1.927792072E0;-1.045712566E1;-1.004243135E0
2.458551250E1;2.644376755E0;-1.036566830E1;-1.188950896E0
