"Time (s)";"Gyroscope x (rad/s)";"Gyroscope y (rad/s)";"Gyroscope z (rad/s)"
6.150062000E-3;-3.673045337E-1;-5.781053901E-1;1.320167035E-1
1.804381200E-2;1.384046078E-1;-4.886747301E-1;-1.096590385E-1
2.995475000E-2;4.844161272E-1;-3.928561509E-1;-3.332357109E-1
4.186568700E-2;4.833514690E-1;-3.758217394E-1;-3.343003690E-1
5.377818700E-2;2.906496823E-1;-4.737696350E-1;-1.809906363E-1
6.570006200E-2;1.128529906E-1;-5.727821589E-1;-6.387905031E-2
7.760162500E-2;-4.258603230E-2;-6.941523552E-1;1.064650808E-2
8.951256200E-2;-1.160469428E-1;-7.527081370E-1;1.000771821E-1
1.014235000E-1;-1.756673902E-1;-7.303504944E-1;2.097362131E-1
1.133344370E-1;-1.298874021E-1;-7.101221085E-1;2.416757345E-1
1.252469370E-1;5.323254038E-3;-6.611481905E-1;1.575683206E-1
1.371610000E-1;1.341460049E-1;-5.962044597E-1;-8.517206460E-2
1.490703750E-1;1.650208831E-1;-5.812993646E-1;-2.810678184E-1
1.609813120E-1;1.181762442E-1;-6.686007380E-1;-3.768863976E-1
1.728953750E-1;4.045673087E-2;-8.165872097E-1;-3.609166443E-1
1.848047500E-1;-6.387905218E-3;-9.092118144E-1;-2.480636388E-1
1.967156870E-1;1.809906401E-2;-9.262462258E-1;-8.197811246E-2
2.086313120E-1;7.346090674E-2;-8.943067193E-1;5.536184460E-2
2.205406870E-1;1.458571702E-1;-8.272337317E-1;4.152138159E-2
2.324516250E-1;1.799259931E-1;-6.643421054E-1;-9.155996889E-2
2.443641250E-1;1.128529906E-1;-3.779510558E-1;-2.661627233E-1
2.562750620E-1;-3.193952516E-2;-1.927018017E-1;-3.343003690E-1
2.681860000E-1;-2.076069117E-1;-2.235766798E-1;-2.885203660E-1
2.800969370E-1;-3.523994386E-1;-3.598519862E-1;-1.990897059E-1
2.920094370E-1;-3.598519862E-1;-5.120970607E-1;-5.962044746E-2
3.039266250E-1;-2.161241174E-1;-6.941523552E-1;1.415985674E-1
3.158344370E-1;4.152138159E-2;-6.664714217E-1;1.969604045E-1
3.277500620E-1;2.214473784E-1;-6.419844627E-1;9.581857920E-2
3.396547500E-1;2.480636388E-1;-5.610709786E-1;-1.266934574E-1
3.515672500E-1;1.352106631E-1;-4.247956872E-1;-3.438822329E-1
3.634781870E-1;1.596976258E-2;-3.023608327E-1;-4.386361539E-1
3.753938120E-1;-1.234994978E-1;-3.492054641E-1;-3.896622062E-1
3.873016250E-1;-2.395464331E-1;-5.195496082E-1;-2.193180770E-1
3.992125620E-1;-3.811450005E-1;-7.952941656E-1;-9.581857361E-3
4.111250620E-1;-4.748342633E-1;-1.041228533E0;6.813765317E-2
4.230360000E-1;-5.429719090E-1;-1.355300546E0;5.323254038E-3
4.349485000E-1;-6.153681874E-1;-1.538420439E0;-2.352878302E-1
4.468594370E-1;-7.186393142E-1;-1.485187888E0;-5.067738295E-1
4.587735000E-1;-9.155997038E-1;-1.375528932E0;-7.122514248E-1
4.706828750E-1;-1.046551824E0;-1.201990843E0;-7.122514248E-1
4.825953750E-1;-1.134917736E0;-9.784141183E-1;-5.749114752E-1
4.945063120E-1;-1.228607059E0;-6.015277505E-1;-2.981022298E-1
5.064172500E-1;-1.402145147E0;-1.735380888E-1;4.258603230E-2
5.183297500E-1;-1.708764553E0;6.270793676E-1;3.609166443E-1
5.302406870E-1;-2.001543522E0;1.076362014E0;4.588645101E-1
5.421531870E-1;-2.327326775E0;1.392563343E0;2.981022298E-1
5.540656870E-1;-2.602006674E0;1.596976280E0;1.373399645E-1
5.659750620E-1;-2.790449858E0;1.569295287E0;7.559020817E-2
5.778875620E-1;-2.724441528E0;1.200926185E0;6.174974889E-2
5.898110000E-1;-2.469990015E0;9.155997038E-1;6.387905031E-2
6.017110000E-1;-2.017513275E0;9.134704471E-1;3.406882659E-2
6.136219370E-1;-1.505416274E0;1.447925091E0;2.863910794E-1
6.255344370E-1;-7.761304379E-1;5.397779942E-1;3.321710527E-1
6.374453750E-1;-2.416757345E-1;-6.462430358E-1;3.364296556E-1
6.493578750E-1;-3.406882659E-2;-8.325569630E-1;2.981022298E-1
6.612688120E-1;-3.832742944E-2;-3.108780384E-1;2.725506127E-1
6.731813120E-1;-1.937664598E-1;1.788613349E-1;6.920230389E-2
6.850922500E-1;-4.407654405E-1;-1.756673902E-1;-5.067738295E-1
6.970031870E-1;-7.708072066E-1;-6.941523552E-1;-1.236059666E0
7.089266250E-1;-1.071038723E0;7.452555746E-2;-1.375528932E0
7.208406870E-1;-1.410662413E0;1.787548780E0;-9.539271593E-1
7.327375620E-1;-1.685342312E0;3.587873220E0;-1.596976221E-1
7.446485000E-1;-1.682148337E0;3.960501194E0;4.748342633E-1
7.565610000E-1;-1.392563343E0;2.362460136E0;7.580313683E-1
7.684735000E-1;-9.890606403E-1;-1.234994978E-1;8.272337317E-1
7.803844370E-1;-7.378030419E-1;-1.977056623E0;9.134704471E-1
7.922953750E-1;-7.218332887E-1;-1.491575837E0;1.209443331E0
8.042078750E-1;-5.898165703E-1;-9.166643620E-1;1.675760388E0
8.161188120E-1;-3.108780384E-1;-1.209443331E0;2.191051483E0
8.280422500E-1;7.559020817E-2;-1.064650893E0;2.312421560E0
8.399438120E-1;6.675360799E-1;-1.259481907E0;2.073939800E0
8.518531870E-1;1.038034558E0;-1.367011666E0;1.658725977E0
8.637719370E-1;1.214766622E0;-1.650208831E0;1.357429862E0
8.756766250E-1;1.307391286E0;-1.556519508E0;1.095525742E0
8.876000620E-1;1.090202451E0;-1.502222300E0;7.921002507E-1
8.995078750E-1;4.471533597E-1;-1.665113926E0;2.842617631E-1
9.114110000E-1;-1.490511149E-1;-1.223283768E0;-1.809906401E-2
9.233235000E-1;-6.121742129E-1;-8.165872097E-1;-8.517206647E-3
9.352344370E-1;-7.740011811E-1;-1.285033584E0;1.043357849E-1
9.471469370E-1;-6.185621619E-1;-1.839716673E0;2.139948159E-1
9.590578750E-1;-1.011418328E-1;-2.111202717E0;2.650980651E-1
9.709703750E-1;4.120198786E-1;-2.005802155E0;2.044129670E-1
9.828813120E-1;8.027467132E-1;-2.068616629E0;-4.258603323E-3
9.947922500E-1;6.590188742E-1;-2.164435148E0;-2.076069117E-1
1.006715687E0;2.044129670E-1;-2.244283915E0;-1.256287992E-1
1.018615687E0;-1.682148278E-1;-2.202762604E0;2.587101460E-1
1.030528187E0;-3.555933833E-1;-2.232572794E0;6.036570072E-1
1.042439125E0;-3.470761776E-1;-2.182534218E0;6.217560768E-1
1.054351625E0;-2.565808594E-1;-1.962151527E0;4.609938264E-1
1.066265687E0;-2.235766798E-1;-1.821617603E0;4.226663709E-1
1.078175062E0;-1.927018017E-1;-1.763061762E0;4.950626493E-1
1.090087562E0;-2.278352827E-1;-1.966410160E0;6.217560768E-1
1.101996937E0;-3.098133802E-1;-2.231508255E0;7.303504944E-1
1.113909437E0;-4.524766207E-1;-2.462537289E0;7.463202477E-1
1.125820375E0;-6.739239693E-1;-2.459343433E0;5.610709786E-1
1.137732875E0;-8.911127448E-1;-2.203827143E0;4.216017425E-1
1.149642250E0;-1.029517412E0;-1.730057597E0;3.662398756E-1
1.161554750E0;-9.645736814E-1;-1.358494520E0;4.460887015E-1
1.173465687E0;-6.430491209E-1;-1.194538236E0;6.302732825E-1
1.185378187E0;-2.565808594E-1;-1.372334957E0;7.654839754E-1
1.197292250E0;1.203055456E-1;-1.698118091E0;8.591732383E-1
1.209201625E0;3.726277947E-1;-1.846104503E0;7.708072066E-1
1.221112562E0;3.470761776E-1;-1.846104503E0;6.089802980E-1
1.233025062E0;1.841845959E-1;-1.967474699E0;6.164328456E-1
1.244936000E0;6.920230389E-2;-2.115461111E0;6.760532856E-1
1.256846937E0;2.555162087E-2;-2.142077446E0;7.441909313E-1
1.268757875E0;7.133160532E-2;-2.187857389E0;8.570439219E-1
1.280670375E0;2.629687488E-1;-2.358201504E0;9.784141183E-1
1.292582875E0;5.152910352E-1;-2.482765675E0;1.188150287E0
1.304504750E0;6.771179438E-1;-2.669079542E0;1.368076324E0
1.316404750E0;6.611481905E-1;-2.775544643E0;1.385110736E0
1.328317250E0;5.983337760E-1;-2.694631338E0;1.331878185E0
1.340228187E0;4.727049768E-1;-2.275158882E0;1.139176369E0
1.352140687E0;2.438050359E-1;-1.815229654E0;1.000771761E0
1.364051625E0;5.110324174E-2;-1.303132653E0;1.038034558E0
1.375964125E0;-5.429719388E-2;-8.155225515E-1;1.068909407E0
1.387875062E0;-1.011418328E-1;-7.207686305E-1;1.116818786E0
1.399786000E0;-7.452555932E-3;-1.035905242E0;1.239253521E0
1.411698500E0;2.661627233E-1;-1.427696824E0;1.207314014E0
1.423609437E0;4.503473043E-1;-1.554390192E0;1.030582070E0
1.435531312E0;3.630459309E-1;-1.306326628E0;8.900480866E-1
1.447432875E0;5.110324174E-2;-4.929333329E-1;7.527081370E-1
1.459345375E0;-2.885203660E-1;3.587873280E-1;6.749886274E-1
1.471256312E0;-6.536956429E-1;8.432034850E-1;6.302732825E-1
1.483167250E0;-8.101992607E-1;7.708072066E-1;6.622128487E-1
1.495079750E0;-7.729365230E-1;4.184077680E-1;7.367383838E-1
1.506990687E0;-6.398551464E-1;-1.075297371E-1;9.028239250E-1
1.518906312E0;-5.025151968E-1;-7.899709344E-1;9.816080928E-1
1.530814125E0;-3.492054641E-1;-1.241382837E0;8.048760295E-1
1.542737562E0;-2.161241174E-1;-1.140241027E0;7.846476436E-1
1.554637562E0;-1.927018017E-1;-8.559792638E-1;9.241169095E-1
1.566548500E0;-1.980250627E-1;-8.155225515E-1;1.163663387E0
1.578461000E0;-1.288227588E-1;-1.273322463E0;1.550131679E0
1.590371937E0;-6.387905218E-3;-2.061164141E0;1.899337053E0
1.602293812E0;1.213701963E-1;-2.476377964E0;2.036677122E0
1.614195375E0;2.895850241E-1;-2.600941896E0;2.036677122E0
1.626107875E0;4.088259339E-1;-2.597748041E0;1.993026376E0
1.638025062E0;5.248728395E-1;-2.209150553E0;1.882302642E0
1.649931312E0;7.846476436E-1;-1.615075350E0;1.695988774E0
1.661846937E0;9.762848020E-1;-1.054004312E0;1.563972116E0
1.673753187E0;1.011418343E0;-3.907268643E-1;1.469218135E0
1.685664125E0;8.293629885E-1;8.517206460E-2;1.390434027E0
1.697576625E0;4.599291682E-1;4.876100719E-1;1.313779116E0
1.709487562E0;4.471533373E-2;8.751429915E-1;1.155146122E0
1.721420375E0;-3.215245605E-1;1.071038723E0;9.379574060E-1
1.733314125E0;-5.057091713E-1;1.124271274E0;6.654067636E-1
1.745223500E0;-5.504244566E-1;1.199861526E0;2.981022298E-1
1.757134437E0;-5.142263770E-1;1.055068970E0;-2.448697016E-2
1.769045375E0;-4.120198786E-1;6.856351495E-1;-3.140719831E-1
1.780976625E0;-2.086715698E-1;4.045673311E-1;-4.769635797E-1
1.792868812E0;-3.300417587E-2;2.778738737E-1;-4.471533597E-1
1.804787562E0;1.075297371E-1;4.066966176E-1;-3.523994386E-1
1.816692250E0;2.086715698E-1;5.717175007E-1;-3.193952441E-1
1.828603187E0;2.416757345E-1;8.740783334E-1;-4.066966176E-1
1.840532875E0;2.374171317E-1;1.055068970E0;-5.067738295E-1
1.852426625E0;2.161241174E-1;1.045487165E0;-5.440365672E-1
1.864337562E0;1.809906363E-1;9.028239250E-1;-4.897393882E-1
1.876250062E0;1.639562249E-1;9.549918175E-1;-4.460887015E-1
1.888161000E0;1.043357849E-1;1.180697799E0;-3.577226698E-1
1.900073500E0;-9.049531817E-2;1.272257805E0;-1.724734306E-1
1.911987562E0;-2.789385319E-1;1.244576812E0;5.536184460E-2
1.923898500E0;-3.971147537E-1;1.267999172E0;2.949082851E-1
1.935807875E0;-3.960501254E-1;1.114689469E0;4.354421794E-1
1.947720375E0;-2.661627233E-1;7.314151525E-1;5.791700482E-1
1.959631312E0;-1.522450745E-1;5.557477474E-1;5.663942695E-1
1.971543812E0;-1.213701963E-1;4.769635797E-1;4.727049768E-1
1.983461000E0;-1.330813617E-1;4.503473043E-1;3.864682615E-1
1.995365687E0;-1.618269235E-1;6.217560768E-1;2.895850241E-1
2.007278187E0;-2.927789688E-1;7.825183868E-1;1.948311031E-1
2.019189125E0;-4.492826462E-1;6.930876970E-1;5.536184460E-2
2.031107875E0;-5.536184311E-1;7.846476436E-1;-6.813765317E-2
2.043012562E0;-5.983337760E-1;1.025258780E0;-1.128529906E-1
2.054925062E0;-6.292086244E-1;1.193473577E0;-1.011418328E-1
2.066836000E0;-5.919458866E-1;1.258417249E0;-2.022836544E-2
2.078748500E0;-5.025151968E-1;1.504351616E0;3.193952609E-3
2.090661000E0;-5.823640227E-1;2.083521605E0;-8.304276317E-2
2.102570375E0;-9.209229946E-1;2.810678244E0;-1.927018017E-1
2.114487562E0;-1.261611223E0;3.215245485E0;-2.203827202E-1
2.126414125E0;-1.558648825E0;3.346197605E0;-2.906496823E-1
2.138306312E0;-1.666178584E0;3.299352884E0;-3.758217394E-1
2.150215687E0;-1.718346477E0;3.196081877E0;-4.503473043E-1
2.162128187E0;-1.672566414E0;2.808548927E0;-4.354421794E-1
2.174040687E0;-1.499028325E0;2.295387268E0;-4.077612758E-1
2.185951625E0;-1.238188982E0;1.634239078E0;-4.514119625E-1
2.197862562E0;-1.056133628E0;1.233930349E0;-5.536184311E-1
2.209776625E0;-8.794015646E-1;9.400866628E-1;-6.079156399E-1
2.221686000E0;-7.473849058E-1;1.002901077E0;-6.345319152E-1
2.233596937E0;-8.400095105E-1;1.207314014E0;-6.462430358E-1
2.245509437E0;-1.150887609E0;1.501157641E0;-5.759761333E-1
2.257428187E0;-1.490511179E0;1.747092009E0;-5.419072509E-1
2.269331312E0;-1.791807413E0;1.969604015E0;-5.003858805E-1
2.281243812E0;-1.965345502E0;2.193180799E0;-4.567352235E-1
2.293156312E0;-1.909983635E0;2.427403927E0;-4.141491652E-1
2.305067250E0;-1.540549755E0;2.367783546E0;-3.055547774E-1
2.316987562E0;-7.910355926E-1;1.946181774E0;-2.981022373E-2
2.328890687E0;-1.384046115E-2;1.559713483E0;2.810678184E-1
2.340801625E0;4.269249737E-1;1.266934514E0;4.269249737E-1
2.352712562E0;4.982565939E-1;1.113624811E0;3.800803423E-1
2.364625062E0;3.257831633E-1;1.137047052E0;2.725506127E-1
2.376536000E0;3.300417587E-2;1.325490236E0;2.565808594E-1
2.388451625E0;-3.864682615E-1;1.439407945E0;2.949082851E-1
2.400359437E0;-7.026695609E-1;1.347847939E0;2.501929402E-1
2.412270375E0;-8.229750991E-1;1.045487165E0;1.043357849E-1
2.424189125E0;-7.899709344E-1;6.632774472E-1;1.490511186E-2
2.436095375E0;-7.612253428E-1;7.143807411E-1;1.096590385E-1
2.448006312E0;-8.219104409E-1;9.443452954E-1;3.119426966E-1
2.459917250E0;-7.303504944E-1;9.411513209E-1;4.130845368E-1
2.471829750E0;-4.205370843E-1;6.419844627E-1;4.141491652E-1
2.483740687E0;-5.536184460E-2;3.289771080E-1;3.651752472E-1
2.495656312E0;6.813765317E-2;-5.323254038E-3;3.108780384E-1
2.507576625E0;1.203055456E-1;-4.588645101E-1;2.427403927E-1
2.519476625E0;3.044901490E-1;-9.432806373E-1;1.011418328E-1
2.531387562E0;5.238082409E-1;-1.139176369E0;-5.323254317E-2
2.543298500E0;6.462430358E-1;-9.709615707E-1;-1.873785406E-1
2.555212562E0;6.473076940E-1;-5.397779942E-1;-2.299645841E-1
2.567134437E0;5.301961303E-1;8.730136603E-2;-1.671501845E-1
2.579034437E0;3.343003690E-1;8.176518679E-1;-4.684463516E-2
2.590945375E0;2.033483088E-1;1.293550730E0;-1.490511186E-2
2.602857875E0;2.065422684E-1;1.097655058E0;-1.703441329E-2
2.614768812E0;2.746799290E-1;4.003087282E-1;-1.703441329E-2
2.626692250E0;4.205370843E-1;-4.216017425E-1;-3.300417587E-2
2.638592250E0;5.546830893E-1;-9.134704471E-1;-4.897394031E-2
2.650503187E0;5.930105448E-1;-1.067844748E0;1.149822921E-1
2.662415687E0;6.185621619E-1;-1.056133628E0;2.704213262E-1
2.674326625E0;7.154453397E-1;-1.124271274E0;2.629687488E-1
2.686237562E0;8.719490170E-1;-1.183891773E0;2.225120217E-1
2.698150062E0;8.794015646E-1;-1.434084654E0;1.405339092E-1
2.710061000E0;8.059406877E-1;-1.744962692E0;6.068509817E-2
2.721973500E0;7.622900009E-1;-2.081392288E0;1.586329788E-1
2.733907875E0;9.273108840E-1;-2.347555161E0;4.620584548E-1
2.745806312E0;1.143435001E0;-2.229378939E0;7.069281340E-1
2.757707875E0;1.210507989E0;-2.054776192E0;8.719490170E-1
2.769618812E0;1.073168039E0;-2.252801180E0;1.017806172E0
2.781531312E0;8.623671532E-1;-2.839423895E0;1.237124324E0
2.793442250E0;6.249500513E-1;-3.508024454E0;1.407468438E0
2.805362562E0;4.365068376E-1;-3.823161125E0;1.362753034E0
2.817265687E0;1.746027321E-1;-4.070160389E0;1.285033584E0
2.829176625E0;7.771950960E-2;-4.188336372E0;1.203055501E0
2.841089125E0;2.544515431E-1;-3.851906776E0;9.219876528E-1
2.853006312E0;4.854807854E-1;-3.248249769E0;6.590188742E-1
2.864911000E0;5.706528425E-1;-2.743605137E0;5.632002950E-1
2.876823500E0;5.429719090E-1;-2.373106718E0;6.451784372E-1
2.888734437E0;4.737696350E-1;-2.278352737E0;8.847248554E-1
2.900645375E0;4.013733566E-1;-2.480636358E0;1.308455825E0
2.912562562E0;4.450240433E-1;-2.650980473E0;1.424502850E0
2.924470375E0;5.951398015E-1;-2.451890945E0;1.324425697E0
2.936381312E0;5.951398015E-1;-2.063293219E0;1.219025254E0
2.948295375E0;4.375714958E-1;-1.690665483E0;1.209443331E0
2.960204750E0;3.715631366E-1;-1.450054407E0;1.272257805E0
2.972115687E0;3.609166443E-1;-1.403209805E0;1.370205641E0
2.984034437E0;4.056319594E-1;-1.450054407E0;1.456442356E0
2.995939125E0;5.791700482E-1;-1.346783280E0;1.378722787E0
3.007850062E0;8.591732383E-1;-8.911127448E-1;1.043357849E0
3.019762562E0;1.044422507E0;-9.688322991E-2;7.228979468E-1
3.031673500E0;1.124271274E0;5.706528425E-1;4.812221825E-1
3.043586000E0;1.091267109E0;1.124271274E0;2.491282970E-1
3.055496937E0;9.155997038E-1;1.457507014E0;8.623671532E-2
3.067414125E0;5.642649531E-1;1.624657154E0;6.281439960E-2
3.079320375E0;1.149822921E-1;1.534161806E0;1.384046078E-1
3.091231312E0;-2.288999259E-1;1.182827115E0;2.012190074E-1
3.103143812E0;-4.162784815E-1;7.505788207E-1;2.118655145E-1
3.115054750E0;-3.683691919E-1;4.503473043E-1;1.714087874E-1
3.126967250E0;-1.107236892E-1;2.225120217E-1;1.309520602E-1
3.138878187E0;1.288227588E-1;1.980250627E-1;1.490511149E-1
3.150790687E0;2.640334070E-1;2.927789688E-1;1.863138974E-1
3.162709437E0;2.523222566E-1;4.162784815E-1;2.438050359E-1
3.174612562E0;1.032711342E-1;4.311835766E-1;2.406110913E-1
3.186526625E0;-1.490511186E-2;3.470761776E-1;6.707300246E-2
3.198436000E0;-9.262461960E-2;3.236538470E-1;-1.245641485E-1
3.210365687E0;-2.257059813E-1;2.863910794E-1;-2.342231870E-1
3.222265687E0;-3.800803423E-1;2.438050359E-1;-2.949082851E-1
3.234170375E0;-5.206142664E-1;2.608394623E-1;-2.938436270E-1
3.246082875E0;-5.184849501E-1;2.331585288E-1;-3.183306158E-1
3.257993812E0;-2.619041204E-1;2.608394623E-1;-4.375714958E-1
3.269906312E0;6.920230389E-2;2.533869147E-1;-5.397779942E-1
3.281817250E0;3.353650272E-1;2.704213262E-1;-6.909583807E-1
3.293728187E0;4.120198786E-1;3.917915225E-1;-8.730136752E-1
3.305642250E0;3.119426966E-1;6.025923491E-1;-9.933192134E-1
3.317551625E0;4.790928960E-2;8.176518679E-1;-1.064650893E0
3.329468812E0;-1.554390192E-1;9.060178399E-1;-1.171115875E0
3.341375062E0;-2.129301727E-1;8.932420611E-1;-1.236059666E0
3.353286000E0;-1.565036774E-1;8.208457828E-1;-1.272257805E0
3.365198500E0;3.193952609E-3;6.824411750E-1;-1.296744704E0
3.377109437E0;2.406110913E-1;5.589416623E-1;-1.271193147E0
3.389021937E0;4.482180178E-1;4.152138233E-1;-1.178568482E0
3.400932875E0;6.057863235E-1;2.523222566E-1;-1.106172204E0
3.412843812E0;6.505016685E-1;1.277581006E-1;-1.054004312E0
3.424756312E0;5.653296113E-1;2.768092230E-2;-9.975778461E-1
3.436668812E0;4.492826462E-1;0.000000000E0;-9.603150487E-1
3.448579750E0;3.311064243E-1;3.087487444E-2;-9.698969126E-1
3.460490687E0;2.736152709E-1;1.064650863E-1;-1.013547659E0
3.472403187E0;1.927018017E-1;2.757445574E-1;-1.007159710E0
3.484314125E0;8.091346174E-2;4.386361539E-1;-1.008224368E0
3.496226625E0;-5.110324174E-2;5.578770638E-1;-9.997071624E-1
3.508139125E0;-1.905725002E-1;6.568895578E-1;-9.986425042E-1
3.520051625E0;-2.853264213E-1;7.505788207E-1;-9.549918175E-1
3.531961000E0;-2.778738737E-1;7.867769599E-1;-9.113411307E-1
3.543871937E0;-1.469218135E-1;8.591732383E-1;-8.272337317E-1
3.555784437E0;1.064650863E-1;8.964360356E-1;-5.876872540E-1
3.567695375E0;2.555162013E-1;7.750658393E-1;-3.023608327E-1
3.579609437E0;3.247185051E-1;5.216789246E-1;-6.387905218E-3
3.591518812E0;3.012961745E-1;6.707300246E-2;2.821324766E-1
3.603429750E0;2.352878302E-1;-4.386361539E-1;4.524766207E-1
3.615342250E0;1.724734306E-1;-9.070824981E-1;5.525537729E-1
3.627259437E0;1.426632106E-1;-1.014612198E0;5.078384280E-1
3.639165687E0;1.809906363E-1;-8.229750991E-1;3.481408358E-1
3.651076625E0;2.714859545E-1;-4.322482347E-1;1.469218135E-1
3.662987562E0;3.885975480E-1;1.064650863E-1;-3.406882659E-2
3.674900062E0;4.397007823E-1;5.536184311E-1;-1.107236892E-1
3.686826625E0;4.279896319E-1;7.505788207E-1;-8.943066746E-2
3.698723500E0;3.917915225E-1;5.717175007E-1;-6.600835174E-2
3.710634437E0;3.555933833E-1;3.726277873E-2;-9.581857361E-3
3.722545375E0;3.534640670E-1;-6.526309848E-1;2.022836544E-2
3.734457875E0;3.268478215E-1;-1.213701963E0;4.045673087E-2
3.746368812E0;2.267706245E-1;-1.546937704E0;1.011418328E-1
3.758281312E0;1.405339092E-1;-1.802453876E0;1.394692659E-1
3.770192250E0;1.820552945E-1;-2.007931471E0;1.266934574E-1
3.782103187E0;3.343003690E-1;-2.343296528E0;9.688322991E-2
3.794015687E0;4.854807854E-1;-2.712730408E0;5.536184460E-2
3.805926625E0;6.792472601E-1;-2.871363401E0;-9.581857361E-3
3.817837562E0;7.495141625E-1;-2.882009745E0;-5.429719388E-2
3.829750062E0;7.676132321E-1;-2.809613466E0;-6.281439960E-2
3.841661000E0;6.877644658E-1;-2.686114073E0;2.448697016E-2
3.853573500E0;4.343775511E-1;-2.796837807E0;2.597748041E-1
3.865486000E0;4.471533373E-2;-3.058741808E0;6.494370103E-1
3.877396937E0;-2.640334070E-1;-3.174788713E0;1.076362014E0
3.889314125E0;-4.790928662E-1;-2.988474846E0;1.434084654E0
3.901218812E0;-6.015277505E-1;-2.413563490E0;1.524580002E0
3.913131312E0;-5.887519121E-1;-1.423438191E0;1.554390192E0
3.925050062E0;-6.473076940E-1;-9.997071624E-1;1.520321369E0
3.936954750E0;-7.399323583E-1;-1.006095052E0;1.409597754E0
3.948865687E0;-8.272337317E-1;-1.505416274E0;1.375528932E0
3.960778187E0;-7.995527983E-1;-2.308162928E0;1.537355781E0
3.972689125E0;-5.365840197E-1;-3.087487459E0;1.793936610E0
3.984600062E0;-1.458571702E-1;-3.388783693E0;1.921694756E0
3.996512562E0;1.767320335E-1;-3.433498859E0;1.894013882E0
4.008423500E0;3.577226698E-1;-3.241861820E0;1.823746920E0
4.020336000E0;4.343775511E-1;-3.134332180E0;1.826940894E0
4.032246937E0;4.886747301E-1;-3.451597929E0;1.897207856E0
4.044159437E0;5.685235262E-1;-4.046737671E0;2.056905508E0
4.056070375E0;7.260918617E-1;-4.617390633E0;2.232572794E0
4.067982875E0;9.986425042E-1;-4.910169601E0;2.335844040E0
4.079893812E0;1.254158735E0;-4.662106037E0;2.187857389E0
4.091804750E0;1.427696824E0;-3.916850328E0;1.880173326E0
4.103717250E0;1.525644660E0;-3.069388390E0;1.552260876E0
4.115628187E0;1.545873046E0;-2.544515610E0;1.266934514E0
4.127540687E0;1.522450686E0;-2.728700161E0;9.517978430E-1
4.139451625E0;1.552260876E0;-3.226956606E0;5.781053901E-1
4.151362562E0;1.667243242E0;-3.510153770E0;4.790928662E-1
4.163293812E0;1.765191078E0;-3.387718916E0;7.431262732E-1
4.175193812E0;1.788613439E0;-2.981022358E0;9.560564756E-1
4.187096937E0;1.652338147E0;-2.342231750E0;9.624443650E-1
4.199009437E0;1.372334957E0;-1.793936610E0;7.601606846E-1
4.210920375E0;9.635090232E-1;-1.362753034E0;4.173431396E-1
4.222832875E0;6.994755864E-1;-1.294615388E0;5.855579674E-2
4.234743812E0;6.526309848E-1;-1.319102407E0;-3.087487519E-1
4.246654750E0;5.280668139E-1;-1.126400590E0;-7.037342191E-1
4.258567250E0;3.779510558E-1;-8.485267162E-1;-9.805434346E-1
4.270479750E0;-1.703441329E-2;-1.756673902E-1;-1.274387002E0
4.282390687E0;-4.098905623E-1;1.533097178E-1;-1.355300546E0
4.294301625E0;-7.218332887E-1;4.013733566E-1;-1.108301520E0
4.306214125E0;-9.603150487E-1;5.280668139E-1;-6.771179438E-1
4.318125062E0;-9.901252985E-1;3.417529166E-1;-4.003087282E-1
4.330036000E0;-8.985652924E-1;-1.224348471E-1;-2.629687488E-1
4.341948500E0;-7.484495640E-1;-5.387133360E-1;-2.938436270E-1
4.353861000E0;-4.343775511E-1;-8.091346622E-1;-4.886747301E-1
4.365771937E0;-1.266934574E-1;-9.145350456E-1;-6.728593111E-1
4.377682875E0;1.607622802E-1;-9.038885832E-1;-7.431262732E-1
4.389593812E0;4.769635797E-1;-6.898937225E-1;-5.632002950E-1
4.401509437E0;6.419844627E-1;-3.704984784E-1;-2.959729433E-1
4.413418812E0;7.473849058E-1;-1.522450745E-1;-5.216789246E-2
4.425331312E0;8.921774030E-1;-1.234994978E-1;1.298874021E-1
4.437240687E0;1.062521577E0;-7.878416032E-2;1.554390192E-1
4.449153187E0;1.212637305E0;-6.387905031E-2;9.368927032E-2
4.461070375E0;1.322296381E0;-2.448697016E-2;7.665485889E-2
4.472976625E0;1.355300546E0;2.001543641E-1;2.981022373E-2
4.484887562E0;1.336136818E0;5.898165703E-1;5.323254317E-2
4.496798500E0;1.302067995E0;9.571211338E-1;1.586329788E-1
4.508711000E0;1.216895938E0;8.879188299E-1;9.475392103E-2
4.520621937E0;1.094461083E0;6.217560768E-1;-9.368927032E-2
4.532534437E0;9.049532413E-1;4.311835766E-1;-3.630459309E-1
4.544445375E0;5.887519121E-1;5.600063205E-1;-6.047216654E-1
4.556356312E0;2.640334070E-1;9.166643620E-1;-7.186393142E-1
4.568268812E0;-1.213701963E-1;1.393628001E0;-7.974234819E-1
4.580182875E0;-4.418300986E-1;1.636368394E0;-8.495913744E-1
4.592093812E0;-5.152910352E-1;1.695988774E0;-8.314923048E-1
4.604003187E0;-4.460887015E-1;1.464959502E0;-7.143807411E-1
4.615915687E0;-2.821324766E-1;1.219025254E0;-6.558248997E-1
4.627826625E0;-1.085943878E-1;8.921774030E-1;-6.579542160E-1
4.639737562E0;-5.536184460E-2;6.441137791E-1;-6.856351495E-1
4.651650062E0;-6.174974889E-2;5.323254466E-1;-6.962816715E-1
4.663561000E0;-8.304276317E-2;4.567352235E-1;-6.547602415E-1
4.675473500E0;-1.980250627E-1;2.459343374E-1;-5.993984342E-1
4.687384437E0;-3.300417662E-1;-2.129301662E-3;-5.333900452E-1
4.699295375E0;-4.194724262E-1;-1.352106631E-1;-4.535412490E-1
4.711207875E0;-4.886747301E-1;-1.863138974E-1;-3.289771080E-1
4.723118812E0;-4.439594150E-1;-1.352106631E-1;-3.896622062E-1
4.735032875E0;-3.236538470E-1;6.281439960E-2;-5.376486778E-1
4.746942250E0;-2.118655145E-1;3.417529166E-1;-5.291314721E-1
4.758859437E0;-1.234994978E-1;4.120198786E-1;-6.079156399E-1
4.770765687E0;-5.749114603E-2;5.003858805E-1;-6.025923491E-1
4.782676625E0;-3.406882659E-2;4.216017425E-1;-6.132388711E-1
4.794587562E0;-9.688322991E-2;3.098133802E-1;-5.514891148E-1
4.806500062E0;-2.076069117E-1;1.181762442E-1;-3.768863976E-1
4.818411000E0;-3.577226698E-1;-1.171115879E-2;-1.479864717E-1
4.830321937E0;-5.323254466E-1;-4.897394031E-2;5.855579674E-2
4.842234437E0;-5.727821589E-1;7.239625603E-2;1.000771821E-1
4.854145375E0;-4.684463739E-1;2.331585288E-1;8.517206460E-2
4.866057875E0;-3.492054641E-1;4.269249737E-1;1.277581006E-1
4.877968812E0;-2.555162013E-1;4.588645101E-1;9.688322991E-2
4.889893812E0;-2.523222566E-1;4.301189482E-1;7.665485889E-2
4.901792250E0;-3.044901490E-1;4.226663709E-1;6.387905218E-3
4.913704750E0;-3.225892186E-1;3.353650272E-1;-8.091346174E-2
4.925615687E0;-2.576455176E-1;1.692794859E-1;-1.650208831E-1
4.937534437E0;-1.980250627E-1;1.490511186E-2;-1.181762442E-1
4.949439125E0;-1.884431988E-1;-1.213701963E-1;-8.730136603E-2
4.961351625E0;-2.001543641E-1;-4.152138159E-2;-2.342231758E-2
4.973262562E0;-2.661627233E-1;9.581857920E-2;9.901253134E-2
4.985173500E0;-4.152138159E-2;8.474620581E-1;5.206142664E-1
4.997086000E0;2.469989955E-1;8.219104409E-1;8.751429915E-1
5.009004750E0;7.878416032E-2;2.789385319E-1;6.707300544E-1
5.020909437E0;-3.864682615E-1;2.448697016E-2;8.623671532E-2
5.032820375E0;-4.758989215E-1;4.024380147E-1;-2.682920098E-1
5.044732875E0;-4.056319594E-1;9.155997038E-1;-4.939979911E-1
5.056645375E0;-4.599291682E-1;1.225413084E0;-4.641877711E-1
5.068564125E0;-5.216789246E-1;1.297809362E0;-2.480636388E-1
5.080467250E0;-3.960501254E-1;1.090202451E0;2.129301615E-2
5.092378187E0;-2.533869147E-1;6.611481905E-1;2.352878302E-1
5.104290687E0;-2.895850241E-1;4.226663709E-1;3.949854672E-1
5.116218812E0;-2.682920098E-1;5.270021558E-1;4.609938264E-1
5.128112562E0;-2.044129670E-1;4.311835766E-1;7.143807411E-1
5.140025062E0;-2.480636388E-1;-5.930105448E-1;1.499028325E0
5.151936000E0;-3.247185051E-1;-2.583907604E0;2.612653255E0
5.163848500E0;-2.416757345E-1;-4.497085094E0;3.411141396E0
5.175759437E0;-4.471533373E-2;-6.335737228E0;3.877458334E0
5.187671937E0;2.054776102E-1;-7.892256737E0;4.029703617E0
5.199589125E0;6.324025989E-1;-4.735567093E0;3.733730555E0
5.211493812E0;1.879108787E0;-1.050810337E0;3.134332180E0
5.223406312E0;3.182241440E0;-1.468153477E0;3.121556282E0
5.235317250E0;3.921108961E0;-2.059034824E0;3.429240465E0
5.247231312E0;4.122328281E0;-2.247478008E0;3.432434320E0
5.259140687E0;3.259960890E0;-2.045194149E0;2.985280991E0
5.271051625E0;1.387240052E0;-1.876979470E0;2.273029566E0
5.282964125E0;-7.537727952E-1;-1.500092983E0;1.859945059E0
5.294881312E0;-1.445795894E0;-4.013733566E-1;2.064357996E0
5.306786000E0;-8.549146056E-1;6.451784372E-1;2.355007648E0
5.318698500E0;3.236538470E-1;1.199861526E0;2.205956459E0
5.330612562E0;1.056133628E0;1.068909407E0;1.901466370E0
5.342520375E0;1.215831280E0;6.228207350E-1;1.700247407E0
5.354459437E0;1.050810337E0;5.142263770E-1;1.621463180E0
5.366345375E0;8.581085801E-1;7.228979468E-1;1.427696824E0
5.378259437E0;6.600835323E-1;6.813765168E-1;1.296744704E0
5.390167250E0;5.429719090E-1;2.565808594E-1;1.390434027E0
5.402079750E0;5.706528425E-1;-2.182534188E-1;1.764126420E0
5.413990687E0;6.792472601E-1;-5.706528425E-1;2.429533243E0
5.425903187E0;8.038113713E-1;-8.251044154E-1;3.288706541E0
5.437815687E0;9.017592669E-1;-9.879959822E-1;3.842324972E0
5.449726625E0;8.985652924E-1;-1.045487165E0;4.136168480E0
5.461637562E0;7.889062762E-1;-6.686007380E-1;4.060578346E0
5.473554750E0;6.888290644E-1;-5.110324174E-2;3.725213289E0
5.485459437E0;6.579542160E-1;8.378801942E-1;3.272736788E0
5.497371937E0;7.399323583E-1;1.671501875E0;2.971440554E0
5.509284437E0;9.028239250E-1;2.565808535E0;2.646722078E0
5.521195375E0;9.997071624E-1;3.250379086E0;2.101620674E0
5.533109437E0;9.038885832E-1;3.475020409E0;1.084879160E0
5.545018812E0;7.761304379E-1;3.300417662E0;9.262461960E-2
5.556929750E0;5.174202919E-1;2.780868053E0;-8.378801942E-1
5.568842250E0;2.672273517E-1;2.127172470E0;-1.189214945E0
5.580753187E0;1.501157731E-1;1.346783280E0;-1.052939653E0
5.592682875E0;1.479864717E-1;7.143807411E-1;-8.219104409E-1
5.604576625E0;1.724734306E-1;8.197811246E-2;-5.919458866E-1
5.616487562E0;2.086715698E-1;-7.016049027E-1;-3.172659576E-1
5.628400062E0;2.054776102E-1;-1.238188982E0;-1.000771821E-1
5.640311000E0;1.543743759E-1;-1.327619553E0;-2.235766686E-2
5.652225062E0;1.064650808E-2;-7.016049027E-1;-2.235766686E-2
5.664134437E0;-8.943066746E-2;1.799259931E-1;-2.448697016E-2
5.676045375E0;3.619812801E-2;6.515663266E-1;-7.026695460E-2
5.687962562E0;2.565808594E-1;6.547602415E-1;-8.943066746E-2
5.699868812E0;4.279896319E-1;4.152138233E-1;-2.981022373E-2
5.711781312E0;4.439594150E-1;1.309520602E-1;-1.171115879E-2
5.723693812E0;3.587873280E-1;-1.841845959E-1;-5.323254038E-3
5.735603187E0;2.288999259E-1;-3.545287251E-1;9.581857361E-3
5.747515687E0;1.117883399E-1;-3.396236300E-1;3.087487444E-2
5.759426625E0;7.984881103E-2;-1.788613349E-1;3.300417587E-2
5.771337562E0;9.049531817E-2;6.281439960E-2;5.536184460E-2
5.783250062E0;1.266934574E-1;3.566580415E-1;9.475392103E-2
5.795161000E0;1.863138974E-1;5.035798550E-1;1.139176413E-1
5.807079750E0;2.416757345E-1;5.759761333E-1;1.075297371E-1
5.818984437E0;2.885203660E-1;5.844933391E-1;2.235766686E-2
5.830896937E0;3.098133802E-1;6.600835323E-1;-8.730136603E-2
5.842807875E0;3.193952441E-1;8.485267162E-1;-2.139948159E-1
5.854718812E0;3.066194355E-1;9.911899567E-1;-3.119426966E-1
5.866631312E0;2.299645841E-1;1.120012641E0;-3.523994386E-1
5.878542250E0;1.149822921E-1;1.127465248E0;-2.885203660E-1
5.890461000E0;-5.323254038E-3;1.107236862E0;-1.863138974E-1
5.902365687E0;-1.703441329E-2;1.277580976E0;-1.628915817E-1
5.914276625E0;2.022836544E-2;1.443666577E0;-2.320938855E-1
5.926189125E0;9.581857361E-3;1.331878185E0;-3.513347805E-1
5.938101625E0;-4.365068302E-2;1.187085629E0;-2.800031602E-1
5.950017250E0;-2.768092230E-2;1.178568482E0;-1.863138974E-1
5.961923500E0;4.790928960E-2;1.047616482E0;-1.320167035E-1
5.973836000E0;6.707300246E-2;7.282211781E-1;-9.049531817E-2
5.985746937E0;2.555162087E-2;4.546059072E-1;-3.619812801E-2
5.997661000E0;-1.277581044E-2;2.831971347E-1;-1.384046115E-2
6.009575062E0;-1.064650831E-3;3.449468613E-1;2.555162087E-2
6.021482875E0;3.726277873E-2;4.418300986E-1;4.790928960E-2
6.033393812E0;9.581857920E-2;5.238082409E-1;5.536184460E-2
6.045304750E0;1.628915817E-1;5.653296113E-1;5.536184460E-2
6.057217250E0;2.512575984E-1;5.376486778E-1;7.133160532E-2
6.069143812E0;4.152138233E-1;2.395464331E-1;8.836601675E-2
6.081046937E0;5.089030862E-1;-3.939208016E-2;8.623671532E-2
6.092951625E0;4.939979911E-1;-2.587101460E-1;3.832742944E-2
6.104862562E0;3.704984784E-1;-2.895850241E-1;-1.490511186E-2
6.116775062E0;2.789385319E-1;-1.831199378E-1;1.703441329E-2
6.128686000E0;2.704213262E-1;-5.323254317E-2;6.281439960E-2
6.140600062E0;3.268478215E-1;5.323254038E-3;9.155996889E-2
6.152509437E0;2.608394623E-1;8.091346174E-2;7.133160532E-2
6.164420375E0;1.192408949E-1;1.628915817E-1;6.281439960E-2
6.176332875E0;1.692794859E-1;6.600835174E-2;7.665485889E-2
6.188248500E0;3.215245605E-1;-4.684463516E-2;9.155996889E-2
6.200156312E0;4.982565939E-1;-1.863138974E-1;1.565036774E-1
6.212067250E0;7.473849058E-1;-5.291314721E-1;2.086715698E-1
6.223978187E0;9.837373495E-1;-1.107236862E0;2.395464331E-1
6.235890687E0;1.034840584E0;-1.636368394E0;2.778738737E-1
6.247823500E0;8.708843589E-1;-1.798195243E0;3.822096586E-1
6.259714125E0;6.611481905E-1;-1.555454850E0;5.610709786E-1
6.271625062E0;5.791700482E-1;-1.176439166E0;7.590960264E-1
6.283537562E0;6.313379407E-1;-9.400866628E-1;7.825183868E-1
6.295448500E0;7.590960264E-1;-8.229750991E-1;6.654067636E-1
6.307364125E0;9.155997038E-1;-7.665486336E-1;6.089802980E-1
6.319278187E0;9.730908871E-1;-6.100449562E-1;6.143035293E-1
6.331184437E0;9.517978430E-1;-2.555162013E-1;6.686007380E-1
6.343093812E0;9.262462258E-1;9.688322991E-2;7.569667697E-1
6.355006312E0;8.453327417E-1;3.673045337E-1;7.314151525E-1
6.366917250E0;7.995527983E-1;4.035026729E-1;7.005402446E-1
6.378829750E0;8.080700040E-1;2.565808594E-1;6.781826019E-1
6.390740687E0;8.527853489E-1;4.045673087E-2;6.047216654E-1
6.402651625E0;8.038113713E-1;-1.139176413E-1;4.929333329E-1
6.414564125E0;5.632002950E-1;9.581857361E-3;3.502701223E-1
6.426482875E0;1.607622802E-1;6.238853931E-1;2.161241174E-1
6.438390687E0;-3.864682615E-1;1.765191078E0;-4.684463516E-2
6.450307875E0;-9.273108840E-1;2.355007648E0;-3.960501254E-1
6.462211000E0;-1.302067995E0;1.406403780E0;-6.260147095E-1
6.474121937E0;-1.743898034E0;2.427403927E-1;-7.654839754E-1
6.486037562E0;-2.098426819E0;-2.810678184E-1;-8.474620581E-1
6.497945375E0;-2.411434174E0;-1.341460049E-1;-8.804662228E-1
6.509857875E0;-2.780868053E0;6.025923491E-1;-8.378801942E-1
6.521776625E0;-3.084293365E0;1.278645635E0;-7.537727952E-1
6.533679750E0;-3.276995182E0;1.523515344E0;-6.579542160E-1
6.545614125E0;-3.424981833E0;1.520321369E0;-6.068509817E-1
6.557507875E0;-3.594261169E0;1.277580976E0;-5.993984342E-1
6.569415687E0;-3.624071360E0;7.186393142E-1;-5.770407319E-1
6.581326625E0;-3.424981833E0;-8.943066746E-2;-5.600063205E-1
6.593237562E0;-3.022543669E0;-7.761304379E-1;-5.812993646E-1
6.605168812E0;-2.525351763E0;-1.109366179E0;-6.334672570E-1
6.617061000E0;-2.064357996E0;-1.024194121E0;-7.250272036E-1
6.628971937E0;-1.672566414E0;-3.279124498E-1;-9.049532413E-1
6.640882875E0;-1.809906483E0;1.933405876E0;-1.101913571E0
6.652795375E0;-2.379494667E0;4.517313480E0;-1.272257805E0
6.664714125E0;-2.488089085E0;4.722791195E0;-1.327619553E0
6.676621937E0;-2.417822123E0;4.082935810E0;-1.356365204E0
6.688531312E0;-2.172952414E0;3.127944231E0;-1.387240052E0
6.700445375E0;-1.825876236E0;2.315615654E0;-1.434084654E0
6.712353187E0;-1.408533096E0;1.723669767E0;-1.510739565E0
6.724265687E0;-1.017806172E0;1.306326628E0;-1.565036774E0
6.736176625E0;-6.739239693E-1;9.006946087E-1;-1.584200501E0
6.748089125E0;-3.811450005E-1;5.227435827E-1;-1.581006527E0
6.760000062E0;-2.374171317E-1;2.959729433E-1;-1.530967951E0
6.771911000E0;-2.363524884E-1;4.897394031E-2;-1.371270299E0
6.783823500E0;-3.193952441E-1;-2.448696941E-1;-1.131723881E0
6.795742250E0;-4.673817158E-1;-6.803118587E-1;-8.016820550E-1
6.807645375E0;-5.142263770E-1;-1.033775926E0;-4.822868407E-1
6.819557875E0;-3.683691919E-1;-1.130659223E0;-2.384817898E-1
6.831468812E0;-1.447925121E-1;-9.528625011E-1;-1.245641485E-1
6.843379750E0;3.193952609E-3;-6.547602415E-1;-2.768092230E-2
6.855292250E0;1.330813617E-1;-2.416757345E-1;4.258603230E-2
6.867203187E0;2.938436270E-1;4.152138159E-2;1.000771821E-1
6.879114125E0;5.163556337E-1;1.533097178E-1;2.342231870E-1
6.891026625E0;7.367383838E-1;1.043357849E-1;4.258603454E-1
6.902939125E0;9.187936783E-1;5.003859103E-2;5.855579376E-1
6.914854750E0;1.080620646E0;1.394692659E-1;6.930876970E-1
6.926762562E0;1.144499660E0;3.321710527E-1;7.101221085E-1
6.938673500E0;1.065715432E0;4.098905623E-1;7.143807411E-1
6.950584437E0;9.326341152E-1;3.023608327E-1;7.441909313E-1
6.962503187E0;7.612253428E-1;3.523994386E-1;6.696653962E-1
6.974420375E0;5.600063205E-1;7.367383838E-1;5.333900452E-1
6.986320375E0;3.907268643E-1;1.044422507E0;2.917143404E-1
6.998232875E0;3.374943137E-1;1.160469413E0;3.300417587E-2
7.010143812E0;3.726277947E-1;1.203055501E0;-2.917143404E-1
7.022056312E0;3.289771080E-1;1.267999172E0;-5.653296113E-1
7.033973500E0;1.671501845E-1;1.413856268E0;-6.824411750E-1
7.045878187E0;6.600835174E-2;1.332942843E0;-6.068509817E-1
7.057790687E0;1.469218135E-1;8.666257858E-1;-3.385589719E-1
7.069701625E0;4.279896319E-1;2.384817898E-1;1.458571702E-1
7.081612562E0;6.962816715E-1;2.629687488E-1;4.077612758E-1
7.093525062E0;8.527853489E-1;3.215245605E-1;6.132388711E-1
7.105436000E0;8.719490170E-1;1.064650863E-1;7.590960264E-1
7.117350062E0;7.399323583E-1;-3.406882659E-2;8.112639189E-1
7.129259437E0;4.450240433E-1;1.224348471E-1;8.038113713E-1
7.141170375E0;4.258603454E-1;2.342231758E-2;8.783369660E-1
7.153089125E0;5.376486778E-1;-3.513347730E-2;1.012483001E0
7.164993812E0;6.089802980E-1;1.309520602E-1;1.113624811E0
7.176904750E0;6.345319152E-1;5.589416623E-1;1.226477742E0
7.188817250E0;6.813765168E-1;8.975006342E-1;1.238188982E0
7.200736000E0;8.794015646E-1;6.153681874E-1;1.182827115E0
7.212640687E0;1.228607059E0;-2.555162013E-1;1.095525742E0
7.224551625E0;1.448989749E0;-8.634318113E-1;1.061456919E0
7.236462562E0;1.500092983E0;-6.387904882E-1;9.879959822E-1
7.248375062E0;1.354235888E0;1.007159710E0;8.112639189E-1
7.260286000E0;1.133853197E0;2.662691832E0;5.578770638E-1
7.272203187E0;9.507331848E-1;3.169465542E0;3.364296556E-1
7.284109437E0;7.910355926E-1;3.087487459E0;1.937664598E-1
7.296021937E0;6.930876970E-1;2.449761629E0;1.533097178E-1
7.307932875E0;6.387904882E-1;1.458571672E0;2.001543641E-1
7.319843812E0;5.962044597E-1;4.769635797E-1;2.842617631E-1
7.331757875E0;5.674588680E-1;-1.054004356E-1;3.502701223E-1
7.343667250E0;5.802347064E-1;-4.854807854E-1;3.577226698E-1
7.355579750E0;6.377258301E-1;-7.867769599E-1;3.311064243E-1
7.367490687E0;7.207686305E-1;-1.191344261E0;2.917143404E-1
7.379401625E0;7.580313683E-1;-1.425567508E0;2.469989955E-1
7.391314125E0;7.761304379E-1;-1.552260876E0;2.118655145E-1
7.403225062E0;7.867769599E-1;-1.589523673E0;2.427403927E-1
7.415137562E0;7.931648493E-1;-1.559713483E0;2.927789688E-1
7.427050062E0;7.921002507E-1;-1.425567508E0;3.577226698E-1
7.438961000E0;7.686778903E-1;-1.227542400E0;3.715631366E-1
7.450871937E0;7.346090674E-1;-9.741555452E-1;3.651752472E-1
7.462784437E0;7.111867666E-1;-6.004630923E-1;3.758217394E-1
7.474695375E0;7.378030419E-1;-9.794788063E-2;3.907268643E-1
7.486606312E0;8.261690736E-1;4.407654405E-1;3.917915225E-1
7.498518812E0;9.070824981E-1;8.070053458E-1;3.939208090E-1
7.510431312E0;9.273108840E-1;1.010353684E0;4.088259339E-1
7.522342250E0;8.432034850E-1;1.066780090E0;3.875329196E-1
7.534253187E0;6.835058331E-1;1.077426672E0;3.087487519E-1
7.546165687E0;5.014505386E-1;1.353171229E0;1.586329788E-1
7.558082875E0;3.257831633E-1;2.355007648E0;-7.984881103E-2
7.569987562E0;3.193952516E-2;3.289771080E0;-4.769635797E-1
7.581900062E0;-2.406110913E-1;2.828777313E0;-8.751429915E-1
7.593811000E0;-5.025151968E-1;1.388304710E0;-1.236059666E0
7.605723500E0;-7.686778903E-1;-1.415985674E-1;-1.542679071E0
7.617634437E0;-1.180697799E0;-4.066966176E-1;-1.796065927E0
7.629554750E0;-1.783290148E0;1.231801033E0;-1.855686426E0
7.641457875E0;-2.312421560E0;2.636075497E0;-1.817358971E0
7.653368812E0;-2.592424870E0;3.066194534E0;-1.833328724E0
7.665281312E0;-2.630752325E0;2.867104769E0;-1.908918977E0
7.677195375E0;-2.477442503E0;2.085650921E0;-1.879108787E0
7.689103187E0;-2.177211046E0;9.177290201E-1;-1.744962692E0
7.701015687E0;-1.690665483E0;-7.420616150E-1;-1.538420439E0
7.712926625E0;-1.216895938E0;-2.048388243E0;-1.335072160E0
7.724839125E0;-8.314923048E-1;-2.615847111E0;-1.197732210E0
7.736756312E0;-8.293629885E-1;-2.415692806E0;-1.183891773E0
7.748673500E0;-1.166857362E0;-2.027095318E0;-1.281839609E0
7.760573500E0;-1.389369369E0;-1.750285983E0;-1.308455825E0
7.772484437E0;-1.343589306E0;-1.633174419E0;-1.255223393E0
7.784395375E0;-1.231801033E0;-1.397886515E0;-1.213701963E0
7.796334437E0;-1.302067995E0;-9.698969126E-1;-1.285033584E0
7.808218812E0;-1.501157641E0;-3.289771080E-1;-1.487317204E0
7.820129750E0;-1.565036774E0;7.665485889E-2;-1.674695730E0
7.832042250E0;-1.377658129E0;6.111095548E-1;-1.871656179E0
7.843953187E0;-1.060392261E0;9.805434346E-1;-1.955763578E0
7.855868812E0;-8.634318113E-1;1.146628976E0;-1.821617603E0
7.867776625E0;-7.431262732E-1;9.422159791E-1;-1.544808388E0
7.879689125E0;-6.856351495E-1;2.661627233E-1;-1.245641470E0
7.891600062E0;-6.238853931E-1;-5.184849501E-1;-1.047616482E0
7.903512562E0;-4.982565939E-1;-1.025258780E0;-8.644964695E-1
7.915431312E0;-3.641105890E-1;-1.242447495E0;-6.505016685E-1
7.927336000E0;-2.054776102E-1;-1.327619553E0;-4.077612758E-1
7.939246937E0;-8.304276317E-2;-1.247770786E0;-2.054776102E-1
7.951157875E0;3.406882659E-2;-9.198583364E-1;-3.193952609E-3
7.963070375E0;1.692794859E-1;-7.069281340E-1;1.916371584E-1
7.974987562E0;3.747570813E-1;-6.079156399E-1;3.896622062E-1
7.986914125E0;5.983337760E-1;-5.589416623E-1;5.876872540E-1
7.998804750E0;8.123285770E-1;-4.577998519E-1;7.835830450E-1
8.010717250E0;1.030582070E0;-2.108008713E-1;9.773494601E-1
8.022628187E0;1.176439166E0;-7.452555746E-2;1.100848913E0
8.034539125E0;1.131723881E0;-2.448696941E-1;1.159404755E0
8.046451625E0;8.719490170E-1;-3.098133802E-1;1.010353684E0
8.058362562E0;2.469989955E-1;-2.831971347E-1;4.993212521E-1
8.070275062E0;-4.365068302E-2;1.032711342E-1;-1.692794859E-1
8.082186000E0;7.878416032E-2;8.591732383E-1;-7.612253428E-1
8.094104750E0;1.256287992E-1;1.279710293E0;-7.271565199E-1
8.106009437E0;-1.277581006E-1;1.301003337E0;-4.546059072E-1
8.117920375E0;-3.215245605E-1;9.720262289E-1;-3.257831633E-1
8.129832875E0;-2.448697016E-2;4.343775511E-1;-2.970375717E-1
8.141743812E0;4.577998519E-1;-2.395464331E-1;-2.182534188E-1
8.153656312E0;7.239625454E-1;-1.139176369E0;2.874557301E-2
8.165567250E0;8.762076497E-1;-1.819488287E0;4.109552205E-1
8.177495375E0;8.070053458E-1;-1.839716673E0;8.676904440E-1
8.189390687E0;4.365068376E-1;-1.364882350E0;1.228607059E0
8.201301625E0;1.809906401E-2;-6.462430358E-1;1.397886515E0
8.213212562E0;-4.801575243E-1;5.706528425E-1;1.579941869E0
8.225126625E0;-7.463202477E-1;1.957892895E0;1.652338147E0
8.237036000E0;-3.587873280E-1;2.390141249E0;1.570359945E0
8.248948500E0;4.418300986E-1;1.836522698E0;1.518192053E0
8.260859437E0;1.280774951E0;5.781053901E-1;1.469218135E0
8.272771937E0;1.913177609E0;-7.271565199E-1;1.447925091E0
8.284682875E0;2.282611370E0;-1.600170255E0;1.484123230E0
8.296593812E0;2.370977402E0;-1.879108787E0;1.496899128E0
8.308506312E0;2.159111977E0;-6.015277505E-1;1.354235888E0
8.320417250E0;1.616140008E0;2.895850182E0;9.741555452E-1
8.332346937E0;1.220089912E0;3.994570017E0;6.228207350E-1
8.344248500E0;8.868541718E-1;3.761411428E0;4.184077680E-1
8.356151625E0;5.706528425E-1;2.734023333E0;4.865454435E-1
8.368062562E0;3.747570813E-1;1.735380888E0;7.079927921E-1
8.379975062E0;3.555933833E-1;8.006174564E-1;9.081471562E-1
8.391890687E0;5.663942695E-1;3.545287251E-1;8.879188299E-1
8.403798500E0;7.963588238E-1;7.452555932E-3;7.622900009E-1
8.415711000E0;9.698969126E-1;-5.461658835E-1;6.451784372E-1
8.427621937E0;1.063586235E0;-1.088073134E0;5.993984342E-1
8.439534437E0;1.114689469E0;-1.375528932E0;5.962044597E-1
8.451451625E0;1.111495495E0;-1.217960596E0;6.281439662E-1
8.463364125E0;1.079555988E0;-8.804662228E-1;7.026695609E-1
8.475268812E0;1.003965735E0;-5.738468170E-1;7.910355926E-1
8.487179750E0;8.964360356E-1;-5.387133360E-1;8.730136752E-1
8.499092250E0;8.197811246E-1;-7.218332887E-1;8.804662228E-1
8.511003187E0;7.867769599E-1;-8.804662228E-1;8.368155360E-1
8.522915687E0;7.942295074E-1;-8.911127448E-1;7.676132321E-1
8.534826625E0;8.389448524E-1;-7.090574503E-1;7.409969568E-1
8.546737562E0;9.209229946E-1;-3.076840937E-1;7.378030419E-1
8.558650062E0;9.603150487E-1;3.715631366E-1;7.303504944E-1
8.570561000E0;8.570439219E-1;1.009289026E0;7.260918617E-1
8.582473500E0;5.663942695E-1;1.258417249E0;6.228207350E-1
8.594384437E0;2.299645841E-1;1.172180533E0;4.482180178E-1
8.606295375E0;-1.533097178E-1;1.081685305E0;2.033483088E-1
8.618207875E0;-4.577998519E-1;1.089137793E0;-8.517206647E-3
8.630121937E0;-6.441137791E-1;1.090202451E0;-1.405339092E-1
8.642031312E0;-8.336216211E-1;1.222219110E0;-2.650980651E-1
8.653942250E0;-1.060392261E0;1.299938679E0;-4.386361539E-1
8.665853187E0;-1.355300546E0;1.042293191E0;-8.272337317E-1
8.677765687E0;-1.625721812E0;5.291314721E-1;-1.476670742E0
8.689676625E0;-1.797130585E0;-1.405339092E-1;-2.027095318E0
8.701589125E0;-1.875914812E0;-6.345319152E-1;-2.391205788E0
8.713500062E0;-2.018578053E0;-3.768863976E-1;-2.708471775E0
8.725411000E0;-2.212344408E0;7.686778903E-1;-2.757445574E0
8.737323500E0;-2.152724028E0;1.325490236E0;-2.559420586E0
8.749234437E0;-1.802453876E0;8.016820550E-1;-2.276223421E0
8.761146937E0;-1.439407945E0;2.714859545E-1;-1.885496616E0
8.773057875E0;-1.100848913E0;-8.943066746E-2;-1.419179559E0
8.784968812E0;-8.282983303E-1;-2.076069117E-1;-1.104042888E0
8.796881312E0;-6.111095548E-1;-6.068509817E-2;-9.720262289E-1
8.808795375E0;-6.888290644E-1;6.813765317E-2;-1.085943818E0
8.820704750E0;-9.571211338E-1;2.129301662E-3;-1.295680046E0
8.832615687E0;-1.094461083E0;-4.460887015E-1;-1.496899128E0
8.844526625E0;-1.039099216E0;-1.123206615E0;-1.651273489E0
8.856439125E0;-9.390220642E-1;-1.560778141E0;-1.767320395E0
8.868350062E0;-9.113411307E-1;-1.677889705E0;-1.856751084E0
8.880273500E0;-9.060178399E-1;-1.604428768E0;-1.899337053E0
8.892173500E0;-8.485267162E-1;-1.233930349E0;-1.871656179E0
8.904084437E0;-7.218332887E-1;-8.527853489E-1;-1.759867787E0
8.915996937E0;-5.451012254E-1;-5.546830893E-1;-1.525644660E0
8.927909437E0;-4.013733566E-1;-4.024380147E-1;-1.239253521E0
8.939829750E0;-2.949082851E-1;-3.460115194E-1;-9.305048585E-1
8.951731312E0;-2.949082851E-1;-5.035798550E-1;-7.101221085E-1
8.963642250E0;-3.577226698E-1;-8.538499475E-1;-5.461658835E-1
8.975554750E0;-3.768863976E-1;-1.216895938E0;-4.088259339E-1
8.987465687E0;-2.459343374E-1;-1.388304710E0;-2.789385319E-1
8.999378187E0;-2.235766686E-2;-1.273322463E0;-1.458571702E-1
9.011290687E0;2.161241174E-1;-1.006095052E0;2.129301615E-2
9.023201625E0;4.301189482E-1;-6.824411750E-1;2.501929402E-1
9.035114125E0;6.132388711E-1;-4.216017425E-1;4.961272776E-1
9.047028187E0;8.219104409E-1;-2.033483088E-1;7.324797511E-1
9.058943812E0;1.047616482E0;-3.193952609E-3;9.198583364E-1
9.070846937E0;1.278645635E0;2.746799290E-1;1.083814502E0
9.082759437E0;1.389369369E0;6.036570072E-1;1.161534071E0
9.094670375E0;1.228607059E0;7.644193172E-1;1.199861526E0
9.106582875E0;4.961272776E-1;4.226663709E-1;1.127465248E0
9.118493812E0;-5.046445131E-1;-2.693566680E-1;7.495141625E-1
9.130406312E0;-7.207686305E-1;-5.025151968E-1;-7.346090674E-2
9.142317250E0;-4.045673087E-2;2.384817898E-1;-8.932420611E-1
9.154228187E0;1.320167035E-1;1.413856268E0;-1.497963786E0
9.166140687E0;-4.088259339E-1;1.499028325E0;-1.479864717E0
9.178065687E0;-5.270021558E-1;9.422159791E-1;-1.084879160E0
9.189964125E0;4.684463516E-2;1.916371584E-1;-2.970375717E-1
9.201875062E0;6.920230389E-1;-3.406882659E-2;2.693566680E-1
9.213787562E0;1.049745679E0;-3.428175747E-1;8.112639189E-1
9.225698500E0;1.357429862E0;-1.330813527E0;1.278645635E0
9.237609437E0;1.393628001E0;-2.298581123E0;1.586329699E0
9.249520375E0;1.129594564E0;-2.630752325E0;1.480929375E0
9.261432875E0;5.834286809E-1;-1.954698920E0;1.133853197E0
9.273343812E0;-1.128529906E-1;-5.962044746E-2;9.049532413E-1
9.285254750E0;-4.854807854E-1;1.711958528E0;9.656383395E-1
9.297167250E0;-3.960501254E-1;2.720182896E0;1.100848913E0
9.309079750E0;2.044129670E-1;2.128237009E0;1.264805198E0
9.320990687E0;1.097655058E0;1.426632106E-1;1.462830305E0
9.332901625E0;1.743898034E0;-1.812035680E0;1.448989749E0
9.344820375E0;2.019642591E0;-3.085358143E0;1.405339122E0
9.356725062E0;2.043065071E0;-3.391977549E0;1.368076324E0
9.368636000E0;1.952569604E0;-2.793643713E0;1.237124324E0
9.380548500E0;1.757738590E0;-7.473849058E-1;9.997071624E-1
9.392459437E0;1.585265160E0;3.395171642E0;7.303504944E-1
9.404389125E0;1.440472603E0;4.804769039E0;5.781053901E-1
9.416290687E0;1.263740540E0;4.584386349E0;6.100449562E-1
9.428195375E0;1.030582070E0;3.870005846E0;7.505788207E-1
9.440106312E0;8.346862793E-1;3.259960890E0;8.453327417E-1
9.452018812E0;7.207686305E-1;2.639269352E0;8.219104409E-1
9.463936000E0;7.282211781E-1;2.024966002E0;7.622900009E-1
9.475840687E0;7.612253428E-1;1.488381863E0;7.601606846E-1
9.487753187E0;7.963588238E-1;8.868541718E-1;7.984881401E-1
9.499664125E0;8.112639189E-1;4.748342633E-1;7.867769599E-1
9.511576625E0;7.857123017E-1;2.129301727E-1;7.963588238E-1
9.523487562E0;7.047988772E-1;9.794788063E-2;8.602378964E-1
9.535400062E0;6.057863235E-1;1.064650808E-2;9.517978430E-1
9.547311000E0;5.621356368E-1;-3.939208016E-2;1.025258780E0
9.559223500E0;6.004630923E-1;-4.471533373E-2;1.048681021E0
9.571134437E0;6.866998076E-1;1.085943878E-1;1.094461083E0
9.583048500E0;7.463202477E-1;3.609166443E-1;1.156210780E0
9.594961000E0;6.813765168E-1;5.344547033E-1;1.193473577E0
9.606868812E0;5.376486778E-1;3.875329196E-1;1.117883325E0
9.618781312E0;4.120198786E-1;7.878416032E-2;8.889834285E-1
9.630692250E0;2.938436270E-1;-7.878416032E-2;6.079156399E-1
9.642603187E0;1.809906363E-1;-1.692794859E-1;2.714859545E-1
9.654517250E0;1.703441329E-2;-1.288227588E-1;-1.362753063E-1
9.666426625E0;-1.735380888E-1;-3.385589719E-1;-4.865454435E-1
9.678337562E0;-3.662398756E-1;-8.410741687E-1;-8.900480866E-1
9.690250062E0;-5.312607884E-1;-1.323361039E0;-1.336136818E0
9.702167250E0;-7.697425485E-1;-1.219025254E0;-1.771579027E0
9.714073500E0;-1.179633141E0;2.129301615E-2;-2.062228680E0
9.725984437E0;-1.766255736E0;2.378429890E0;-2.169758320E0
9.737895375E0;-2.408240318E0;4.691916466E0;-2.047323465E0
9.749807875E0;-2.842617750E0;5.821510792E0;-1.920630097E0
9.761718812E0;-2.943759680E0;5.855579853E0;-1.875914812E0
9.773631312E0;-2.875622034E0;5.521279335E0;-1.901466370E0
9.785551625E0;-2.897979498E0;4.037156105E0;-2.031353712E0
9.797454750E0;-2.501929522E0;7.484495640E-1;-2.130366325E0
9.809365687E0;-1.676825047E0;-1.973862648E0;-2.149529934E0
9.821282875E0;-9.475392699E-1;-3.104521751E0;-2.127172470E0
9.833189125E0;-6.089802980E-1;-3.221633434E0;-2.015383959E0
9.845100062E0;-5.333900452E-1;-3.175853491E0;-1.725798965E0
9.857012562E0;-6.132388711E-1;-3.094939947E0;-1.484123230E0
9.868923500E0;-9.677675962E-1;-2.489153624E0;-1.530967951E0
9.880836000E0;-1.262675881E0;-2.010060787E0;-1.803518534E0
9.892746937E0;-1.303132653E0;-1.610816717E0;-2.164435148E0
9.904659437E0;-1.101913571E0;-9.081471562E-1;-2.442309141E0
9.916570375E0;-8.804662228E-1;5.110324174E-2;-2.504058838E0
9.928482875E0;-7.537727952E-1;6.515663266E-1;-2.263447762E0
9.940393812E0;-6.866998076E-1;1.014612198E0;-1.911048293E0
9.952306312E0;-6.707300544E-1;1.090202451E0;-1.472412109E0
9.964217250E0;-7.335444093E-1;6.292086244E-1;-1.066780090E0
9.976128187E0;-8.016820550E-1;-4.833514690E-1;-6.036570072E-1
9.988039125E0;-7.079927921E-1;-1.845039964E0;-1.809906363E-1
9.999951625E0;-4.631231129E-1;-2.778738737E0;9.155996889E-2
1.001187194E1;-7.026695460E-2;-3.058741808E0;3.162012994E-1
1.002377506E1;3.598519862E-1;-2.549838781E0;4.098905623E-1
1.003568600E1;7.910355926E-1;-1.545873046E0;5.589416623E-1
1.004759850E1;1.112560153E0;-6.909583807E-1;8.644964695E-1
1.005951569E1;1.347847939E0;-2.991668880E-1;1.198796868E0
1.007142038E1;1.431955338E0;2.022836544E-2;1.387240052E0
1.008333288E1;1.355300546E0;3.247185051E-1;1.497963786E0
1.009524381E1;8.293629885E-1;6.760532856E-1;1.450054407E0
1.010715475E1;-5.887519121E-1;-6.898937225E-1;8.655611277E-1
1.011907038E1;-3.353650272E-1;-1.669372559E0;-9.794788063E-2
1.013097819E1;1.799259931E-1;-1.083814502E0;-1.087008476E0
1.014289069E1;-1.064650808E-2;1.318037748E0;-1.491575837E0
1.015480163E1;-3.747570813E-1;2.613717794E0;-1.144499660E0
1.016671256E1;-6.334672570E-1;2.280482054E0;-6.249500513E-1
1.017862663E1;-2.821324766E-1;9.741555452E-1;-8.943066746E-2
1.019053600E1;5.823640227E-1;-6.419844627E-1;5.078384280E-1
1.020244850E1;1.233930349E0;-1.628915787E0;9.166643620E-1
1.021435944E1;1.632109761E0;-2.248542547E0;1.344653964E0
1.022627194E1;1.583135843E0;-2.262382984E0;1.684277654E0
1.023818131E1;8.527853489E-1;-8.996299505E-1;1.565036774E0
1.025009850E1;-1.330813617E-1;1.179633141E0;1.106172204E0
1.026200631E1;-6.270793676E-1;1.872720838E0;4.993212521E-1
1.027391725E1;-5.834286809E-1;1.687471628E0;5.908812284E-1
1.028582975E1;-3.396236300E-1;1.536291122E0;1.111495495E0
1.029774069E1;1.703441292E-1;7.175746560E-1;1.501157641E0
1.030965162E1;8.676904440E-1;-8.698197603E-1;1.559713483E0
1.032156412E1;1.518192053E0;-2.795773029E0;1.354235888E0
1.033347506E1;1.690665483E0;-3.717760801E0;1.197732210E0
1.034538600E1;1.526709318E0;-3.541028738E0;1.124271274E0
1.035729850E1;1.345718622E0;-2.743605137E0;9.997071624E-1
1.036922038E1;1.098719716E0;4.833514690E-1;7.835830450E-1
1.038112194E1;1.095525742E0;3.156689644E0;6.622128487E-1
1.039303288E1;1.213701963E0;3.709243536E0;7.388677001E-1
1.040494538E1;1.244576812E0;3.452662706E0;9.879959822E-1
1.041687038E1;1.184956431E0;3.108780384E0;1.207314014E0
1.042876881E1;1.083814502E0;2.776609421E0;1.285033584E0
1.044067975E1;9.645736814E-1;2.439115047E0;1.269063830E0
1.045259069E1;9.049532413E-1;2.000478983E0;1.291421413E0
1.046450319E1;8.889834285E-1;1.365947008E0;1.332942843E0
1.047641412E1;9.560564756E-1;5.855579376E-1;1.324425697E0
1.048833444E1;1.057198286E0;-1.256287992E-1;1.308455825E0
1.050023756E1;1.171115875E0;-8.293629885E-1;1.329748869E0
1.051215006E1;1.225413084E0;-1.256287932E0;1.332942843E0
1.052406100E1;1.176439166E0;-1.467088819E0;1.335072160E0
1.053597819E1;1.046551824E0;-1.276516318E0;1.328684211E0
1.054788444E1;8.815308809E-1;-6.345319152E-1;1.309520483E0
1.055979538E1;6.302732825E-1;2.342231870E-1;1.244576812E0
1.057170788E1;3.353650272E-1;6.792472601E-1;1.106172204E0
1.058361881E1;4.684463516E-2;7.878416181E-1;9.102764726E-1
1.059553131E1;-1.980250627E-1;6.600835323E-1;7.260918617E-1
1.060745163E1;-4.247956872E-1;2.214473784E-1;5.057091713E-1
1.061935319E1;-5.514891148E-1;-3.002315462E-1;1.990897059E-1
1.063126569E1;-6.238853931E-1;-6.686007380E-1;-2.395464331E-1
1.064317662E1;-6.930876970E-1;-5.557477474E-1;-6.845704913E-1
1.065508912E1;-7.952941656E-1;2.235766798E-1;-1.064650893E0
1.066700006E1;-1.028452754E0;1.713023186E0;-1.394692659E0
1.067891256E1;-1.223283768E0;2.352878332E0;-1.631045103E0
1.069082350E1;-1.452183723E0;2.596683502E0;-1.831199408E0
1.070273444E1;-1.862074375E0;3.123685598E0;-2.108008623E0
1.071464694E1;-2.248542547E0;3.340874434E0;-2.544515610E0
1.072656881E1;-2.358201504E0;2.912884712E0;-3.214180946E0
1.073846881E1;-2.108008623E0;1.365947008E0;-3.717760801E0
1.075038131E1;-1.665113926E0;-7.228979468E-1;-3.932820320E0
1.076229225E1;-1.341460109E0;-2.179340363E0;-3.846583366E0
1.077420475E1;-1.189214945E0;-2.697825193E0;-3.531446934E0
1.078611569E1;-9.230522513E-1;-1.566101432E0;-3.008703232E0
1.079802819E1;-3.460115194E-1;6.068509817E-2;-2.238960743E0
1.080993756E1;7.665485889E-2;6.206914186E-1;-1.321231723E0
1.082187038E1;4.695110321E-1;5.142263770E-1;-3.321710527E-1
1.083379381E1;6.728593111E-1;9.049531817E-2;9.262461960E-2
1.084567350E1;7.218332887E-1;-5.812993646E-1;9.581857920E-2
1.085758444E1;4.631231129E-1;-1.252029419E0;-4.460887015E-1
1.086949694E1;-1.341460049E-1;-1.768385053E0;-1.180697799E0
1.088140788E1;-6.441137791E-1;-2.583907604E0;-1.777966857E0
1.089334225E1;-7.740011811E-1;-3.056612492E0;-1.966410160E0
1.090523131E1;-7.005402446E-1;-2.809613466E0;-1.937664509E0
1.091714225E1;-4.780282378E-1;-2.164435148E0;-1.730057597E0
1.092905475E1;-2.714859545E-1;-1.462830305E0;-1.378722787E0
1.094096725E1;-1.905725002E-1;-9.656383395E-1;-1.025258780E0
1.095287819E1;-2.395464331E-1;-6.185621619E-1;-7.303504944E-1
1.096478913E1;-3.236538470E-1;-4.471533597E-1;-4.311835766E-1
1.097670162E1;-3.545287251E-1;-5.993984342E-1;-1.373399645E-1
1.098861256E1;-2.576455176E-1;-9.571211338E-1;1.341460049E-1
1.100052506E1;1.384046115E-2;-1.173245192E0;4.013733566E-1
1.101243600E1;3.619812727E-1;-1.159404755E0;6.345319152E-1
1.102434694E1;7.729365230E-1;-8.634318113E-1;9.017592669E-1
1.103625944E1;1.061456919E0;-5.067738295E-1;1.100848913E0
1.104817038E1;1.234995008E0;-1.671501845E-1;1.148758292E0
1.106008444E1;1.272257805E0;1.298874021E-1;1.039099216E0
1.107199381E1;1.177503824E0;4.727049768E-1;8.251044154E-1
1.108391256E1;6.174975038E-1;7.846476436E-1;5.791700482E-1
1.109581725E1;-2.108008713E-1;2.374171317E-1;2.544515431E-1
1.110772819E1;-1.916371584E-1;-5.717175007E-1;-5.632002950E-1
1.111964069E1;4.184077680E-1;-4.897393882E-1;-1.533097267E0
1.113155162E1;4.950626493E-1;3.417529166E-1;-1.947246432E0
1.114346725E1;1.809906363E-1;7.101221085E-1;-1.578877211E0
1.115537506E1;-1.181762442E-1;2.885203660E-1;-9.635090232E-1
1.116728756E1;-1.043357849E-1;-3.428175747E-1;-4.812221825E-1
1.117919850E1;2.789385319E-1;-7.037342191E-1;-4.045673087E-2
1.119111100E1;7.516434789E-1;-7.441909313E-1;2.863910794E-1
1.120303444E1;1.174309850E0;-1.041228533E0;6.451784372E-1
1.121493288E1;1.489446521E0;-1.868462205E0;1.014612198E0
1.122684538E1;1.621463180E0;-2.779803276E0;1.373399615E0
1.123875631E1;1.337201476E0;-3.238667965E0;1.558648825E0
1.125068913E1;4.886747301E-1;-2.322003365E0;1.419179559E0
1.126257819E1;-7.548374534E-1;-5.344547033E-1;1.062521577E0
1.127449069E1;-1.095525742E0;7.612253428E-1;1.009289026E0
1.128640788E1;-8.495913744E-1;1.510739565E0;1.462830305E0
1.129831413E1;-3.162012994E-1;1.442601919E0;1.798195243E0
1.131024694E1;4.311835766E-1;4.886747301E-1;1.739639521E0
1.132213600E1;1.154081464E0;-9.305048585E-1;1.517127395E0
1.133404850E1;1.755609274E0;-2.370977402E0;1.327619553E0
1.134595944E1;1.947246432E0;-2.850070238E0;1.223283768E0
1.135787194E1;1.907854319E0;-2.566873074E0;1.105107546E0
1.136978288E1;1.782225490E0;-1.862074375E0;1.023129463E0
1.138169538E1;1.608687401E0;-8.676904440E-1;1.029517412E0
1.139360631E1;1.578877211E0;5.120970607E-1;1.027388096E0
1.140551881E1;1.818423629E0;4.510925770E0;1.066780090E0
1.141742975E1;1.834393382E0;7.217267990E0;1.155146122E0
1.142934850E1;1.489446521E0;6.997950077E0;1.104042888E0
1.144126256E1;1.112560153E0;5.773601532E0;1.016741514E0
1.145316412E1;6.952170134E-1;4.654653549E0;8.730136752E-1
1.146507506E1;4.652524292E-1;3.703920364E0;6.994755864E-1
1.147698756E1;5.408426523E-1;2.571131706E0;5.546830893E-1
1.148890006E1;6.547602415E-1;9.677675962E-1;4.780282378E-1
1.150081100E1;6.717946529E-1;-4.546059072E-1;4.524766207E-1
1.151272350E1;6.515663266E-1;-1.458571672E0;5.163556337E-1
1.152463444E1;6.249500513E-1;-1.789678097E0;6.760532856E-1
1.153654538E1;6.345319152E-1;-1.763061762E0;8.762076497E-1
1.154845944E1;6.654067636E-1;-1.490511179E0;1.014612198E0
1.156037506E1;6.515663266E-1;-1.147693634E0;1.085943818E0
1.157228131E1;5.706528425E-1;-7.910355926E-1;1.127465248E0
1.158419225E1;4.631231129E-1;-5.301961303E-1;1.102978230E0
1.159610319E1;3.311064243E-1;-2.650980651E-1;1.029517412E0
1.160801569E1;2.991668880E-1;-8.410741389E-2;9.305048585E-1
1.161992663E1;3.076840937E-1;1.533097178E-1;7.835830450E-1
1.163183912E1;2.959729433E-1;4.599291682E-1;6.611481905E-1
1.164375006E1;1.799259931E-1;8.847248554E-1;5.898165703E-1
1.165566100E1;-4.790928960E-2;1.110430837E0;5.504244566E-1
1.166757819E1;-2.650980651E-1;9.507331848E-1;3.790156841E-1
1.167948756E1;-4.279896319E-1;6.494370103E-1;1.043357849E-1
1.169139694E1;-5.323254466E-1;8.080700040E-1;-1.735380888E-1
1.170330788E1;-6.920230389E-1;2.575390339E0;-3.002315462E-1
1.171521881E1;-1.102978230E0;4.284154892E0;-3.257831633E-1
1.172713131E1;-1.500092983E0;4.472598076E0;-5.089030862E-1
1.173904225E1;-2.055840731E0;5.049638748E0;-1.108301520E0
1.175095319E1;-2.216603041E0;3.843389511E0;-1.884431958E0
1.176286569E1;-1.954698920E0;7.612253428E-1;-2.496606112E0
1.177477819E1;-1.566101432E0;-2.096297503E0;-2.905432224E0
1.178668912E1;-1.160469413E0;-4.112746239E0;-3.455856562E0
1.179860788E1;-1.007159710E0;-5.026216507E0;-3.936014175E0
1.181051100E1;-1.137047052E0;-5.240211487E0;-4.205370903E0
1.182242350E1;-1.500092983E0;-4.618455410E0;-4.102099895E0
1.183433600E1;-1.628915787E0;-2.196374655E0;-3.577226877E0
1.184624694E1;-1.265869856E0;1.242447495E0;-2.690372705E0
1.185815788E1;-7.612253428E-1;3.387718916E0;-1.522450686E0
1.187006881E1;-3.098133802E-1;3.897686720E0;-5.323254466E-1
1.188198131E1;-2.555162087E-2;3.611295700E0;7.026695460E-2
1.189389225E1;2.448697016E-2;2.310292244E0;1.064650863E-1
1.190580475E1;-1.426632106E-1;3.939208016E-2;-4.290542901E-1
1.191771725E1;-2.693566680E-1;-2.183598757E0;-1.113624811E0
1.192962819E1;-4.045673311E-1;-3.506959915E0;-1.653402805E0
1.194153912E1;-4.918686748E-1;-4.122328281E0;-1.751350641E0
1.195346881E1;-5.855579376E-1;-4.269249916E0;-1.652338147E0
1.196537663E1;-6.835058331E-1;-3.781639814E0;-1.533097267E0
1.197727506E1;-6.813765168E-1;-3.027867079E0;-1.394692659E0
1.198918600E1;-5.759761333E-1;-2.281546831E0;-1.232865691E0
1.200109850E1;-4.386361539E-1;-1.673631072E0;-8.698197603E-1
1.201300944E1;-3.577226698E-1;-1.320167065E0;-4.631231129E-1
1.202492038E1;-3.023608327E-1;-1.173245192E0;-1.916371584E-1
1.203683288E1;-2.257059813E-1;-1.049745679E0;2.555162087E-2
1.204874381E1;-1.096590385E-1;-1.021000147E0;2.310292274E-1
1.206065631E1;9.901253134E-2;-1.060392261E0;4.524766207E-1
1.207256725E1;4.365068376E-1;-9.475392699E-1;6.547602415E-1
1.208447819E1;8.325569630E-1;-6.057863235E-1;8.261690736E-1
1.209639069E1;1.237124324E0;1.320167035E-1;9.943838716E-1
1.210830163E1;1.454313040E0;8.442681432E-1;1.056133628E0
1.212021569E1;1.471347451E0;1.398951173E0;1.024194121E0
1.213212506E1;8.932420611E-1;1.408533096E0;9.400866628E-1
1.214403600E1;9.155996889E-2;1.746027321E-1;5.695881844E-1
1.215596256E1;-1.213701963E-1;-1.059327602E0;-3.438822329E-1
1.216785944E1;-2.480636388E-1;-6.111095548E-1;-1.777966857E0
1.217977194E1;-4.066966176E-1;7.079927921E-1;-2.775544643E0
1.219168288E1;-4.471533373E-2;1.078491330E0;-2.304969072E0
1.220359538E1;-1.596976258E-2;3.928561509E-1;-1.159404755E0
1.221551569E1;-4.790928960E-2;-4.098905623E-1;-3.332357109E-1
1.222741725E1;2.576455176E-1;-6.611481905E-1;9.794788063E-2
1.223932975E1;6.217560768E-1;-8.197811246E-2;1.628915817E-1
1.225124069E1;1.023129463E0;-2.257059813E-1;1.671501845E-1
1.226315162E1;1.043357849E0;-7.069281340E-1;2.640334070E-1
1.227506881E1;3.896622062E-1;-1.788613349E-1;4.812221825E-1
1.228697506E1;-7.154453397E-1;2.640334070E-1;9.017592669E-1
1.229888756E1;-1.156210780E0;-1.746027321E-1;1.380852103E0
1.231079850E1;-8.602378964E-1;-6.441137791E-1;1.775837660E0
1.232270944E1;-9.262461960E-2;-1.024194121E0;1.798195243E0
1.233462194E1;5.259374976E-1;-1.204120159E0;1.658725977E0
1.234653288E1;9.368927479E-1;-1.228607059E0;1.518192053E0
1.235844538E1;1.100848913E0;-1.365947008E0;1.552260876E0
1.237035631E1;1.124271274E0;-1.592717648E0;1.625721812E0
1.238226881E1;1.122141957E0;-1.523515344E0;1.632109761E0
1.239418600E1;1.123206615E0;-1.240318179E0;1.566101432E0
1.240609225E1;1.234995008E0;-9.187936783E-1;1.454313040E0
1.241800319E1;1.442601919E0;-3.087487444E-2;1.204120159E0
1.242991413E1;1.526709318E0;2.181469679E0;9.975778461E-1
1.244184069E1;1.476670742E0;3.858294725E0;9.134704471E-1
1.245373756E1;1.378722787E0;4.244762897E0;9.571211338E-1
1.246565006E1;1.302067995E0;3.726277828E0;1.109366179E0
1.247756100E1;1.163663387E0;2.977828503E0;1.225413084E0
1.248947350E1;9.709615707E-1;2.429533243E0;1.178568482E0
1.250138444E1;8.101992607E-1;2.031353712E0;1.035905242E0
1.251330631E1;7.303504944E-1;1.503286958E0;9.006946087E-1
1.252520788E1;7.612253428E-1;7.665486336E-1;8.176518679E-1
1.253711881E1;8.570439219E-1;1.927018017E-1;8.091346622E-1
1.254902975E1;1.025258780E0;-3.321710527E-1;8.559792638E-1
1.256094225E1;1.179633141E0;-6.632774472E-1;8.857895136E-1
1.257285319E1;1.334007502E0;-8.825955391E-1;9.166643620E-1
1.258476569E1;1.478800058E0;-9.262462258E-1;9.848020077E-1
1.259667662E1;1.513933539E0;-7.889062762E-1;1.105107546E0
1.260858912E1;1.321231723E0;-5.525537729E-1;1.255223393E0
1.262050163E1;1.017806172E0;-4.546059072E-1;1.253094077E0
1.263241881E1;6.781826019E-1;-5.440365672E-1;1.214766622E0
1.264432350E1;3.481408358E-1;-7.260918617E-1;1.139176369E0
1.265623756E1;1.309520602E-1;-6.302732825E-1;1.055068970E0
1.266814694E1;2.129301615E-2;-1.841845959E-1;1.030582070E0
1.268006881E1;-5.323254317E-2;2.363524884E-1;1.005030394E0
1.269196881E1;-1.447925121E-1;2.682920098E-1;8.708843589E-1
1.270388131E1;-2.704213262E-1;-1.596976221E-1;5.855579376E-1
1.271579225E1;-3.715631366E-1;-5.536184311E-1;2.374171317E-1
1.272770475E1;-4.758989215E-1;-2.789385319E-1;-5.110324174E-2
1.273961569E1;-6.781826019E-1;8.687551022E-1;-2.076069117E-1
1.275153131E1;-1.090202451E0;2.278352737E0;-3.470761776E-1
1.276343913E1;-1.467088819E0;2.458278894E0;-5.621356368E-1
1.277535006E1;-1.915306807E0;2.545580149E0;-1.050810337E0
1.278726100E1;-2.308162928E0;2.322003365E0;-1.751350641E0
1.279917350E1;-2.368848085E0;9.741555452E-1;-2.477442503E0
1.281108600E1;-2.109073400E0;-5.727821589E-1;-3.083228827E0
1.282299694E1;-1.676825047E0;-1.885496616E0;-3.361102819E0
1.283490788E1;-1.236059666E0;-2.730829477E0;-3.317451954E0
1.284682038E1;-9.486039281E-1;-3.000185966E0;-3.174788713E0
1.285873756E1;-7.931648493E-1;-2.913949251E0;-2.905432224E0
1.287064225E1;-7.889062762E-1;-2.639269352E0;-2.567937851E0
1.288255475E1;-8.165872097E-1;-1.975991964E0;-2.046258926E0
1.289446569E1;-7.942295074E-1;-1.101913571E0;-1.448989749E0
1.290637819E1;-7.814537287E-1;4.077612758E-1;-7.378030419E-1
1.291829069E1;-7.654839754E-1;1.484123230E0;-4.056319594E-1
1.293020162E1;-7.271565199E-1;1.923824072E0;-3.609166443E-1
1.294211256E1;-7.665486336E-1;1.705570698E0;-6.185621619E-1
1.295402506E1;-8.208457828E-1;9.975778461E-1;-1.025258780E0
1.296593600E1;-8.314923048E-1;-3.353650272E-1;-1.464959502E0
1.297785319E1;-7.782597542E-1;-1.209443331E0;-1.625721812E0
1.298977038E1;-6.984109282E-1;-2.021771908E0;-1.596976280E0
1.300167038E1;-7.250272036E-1;-2.711665630E0;-1.561842799E0
1.301358288E1;-8.804662228E-1;-2.573261023E0;-1.601234913E0
1.302549381E1;-9.145350456E-1;-1.961086869E0;-1.634239078E0
1.303740631E1;-7.899709344E-1;-1.454313040E0;-1.539485097E0
1.304932038E1;-6.355965734E-1;-1.331878185E0;-1.246706128E0
1.306122975E1;-5.067738295E-1;-1.287162900E0;-9.166643620E-1
1.307314069E1;-3.470761776E-1;-1.153016806E0;-5.951398015E-1
1.308505162E1;-2.076069117E-1;-9.635090232E-1;-3.587873280E-1
1.309696413E1;-8.943066746E-2;-8.378801942E-1;-1.777966917E-1
1.310888131E1;6.813765317E-2;-7.016049027E-1;3.300417587E-2
1.312078600E1;2.501929402E-1;-4.876100719E-1;2.661627233E-1
1.313269850E1;5.184849501E-1;-1.405339092E-1;5.940751433E-1
1.314460944E1;8.879188299E-1;2.352878302E-1;9.571211338E-1
1.315652819E1;1.253094077E0;4.780282378E-1;1.248835444E0
1.316843444E1;1.657661319E0;5.174202919E-1;1.439407945E0
1.318034381E1;1.901466370E0;3.587873280E-1;1.528838634E0
1.319225631E1;1.486252546E0;-1.394692659E-1;1.484123230E0
1.320416725E1;2.757445574E-1;-1.352106571E0;7.878416181E-1
1.321609694E1;-3.215245605E-1;-1.263740540E0;-7.867769599E-1
1.322799225E1;-2.927789688E-1;1.905725002E-1;-2.226184845E0
1.323990319E1;7.346090674E-2;1.339330792E0;-2.454020262E0
1.325181413E1;5.067738295E-1;7.431262732E-1;-1.529903293E0
1.326372506E1;2.374171317E-1;-4.556705654E-1;-5.451012254E-1
1.327565162E1;-1.490511149E-1;-3.779510558E-1;-2.065422684E-1
1.328754850E1;3.630459309E-1;2.874557301E-2;-2.001543641E-1
1.329946100E1;1.109366179E0;2.842617631E-1;2.129301662E-3
1.331137194E1;1.347847939E0;4.077612758E-1;1.469218135E-1
1.332328288E1;1.198796868E0;8.943066746E-2;-8.517206647E-3
1.333519538E1;5.674588680E-1;4.226663709E-1;-3.907268643E-1
1.334711413E1;-2.193180770E-1;4.216017425E-1;-3.225892186E-1
1.335901881E1;-1.077426672E0;1.426632106E-1;4.216017425E-1
1.337092975E1;-1.433019996E0;-7.239625603E-2;1.189214945E0
1.338284225E1;-7.516434789E-1;-8.730136752E-1;1.678954363E0
1.339475631E1;1.596976258E-2;-1.361688375E0;1.681083679E0
1.340666569E1;7.942295074E-1;-1.706635356E0;1.427696824E0
1.341857819E1;1.270128489E0;-2.042000294E0;1.244576812E0
1.343048756E1;1.536291122E0;-2.349684477E0;1.139176369E0
1.344240006E1;1.684277654E0;-2.027095318E0;1.050810337E0
1.345431569E1;1.787548780E0;8.943066746E-2;9.794787765E-1
1.346622350E1;2.003672838E0;2.195310116E0;9.794787765E-1
1.347813444E1;2.167629004E0;2.385882616E0;1.175374508E0
1.349004538E1;2.054776192E0;2.068616629E0;1.474541426E0
1.350195944E1;1.627851129E0;2.116525888E0;1.626786470E0
1.351386881E1;1.192408919E0;2.261318445E0;1.478800058E0
1.352578131E1;9.464746118E-1;1.951504946E0;1.272257805E0
1.353769225E1;8.176518679E-1;1.407468438E0;1.092331767E0
1.354960475E1;7.761304379E-1;9.113411307E-1;9.486039281E-1
1.356151569E1;8.581085801E-1;6.994755864E-1;9.720262289E-1
1.357342663E1;9.603150487E-1;7.761304379E-1;1.096590400E0
1.358534225E1;1.031646609E0;9.273108840E-1;1.199861526E0
1.359726725E1;1.021000147E0;8.623671532E-1;1.250964761E0
1.360916100E1;9.411513209E-1;5.972691178E-1;1.273322463E0
1.362107350E1;8.293629885E-1;1.873785406E-1;1.232865691E0
1.363298444E1;7.026695609E-1;-1.064650808E-2;1.142370343E0
1.364489694E1;5.738468170E-1;2.203827202E-1;1.077426672E0
1.365680788E1;4.503473043E-1;5.642649531E-1;1.032711267E0
1.366871881E1;3.992440701E-1;6.132388711E-1;1.034840584E0
1.368063131E1;4.162784815E-1;6.909583807E-1;1.069974065E0
1.369254225E1;4.450240433E-1;9.092118144E-1;1.084879160E0
1.370446100E1;3.800803423E-1;1.058262944E0;1.079555988E0
1.371637350E1;1.671501845E-1;1.016741514E0;1.032711267E0
1.372827663E1;-7.239625603E-2;1.126400590E0;8.815308809E-1
1.374018912E1;-3.183306158E-1;1.455377698E0;6.483723521E-1
1.375210631E1;-5.195496082E-1;1.282904267E0;3.683691919E-1
1.376401256E1;-7.239625454E-1;1.216895938E0;1.916371472E-2
1.377592350E1;-9.581857324E-1;1.843975306E0;-2.917143404E-1
1.378783444E1;-1.340395451E0;3.038513422E0;-5.812993646E-1
1.379974694E1;-1.757738590E0;3.416464567E0;-8.506560326E-1
1.381167350E1;-2.049452782E0;2.902238131E0;-1.172180533E0
1.382357663E1;-2.203827143E0;2.283676147E0;-1.865268230E0
1.383548131E1;-2.028159857E0;1.062521577E0;-2.603071213E0
1.384739381E1;-1.571424603E0;-3.481408358E-1;-3.195017099E0
1.385930475E1;-1.153016806E0;-7.292858362E-1;-3.731601238E0
1.387121569E1;-8.825955391E-1;-7.601606846E-1;-4.243698120E0
1.388312819E1;-6.803118587E-1;-9.933192134E-1;-4.546059132E0
1.389503912E1;-6.174975038E-1;-1.197732210E0;-4.629101753E0
1.390695163E1;-6.121742129E-1;-1.537355781E0;-4.260732651E0
1.391886256E1;-6.079156399E-1;-1.281839609E0;-3.220568895E0
1.393078288E1;-5.706528425E-1;-7.016049027E-1;-1.977056623E0
1.394268600E1;-5.536184311E-1;-1.554390192E-1;-1.165792704E0
1.395459694E1;-5.280668139E-1;-1.160469428E-1;-6.792472601E-1
1.396650944E1;-6.334672570E-1;-6.281439662E-1;-6.579542160E-1
1.397842194E1;-7.516434789E-1;-1.522450686E0;-1.030582070E0
1.399033444E1;-6.686007380E-1;-2.450826168E0;-1.566101432E0
1.400224381E1;-5.546830893E-1;-3.054483175E0;-1.947246432E0
1.401415475E1;-4.130845368E-1;-2.949082851E0;-2.209150553E0
1.402606725E1;-2.384817898E-1;-2.293257952E0;-2.313486338E0
1.403797975E1;-1.064650863E-1;-1.628915787E0;-2.221926212E0
1.404989069E1;-8.836601675E-2;-1.217960596E0;-1.901466370E0
1.406180319E1;-1.171115935E-1;-1.299938679E0;-1.444731236E0
1.407371256E1;-1.501157731E-1;-1.763061762E0;-1.129594564E0
1.408562506E1;-1.064650863E-1;-2.317744970E0;-9.060178399E-1
1.409753756E1;5.749114603E-2;-2.550903320E0;-6.462430358E-1
1.410944850E1;3.034254909E-1;-2.347555161E0;-3.193952441E-1
1.412137194E1;6.686007380E-1;-1.914242268E0;7.771950960E-2
1.413327194E1;1.087008476E0;-1.471347451E0;4.237310290E-1
1.414518288E1;1.583135843E0;-8.708843589E-1;8.474620581E-1
1.415709538E1;1.807777166E0;-4.333128929E-1;1.207314014E0
1.416900475E1;1.682148337E0;-3.023608327E-1;1.411727071E0
1.418092663E1;1.329748869E0;-5.983337760E-1;1.494769812E0
1.419282975E1;9.741555452E-1;-1.090202451E0;1.382981420E0
1.420474069E1;9.688322544E-1;-1.217960596E0;6.579542160E-1
1.421665319E1;7.942295074E-1;-8.751429915E-1;-6.057863235E-1
1.422856881E1;-2.725506127E-1;7.580313683E-1;-1.894013882E0
1.424047506E1;-8.261690736E-1;1.825876236E0;-2.087780237E0
1.425238756E1;-7.101221085E-1;1.307391286E0;-1.322296381E0
1.426429850E1;-1.596976221E-1;3.204599023E-1;-6.228207350E-1
1.427621100E1;3.694338500E-1;-5.408426523E-1;1.852492392E-1
1.428812350E1;5.035798550E-1;-1.373399645E-1;5.770407319E-1
1.430003288E1;6.941523552E-1;2.906496823E-1;5.014505386E-1
1.431194538E1;1.036969900E0;-4.237310290E-1;3.513347805E-1
1.432385631E1;6.600835323E-1;-4.035026729E-1;2.054776102E-1
1.433576881E1;-2.544515431E-1;6.568895578E-1;-1.203055456E-1
1.434767975E1;-5.408426523E-1;7.952941656E-1;-7.452555746E-2
1.435959225E1;-4.460887015E-1;6.036570072E-1;5.834286809E-1
1.437150319E1;-2.033483088E-1;5.067738295E-1;1.550131679E0
1.438341413E1;2.352878302E-1;4.269249737E-1;2.195310116E0
1.439532663E1;7.622900009E-1;3.651752472E-1;2.234702110E0
1.440725788E1;1.017806172E0;1.171115935E-1;1.973862648E0
1.441915631E1;1.135982394E0;-4.333128929E-1;1.920630097E0
1.443106100E1;1.395757198E0;-1.120012641E0;2.079262972E0
1.444297194E1;1.924888730E0;-1.604428768E0;2.155917883E0
1.445488444E1;2.342231750E0;-1.573553920E0;2.045194149E0
1.446680006E1;2.367783546E0;3.151366413E-1;1.907854319E0
1.447870788E1;2.030289173E0;4.227728367E0;1.796065927E0
1.449061881E1;1.715152502E0;5.125229359E0;1.596976280E0
1.450253131E1;1.451119065E0;4.260732651E0;1.467088819E0
1.451444225E1;1.162598729E0;3.099198580E0;1.434084654E0
1.452636725E1;9.326341152E-1;2.311357021E0;1.303132653E0
1.453827194E1;8.676904440E-1;1.857815742E0;1.071038723E0
1.455017662E1;9.486039281E-1;1.645950198E0;9.720262289E-1
1.456208913E1;1.088073134E0;1.492640495E0;1.069974065E0
1.457400006E1;1.156210780E0;1.187085629E0;1.272257805E0
1.458592662E1;1.083814502E0;7.186393142E-1;1.337201476E0
1.459782194E1;9.507331848E-1;4.343775511E-1;1.285033584E0
1.460973444E1;7.431262732E-1;2.065422684E-1;1.225413084E0
1.462164694E1;5.695881844E-1;-5.067738295E-1;1.241382837E0
1.463355788E1;4.982565939E-1;-1.713023186E0;1.245641470E0
1.464546881E1;5.887519121E-1;-2.158047199E0;1.167922020E0
1.465738756E1;7.761304379E-1;-1.894013882E0;1.028452754E0
1.466929225E1;8.996299505E-1;-9.166643620E-1;8.783369660E-1
1.468120475E1;7.324797511E-1;9.049531817E-2;7.452555895E-1
1.469311569E1;2.448696941E-1;7.026695609E-1;6.387904882E-1
1.470502819E1;-1.522450745E-1;6.174975038E-1;5.142263770E-1
1.471693913E1;-3.981794119E-1;1.511804163E-1;2.863910794E-1
1.472885006E1;-4.066966176E-1;-3.779510558E-1;4.684463516E-2
1.474076100E1;-2.704213262E-1;-7.111867666E-1;-1.841845959E-1
1.475267350E1;-7.239625603E-2;-2.022836655E-1;-3.406882584E-1
1.476461413E1;-3.087487444E-2;1.258417249E0;-4.397007823E-1
1.477650319E1;-3.321710527E-1;2.313486338E0;-5.706528425E-1
1.478840788E1;-8.762076497E-1;2.329456091E0;-9.113411307E-1
1.480031881E1;-1.514998198E0;1.994091034E0;-1.382981420E0
1.481223131E1;-2.178275585E0;2.092038870E0;-1.975991964E0
1.482414850E1;-2.692502022E0;2.740411282E0;-2.603071213E0
1.483605319E1;-2.995927572E0;3.615554333E0;-3.240797043E0
1.484796569E1;-2.801096439E0;3.218439579E0;-3.631524086E0
1.485987662E1;-2.169758320E0;1.364882350E0;-3.794415712E0
1.487178913E1;-1.567166090E0;-2.991668880E-1;-3.681562662E0
1.488370006E1;-1.288227558E0;-8.133932352E-1;-3.335551023E0
1.489562506E1;-1.178568482E0;-7.601606846E-1;-2.876686573E0
1.490752506E1;-1.001836419E0;-8.762076497E-1;-2.308162928E0
1.491943600E1;-8.346862793E-1;-8.038113713E-1;-1.664049268E0
1.493134850E1;-7.580313683E-1;-6.387904882E-1;-1.134917736E0
1.494325944E1;-7.218332887E-1;-9.305048585E-1;-7.942295074E-1
1.495517194E1;-7.335444093E-1;-1.484123230E0;-6.941523552E-1
1.496708288E1;-7.803890705E-1;-2.270900249E0;-8.197811246E-1
1.497899381E1;-8.442681432E-1;-2.838359118E0;-1.027388096E0
1.499090631E1;-9.826727509E-1;-2.888397694E0;-1.370205641E0
1.500281725E1;-1.132788539E0;-2.199568748E0;-1.656596661E0
1.501474225E1;-1.171115875E0;-1.190279603E0;-1.916371465E0
1.502664069E1;-1.005030394E0;-1.596976258E-2;-2.002608299E0
1.503855162E1;-7.186393142E-1;7.803890705E-1;-1.755609274E0
1.505046413E1;-4.471533597E-1;1.023129463E0;-1.298874021E0
1.506238131E1;-3.513347805E-1;7.452555895E-1;-9.219876528E-1
1.507428756E1;-2.629687488E-1;1.469218135E-1;-6.164328456E-1
1.508619850E1;-1.149822921E-1;-7.090574503E-1;-2.842617631E-1
1.509810944E1;1.415985674E-1;-1.375528932E0;8.410741389E-2
1.511002194E1;5.003858805E-1;-1.566101432E0;4.471533597E-1
1.512193288E1;8.336216211E-1;-1.219025254E0;7.505788207E-1
1.513384381E1;1.141305685E0;-6.792472601E-1;1.049745679E0
1.514575631E1;1.469218135E0;-1.788613349E-1;1.348912597E0
1.515766725E1;1.716217160E0;3.630459309E-1;1.489446521E0
1.516957975E1;1.847169161E0;9.124057889E-1;1.458571672E0
1.518151100E1;1.610816717E0;1.913177609E0;1.298874021E0
1.519340319E1;4.141491652E-1;1.867397547E0;5.706528425E-1
1.520531413E1;-8.825955391E-1;-2.129301662E-3;-9.102764726E-1
1.521722506E1;-8.825955391E-1;-4.471533597E-1;-2.394399643E0
1.522913756E1;-1.788613349E-1;7.612253428E-1;-2.147400856E0
1.524105475E1;1.937664598E-1;7.058635354E-1;-9.560564756E-1
1.525296100E1;1.479864717E-1;-4.503473043E-1;-6.281439960E-2
1.526487194E1;2.512575984E-1;-1.112560153E0;1.990897059E-1
1.527678288E1;3.619812727E-1;-9.049532413E-1;2.885203660E-1
1.528869538E1;6.387904882E-1;-8.421388268E-1;3.704984784E-1
1.530060631E1;1.055068970E0;-1.897207856E0;4.311835766E-1
1.531252038E1;9.688322544E-1;-2.089909554E0;3.939208090E-1
1.532442975E1;-5.749114603E-2;-1.543743759E-1;3.108780384E-1
1.533634069E1;-7.750658393E-1;9.603150487E-1;4.844161272E-1
1.534825319E1;-8.208457828E-1;8.921774030E-1;1.048681021E0
1.536016412E1;-5.908812284E-1;1.017806172E0;1.560778141E0
1.537208288E1;-1.330813617E-1;1.039099216E0;1.869526863E0
1.538398756E1;5.227435827E-1;3.800803423E-1;1.777966857E0
1.539590006E1;1.039099216E0;-4.876100719E-1;1.527773976E0
1.540781100E1;1.467088819E0;-1.230736375E0;1.535226464E0
1.541972350E1;1.672566414E0;-1.384046078E0;1.684277654E0
1.543163444E1;1.883367300E0;-1.647014856E0;1.852492452E0
1.544354538E1;2.001543522E0;-1.809906483E0;1.831199408E0
1.545545631E1;2.015383959E0;-1.276516318E0;1.642756224E0
1.546736881E1;1.982379913E0;-3.193952609E-3;1.443666577E0
1.547928131E1;2.018578053E0;3.666657448E0;1.397886515E0
1.549120162E1;1.796065927E0;5.956721306E0;1.459636331E0
1.550310788E1;1.437278628E0;5.405232430E0;1.467088819E0
1.551501881E1;9.635090232E-1;3.781639814E0;1.324425697E0
1.552692819E1;6.345319152E-1;2.127172470E0;1.089137793E0
1.553883912E1;5.781053901E-1;1.014612198E0;9.773494601E-1
1.555075006E1;7.505788207E-1;3.492054641E-1;1.023129463E0
1.556266256E1;1.010353684E0;1.426632106E-1;1.131723881E0
1.557457350E1;1.143435001E0;-2.768092230E-2;1.195602894E0
1.558648444E1;1.104042888E0;-3.704984784E-1;1.188150287E0
1.559840944E1;9.028239250E-1;-1.046551824E0;1.167922020E0
1.561030788E1;7.750658393E-1;-1.697053432E0;1.196667552E0
1.562222038E1;7.761304379E-1;-2.022836685E0;1.162598729E0
1.563413131E1;8.293629885E-1;-1.916371465E0;1.074232697E0
1.564604381E1;8.133932352E-1;-1.427696824E0;9.454099536E-1
1.565795475E1;6.579542160E-1;-8.272337317E-1;8.400095105E-1
1.566986881E1;4.514119625E-1;-3.438822329E-1;7.197039723E-1
1.568177819E1;1.948311031E-1;5.003859103E-2;5.514891148E-1
1.569368912E1;-1.064650831E-3;1.703441292E-1;3.704984784E-1
1.570560163E1;-1.288227588E-1;3.513347730E-2;2.108008713E-1
1.571751256E1;-1.948311031E-1;-2.054776102E-1;1.085943878E-1
1.572945788E1;-2.225120217E-1;-4.109552205E-1;3.300417587E-2
1.574133444E1;-2.406110913E-1;-4.546059072E-1;-1.022064835E-1
1.575324694E1;-2.746799290E-1;2.523222566E-1;-2.608394623E-1
1.576515944E1;-4.727049768E-1;2.011125326E0;-3.704984784E-1
1.577707038E1;-8.357509375E-1;2.602006674E0;-6.121742129E-1
1.578898131E1;-1.313779116E0;2.553032637E0;-9.773494601E-1
1.580089381E1;-1.836522698E0;3.075776339E0;-1.295680046E0
1.581280475E1;-2.408240318E0;3.704984903E0;-1.693859458E0
1.582471569E1;-2.811742783E0;3.931755543E0;-2.269835472E0
1.583662819E1;-2.977828503E0;4.011604309E0;-2.872427940E0
1.584853912E1;-2.609459162E0;2.569002390E0;-3.367490530E0
1.586045163E1;-1.817358971E0;1.639562249E-1;-3.600649118E0
1.587236256E1;-1.197732210E0;-1.243512154E0;-3.628329992E0
1.588427350E1;-9.805434346E-1;-1.106172204E0;-3.411141396E0
1.589618600E1;-8.027467132E-1;-9.720262289E-1;-3.029996395E0
1.590809850E1;-6.238853931E-1;-7.889062762E-1;-2.462537289E0
1.592000944E1;-5.653296113E-1;-3.917915225E-1;-1.911048293E0
1.593192038E1;-6.355965734E-1;2.661627159E-2;-1.305261970E0
1.594383288E1;-7.271565199E-1;-1.064650863E-1;-7.995527983E-1
1.595574850E1;-8.251044154E-1;-4.365068376E-1;-6.984109282E-1
1.596766100E1;-9.166643620E-1;-8.985652924E-1;-8.857895136E-1
1.597956725E1;-1.026323438E0;-1.327619553E0;-1.293550730E0
1.599147819E1;-1.164728045E0;-1.384046078E0;-1.711958528E0
1.600339069E1;-1.196667552E0;-1.010353684E0;-2.023901224E0
1.601530475E1;-1.112560153E0;-4.152138233E-1;-2.095232964E0
1.602722506E1;-8.751429915E-1;4.428947568E-1;-1.862074375E0
1.603912506E1;-5.908812284E-1;9.528625011E-1;-1.447925091E0
1.605103756E1;-4.588645101E-1;8.442681432E-1;-1.146628976E0
1.606294850E1;-4.471533597E-1;2.874557376E-1;-8.836601973E-1
1.607485944E1;-4.141491652E-1;-3.406882584E-1;-6.547602415E-1
1.608678288E1;-2.565808594E-1;-9.368927479E-1;-3.704984784E-1
1.609868288E1;3.726277873E-2;-1.323361039E0;1.064650831E-3
1.611059538E1;3.715631366E-1;-1.357429862E0;3.747570813E-1
1.612250631E1;8.059406877E-1;-1.150887609E0;7.889062762E-1
1.613441725E1;1.144499660E0;-1.137047052E0;1.094461083E0
1.614632975E1;1.501157641E0;-9.560564756E-1;1.387240052E0
1.615824069E1;1.752415299E0;-4.695110321E-1;1.552260876E0
1.617015319E1;1.949375629E0;2.065422684E-1;1.614010692E0
1.618206412E1;1.803518534E0;1.015676856E0;1.581006527E0
1.619397506E1;5.057091713E-1;1.061456919E0;1.076362014E0
1.620588913E1;-1.075297356E0;2.097362131E-1;-1.831199378E-1
1.621779850E1;-9.464746118E-1;2.757445574E-1;-1.549067020E0
1.622971100E1;7.133160532E-2;8.836601973E-1;-1.766255736E0
1.624162194E1;5.493598580E-1;3.449468613E-1;-9.879959822E-1
1.625354069E1;3.885975480E-1;-7.633546591E-1;-3.385589719E-1
1.626544538E1;3.311064243E-1;-1.236059666E0;6.174974889E-2
1.627735631E1;3.343003690E-1;-9.092118144E-1;2.331585288E-1
1.628926881E1;6.409198046E-1;-1.015676856E0;3.247185051E-1
1.630117975E1;1.057198286E0;-2.046258926E0;3.523994386E-1
1.631309381E1;7.495141625E-1;-1.537355781E0;2.789385319E-1
1.632501256E1;-5.525537729E-1;1.174309850E0;2.320938855E-1
1.633691412E1;-1.230736375E0;1.876979470E0;4.567352235E-1
1.634882662E1;-9.720262289E-1;1.068909407E0;9.688322544E-1
1.636073756E1;-3.854036033E-1;7.026695609E-1;1.495834470E0
1.637265006E1;4.588645101E-1;8.517206460E-2;1.755609274E0
1.638456100E1;1.031646609E0;-8.272337317E-1;1.631045103E0
1.639647194E1;1.354235888E0;-2.012190104E0;1.489446521E0
1.640838444E1;1.464959502E0;-2.622235060E0;1.579941869E0
1.642029694E1;1.493705153E0;-2.570067167E0;1.835458040E0
1.643221412E1;1.525644660E0;-2.132495642E0;1.956828237E0
1.644411881E1;1.631045103E0;-1.431955338E0;1.925953388E0
1.645602975E1;1.781160831E0;-9.901253134E-2;1.736445546E0
1.646794225E1;1.956828237E0;2.866039991E0;1.500092983E0
1.647985475E1;1.845039964E0;5.131617069E0;1.309520483E0
1.649178444E1;1.586329699E0;4.811157227E0;1.329748869E0
1.650367819E1;1.337201476E0;3.791221619E0;1.412791610E0
1.651558912E1;1.046551824E0;2.406111002E0;1.374464273E0
1.652750006E1;9.294402003E-1;1.453248382E0;1.179633141E0
1.653941256E1;9.794787765E-1;9.315694571E-1;1.067844748E0
1.655135319E1;1.096590400E0;6.196267605E-1;1.094461083E0
1.656323600E1;1.170051217E0;3.800803423E-1;1.215831280E0
1.657514694E1;1.122141957E0;1.437278688E-1;1.326554894E0
1.658705788E1;9.922545552E-1;-2.395464331E-1;1.384046078E0
1.659897038E1;8.251044154E-1;-7.740011811E-1;1.423438191E0
1.661088131E1;7.314151525E-1;-1.296744704E0;1.417050242E0
1.662279225E1;7.899709344E-1;-1.509674907E0;1.329748869E0
1.663470475E1;9.464746118E-1;-1.151952267E0;1.207314014E0
1.664661569E1;9.379574060E-1;-2.650980651E-1;1.038034558E0
1.665852819E1;5.419072509E-1;1.724734306E-1;9.155997038E-1
1.667043912E1;3.513347730E-2;3.406882659E-2;7.580313683E-1
1.668235006E1;-3.044901490E-1;-2.672273517E-1;5.482951999E-1
1.669426256E1;-4.737696350E-1;-5.578770638E-1;2.682920098E-1
1.670617350E1;-4.727049768E-1;-7.292858362E-1;1.596976258E-2
1.671808600E1;-3.768863976E-1;-6.377258301E-1;-2.182534188E-1
1.673000006E1;-3.257831633E-1;-8.197811246E-2;-3.481408358E-1
1.674190788E1;-4.077612758E-1;8.581085801E-1;-4.120198786E-1
1.675382038E1;-7.367383838E-1;1.458571672E0;-5.898165703E-1
1.676573131E1;-1.178568482E0;1.640626907E0;-9.283755422E-1
1.677764381E1;-1.843975306E0;2.099491358E0;-1.471347451E0
1.678955475E1;-2.365654230E0;2.492347717E0;-1.930212021E0
1.680148600E1;-2.743605137E0;2.605200529E0;-2.414628029E0
1.681337819E1;-2.974634409E0;2.691437244E0;-2.937371731E0
1.682528912E1;-2.831971169E0;2.131430864E0;-3.320646048E0
1.683720163E1;-2.198503971E0;3.396236300E-1;-3.508024454E0
1.684911881E1;-1.602299571E0;-1.102978230E0;-3.541028738E0
1.686102506E1;-1.311649799E0;-1.019935489E0;-3.290835857E0
1.687293600E1;-1.143435001E0;-2.022836544E-2;-2.960793972E0
1.688484850E1;-8.474620581E-1;5.993984342E-1;-2.487024307E0
1.689675944E1;-6.036570072E-1;8.538499475E-1;-1.929147363E0
1.690867038E1;-5.270021558E-1;8.346862793E-1;-1.467088819E0
1.692058288E1;-5.291314721E-1;3.960501254E-1;-1.110430837E0
1.693249381E1;-5.685235262E-1;-3.385589719E-1;-1.066780090E0
1.694440631E1;-6.100449562E-1;-1.048681021E0;-1.262675881E0
1.695631725E1;-6.185621619E-1;-1.514998198E0;-1.529903293E0
1.696824069E1;-5.972691178E-1;-1.757738590E0;-1.791807413E0
1.698014225E1;-6.558248997E-1;-1.545873046E0;-1.971733332E0
1.699205319E1;-7.463202477E-1;-1.008224368E0;-2.114396572E0
1.700396412E1;-7.207686305E-1;-4.066966176E-1;-2.100556135E0
1.701587506E1;-5.812993646E-1;-6.174974889E-2;-1.749221325E0
1.702778756E1;-3.811450005E-1;9.368927032E-2;-1.282904267E0
1.703969850E1;-2.033483088E-1;-1.980250627E-1;-9.262462258E-1
1.705160944E1;-4.152138159E-2;-7.047988772E-1;-6.089802980E-1
1.706352194E1;8.410741389E-2;-1.147693634E0;-3.151366413E-1
1.707543288E1;2.459343374E-1;-1.447925091E0;9.368927032E-2
1.708734538E1;5.184849501E-1;-1.491575837E0;5.770407319E-1
1.709925631E1;8.485267162E-1;-1.313779116E0;1.024194121E0
1.711116725E1;1.254158735E0;-1.061456919E0;1.521386027E0
1.712307975E1;1.598040938E0;-8.240397573E-1;1.838652015E0
1.713499069E1;1.831199408E0;-3.747570813E-1;1.954698920E0
1.714690319E1;1.864203572E0;1.554390192E-1;1.898272395E0
1.715882038E1;1.487317204E0;8.006174564E-1;1.780096173E0
1.717072662E1;-5.120970607E-1;4.226663709E-1;9.709615707E-1
1.718263756E1;-1.330813527E0;-8.836601973E-1;-7.197039723E-1
1.719454850E1;-4.397007823E-1;-1.224348471E-1;-2.331585407E0
1.720646412E1;5.504244566E-1;1.310585141E0;-2.358201504E0
1.721837194E1;6.717946529E-1;9.560564756E-1;-1.336136818E0
1.723028288E1;4.577998444E-2;-2.927789688E-1;-5.983337760E-1
1.724219538E1;-1.682148278E-1;-1.041228533E0;-5.855579674E-2
1.725410631E1;1.266934574E-1;-1.236059666E0;2.427403927E-1
1.726603756E1;7.207686305E-1;-1.901466370E0;5.312607884E-1
1.727793600E1;1.211572647E0;-2.896914959E0;9.496685266E-1
1.728984069E1;1.040163875E0;-2.956535339E0;1.073168039E0
1.730175319E1;-2.949082851E-1;-1.384046115E-2;8.932420611E-1
1.731366413E1;-1.031646609E0;1.135982394E0;5.035798550E-1
1.732557506E1;-8.804662228E-1;7.867769599E-1;5.568124056E-1
1.733748756E1;-4.929333329E-1;8.325569630E-1;9.592503905E-1
1.734940006E1;-8.517206647E-3;9.070824981E-1;1.403209805E0
1.736131100E1;3.822096586E-1;8.144578934E-1;1.644885540E0
1.737322194E1;6.185621619E-1;3.098133802E-1;1.650208831E0
1.738513444E1;7.718718648E-1;-2.033483088E-1;1.751350641E0
1.739705788E1;9.890606403E-1;-3.758217394E-1;1.957892895E0
1.740896256E1;1.276516318E0;-3.321710527E-1;2.071810484E0
1.742086881E1;1.642756224E0;-5.546830893E-1;1.928082705E0
1.743278131E1;1.906789660E0;-7.601606846E-1;1.652338147E0
1.744469225E1;1.934470534E0;-8.144578934E-1;1.430890679E0
1.745660319E1;1.889755249E0;-7.133160830E-1;1.319102407E0
1.746851569E1;2.019642591E0;-3.087487519E-1;1.305261970E0
1.748042662E1;2.267706394E0;1.620398521E0;1.388304710E0
1.749233912E1;2.088845015E0;4.210693836E0;1.513933539E0
1.750425163E1;1.526709318E0;3.993505239E0;1.382981420E0
1.751618131E1;9.177290201E-1;2.837294579E0;1.133853197E0
1.752807350E1;4.790928662E-1;1.438343287E0;9.262462258E-1
1.753998912E1;4.237310290E-1;5.930105448E-1;8.847248554E-1
1.755189694E1;6.057863235E-1;2.182534188E-1;9.603150487E-1
1.756380788E1;7.111867666E-1;-8.517206647E-3;1.019935489E0
1.757572506E1;6.643421054E-1;-3.343003690E-1;1.035905242E0
1.758763131E1;5.578770638E-1;-7.644193172E-1;1.040163875E0
1.759954225E1;5.131617188E-1;-1.233930349E0;1.016741514E0
1.761145475E1;6.079156399E-1;-1.448989749E0;1.006095052E0
1.762337194E1;7.825183868E-1;-1.194538236E0;9.773494601E-1
1.763527819E1;8.889834285E-1;-4.524766207E-1;9.049532413E-1
1.764718912E1;7.527081370E-1;2.789385319E-1;8.357509375E-1
1.765910006E1;3.907268643E-1;7.622900009E-1;7.771950960E-1
1.767101256E1;-9.581857361E-3;7.378030419E-1;6.686007380E-1
1.768292350E1;-2.544515431E-1;4.322482347E-1;4.748342633E-1
1.769483600E1;-3.364296556E-1;9.901253134E-2;2.757445574E-1
1.770674694E1;-3.534640670E-1;-1.724734306E-1;8.304276317E-2
1.771865788E1;-3.619812727E-1;-1.064650863E-1;-1.171115935E-1
1.773057038E1;-4.577998519E-1;5.940751433E-1;-3.172659576E-1
1.774248131E1;-7.612253428E-1;1.271193147E0;-5.248728395E-1
1.775439381E1;-1.126400590E0;1.220089912E0;-7.079927921E-1
1.776630475E1;-1.593782306E0;1.221154571E0;-9.368927479E-1
1.777821569E1;-2.026030540E0;1.617204666E0;-1.323361039E0
1.779012819E1;-2.496606112E0;2.396528959E0;-2.012190104E0
1.780204538E1;-2.698889971E0;2.466795921E0;-2.549838781E0
1.781395162E1;-2.558356047E0;1.394692659E0;-2.973569870E0
1.782586256E1;-2.079262972E0;-5.025151968E-1;-3.259960890E0
1.783777350E1;-1.632109761E0;-1.907854319E0;-3.340874434E0
1.784968600E1;-1.354235888E0;-2.143142223E0;-3.255702257E0
1.786161100E1;-1.271193147E0;-1.204120159E0;-3.069388390E0
1.787351412E1;-1.107236862E0;-6.345319152E-1;-2.715924263E0
1.788542038E1;-8.975006342E-1;-1.724734306E-1;-2.125043154E0
1.789733288E1;-7.292858362E-1;4.035026729E-1;-1.439407945E0
1.790925475E1;-6.920230389E-1;7.761304379E-1;-1.011418343E0
1.792115475E1;-7.409969568E-1;6.015277505E-1;-1.006095052E0
1.793306725E1;-8.027467132E-1;1.927018017E-1;-1.194538236E0
1.794498288E1;-8.293629885E-1;-1.415985674E-1;-1.420244217E0
1.795689069E1;-6.579542160E-1;-5.674588680E-1;-1.596976280E0
1.796880162E1;-3.311064243E-1;-1.171115875E0;-1.685342312E0
1.798073444E1;-1.011418328E-1;-1.525644660E0;-1.744962692E0
1.799263131E1;-4.577998444E-2;-1.304197311E0;-1.823746920E0
1.800453756E1;-1.501157731E-1;-7.803890705E-1;-1.873785496E0
1.801644850E1;-2.288999259E-1;-2.384817898E-1;-1.773708344E0
1.802836100E1;-2.501929402E-1;-1.075297371E-1;-1.435149312E0
1.804027194E1;-2.278352827E-1;-4.066966176E-1;-1.009289026E0
1.805218288E1;-8.304276317E-2;-8.059406877E-1;-6.749886274E-1
1.806409538E1;1.139176413E-1;-1.223283768E0;-3.364296556E-1
1.807600631E1;3.193952441E-1;-1.634239078E0;1.000771821E-1
1.808791881E1;5.344547033E-1;-1.909983635E0;5.632002950E-1
1.809983444E1;7.952941656E-1;-1.897207856E0;1.061456919E0
1.811174069E1;1.096590400E0;-1.648079515E0;1.499028325E0
1.812365162E1;1.467088819E0;-1.215831280E0;1.916371465E0
1.813556413E1;1.768385053E0;-7.346090674E-1;2.113332033E0
1.814747662E1;1.974927306E0;1.032711342E-1;2.046258926E0
1.815939850E1;1.849298477E0;1.125335932E0;1.804583192E0
1.817129850E1;8.133932352E-1;2.417822123E0;1.307391286E0
1.818321100E1;-1.278645635E0;9.677675962E-1;-1.394692659E-1
1.819512194E1;-9.816080928E-1;-8.410741389E-2;-1.608687401E0
1.820703444E1;2.949082851E-1;6.451784372E-1;-2.587101460E0
1.821895163E1;7.388677001E-1;1.452183723E0;-1.993026376E0
1.823085788E1;2.523222566E-1;8.187164664E-1;-1.186021090E0
1.824276881E1;-1.554390192E-1;-2.661627233E-1;-5.653296113E-1
1.825467975E1;-2.086715698E-1;-7.750658393E-1;8.517206647E-3
1.826659225E1;2.714859545E-1;-1.364882350E0;2.757445574E-1
1.827850788E1;1.074232697E0;-2.977828503E0;5.227435827E-1
1.829041725E1;1.435149312E0;-4.186207294E0;8.985652924E-1
1.830232663E1;1.115754128E0;-3.988182068E0;9.986425042E-1
1.831423756E1;-6.686007380E-1;5.323254038E-3;9.124057889E-1
1.832615006E1;-1.661919951E0;1.666178584E0;6.984109282E-1
1.833806569E1;-1.584200501E0;1.638497591E0;7.537727952E-1
1.834998131E1;-9.635090232E-1;1.572489262E0;1.000771761E0
1.836188444E1;-1.330813617E-1;9.443452954E-1;1.256287932E0
1.837379538E1;6.153681874E-1;-2.714859545E-1;1.410662413E0
1.838570788E1;1.050810337E0;-1.874850154E0;1.348912597E0
1.839762506E1;1.330813527E0;-3.082164288E0;1.297809362E0
1.840953131E1;1.527773976E0;-3.395171642E0;1.331878185E0
1.842144225E1;1.748156667E0;-3.505895138E0;1.263740540E0
1.843335475E1;1.965345502E0;-3.426046371E0;1.058262944E0
1.844526569E1;2.183598757E0;-2.612653255E0;8.762076497E-1
1.845719225E1;2.368848085E0;-7.026695460E-2;8.730136752E-1
1.846909538E1;2.419951439E0;3.841260195E0;1.128529906E0
1.848100006E1;2.365654230E0;4.581192493E0;1.422373533E0
1.849291256E1;2.174016953E0;3.694338322E0;1.530967951E0
1.850482350E1;1.804583192E0;2.203827143E0;1.393628001E0
1.851673444E1;1.554390192E0;1.362753034E0;1.146628976E0
1.852864694E1;1.368076324E0;1.353171229E0;1.018870831E0
1.854055788E1;1.194538236E0;1.651273489E0;1.132788539E0
1.855247038E1;1.045487165E0;1.189214945E0;1.304197311E0
1.856438131E1;8.229750991E-1;-2.725506127E-1;1.437278628E0
1.857629225E1;6.856351495E-1;-1.372334957E0;1.403209805E0
1.858822194E1;6.866998076E-1;-1.781160831E0;1.327619553E0
1.860011569E1;7.218332887E-1;-1.855686426E0;1.227542400E0
1.861202975E1;7.271565199E-1;-1.421308875E0;1.163663387E0
1.862393912E1;7.250272036E-1;-5.791700482E-1;1.168986678E0
1.863585162E1;6.611481905E-1;2.214473784E-1;1.147693634E0
1.864776256E1;4.663170576E-1;8.027467132E-1;1.024194121E0
1.865967350E1;2.225120217E-1;1.114689469E0;8.932420611E-1
1.867158600E1;-6.281439960E-2;1.155146122E0;7.346090674E-1
1.868349694E1;-2.672273517E-1;7.282211781E-1;4.876100719E-1
1.869541881E1;-3.193952441E-1;3.758217394E-1;2.001543641E-1
1.870732662E1;-2.938436270E-1;4.961272776E-1;-1.011418328E-1
1.871923600E1;-3.311064243E-1;1.122141957E0;-3.800803423E-1
1.873114381E1;-5.834286809E-1;2.196374655E0;-5.940751433E-1
1.874305475E1;-1.138111711E0;2.786191225E0;-7.963588238E-1
1.875496881E1;-1.727928281E0;2.377365351E0;-1.043357849E0
1.876687819E1;-2.279417515E0;2.747863770E0;-1.443666577E0
1.877878912E1;-3.002315283E0;4.474727631E0;-2.015383959E0
1.879070006E1;-3.144978523E0;3.999893188E0;-2.541321516E0
1.880261256E1;-2.361395597E0;6.121742129E-1;-3.076840878E0
1.881452975E1;-1.559713483E0;-2.089909554E0;-3.297223568E0
1.882644381E1;-9.965131879E-1;-3.729471922E0;-3.366425991E0
1.883834694E1;-6.494370103E-1;-4.224534512E0;-3.427111149E0
1.885025944E1;-5.578770638E-1;-3.038513422E0;-3.426046371E0
1.886217038E1;-4.577998519E-1;-1.955763578E0;-3.085358143E0
1.887408131E1;-4.003087282E-1;-1.359559178E0;-2.504058838E0
1.888599694E1;-4.758989215E-1;-3.577226698E-1;-1.753479958E0
1.889790631E1;-7.005402446E-1;6.632774472E-1;-9.709615707E-1
1.890981725E1;-9.411513209E-1;1.164728045E0;-5.057091713E-1
1.892172975E1;-1.042293191E0;8.719490170E-1;-4.758989215E-1
1.893365631E1;-9.986425042E-1;1.437278688E-1;-7.793244123E-1
1.894555319E1;-8.815308809E-1;-4.546059072E-1;-1.163663387E0
1.895746412E1;-6.856351495E-1;-1.068909407E0;-1.477735400E0
1.896937506E1;-4.812221825E-1;-1.923824072E0;-1.673631072E0
1.898128756E1;-3.843389452E-1;-2.458278894E0;-1.813100338E0
1.899321256E1;-4.918686748E-1;-2.130366325E0;-1.919565439E0
1.900510944E1;-5.429719090E-1;-1.318037748E0;-1.904660344E0
1.901702194E1;-3.715631366E-1;-4.514119625E-1;-1.699182749E0
1.902893288E1;-1.671501845E-1;-1.011418328E-1;-1.292486072E0
1.904084538E1;-1.160469428E-1;-3.683691919E-1;-8.921774030E-1
1.905276256E1;-5.110324174E-2;-7.079927921E-1;-5.525537729E-1
1.906466725E1;1.160469428E-1;-9.805434346E-1;-1.756673902E-1
1.907657975E1;3.438822329E-1;-1.072103381E0;2.012190074E-1
1.908849069E1;6.781826019E-1;-9.698969126E-1;6.079156399E-1
1.910040319E1;1.036969900E0;-7.452555895E-1;9.943838716E-1
1.911231412E1;1.379787445E0;-3.960501254E-1;1.283968925E0
1.912422663E1;1.617204666E0;-1.927018017E-1;1.403209805E0
1.913613756E1;1.825876236E0;8.517206460E-2;1.473476768E0
1.914804850E1;1.801389217E0;6.643421054E-1;1.490511179E0
1.915996100E1;7.729365230E-1;1.111495495E0;1.075297356E0
1.917187194E1;-6.686007380E-1;-2.278352827E-1;-4.173431396E-1
1.918378912E1;-5.951398015E-1;-3.768863976E-1;-1.918500781E0
1.919569538E1;-6.600835174E-2;1.179633141E0;-2.451890945E0
1.920760631E1;3.098133802E-1;1.560778141E0;-1.725798965E0
1.921951881E1;-1.724734306E-1;6.558248997E-1;-9.507331848E-1
1.923143600E1;-4.322482347E-1;6.813765317E-2;-4.822868407E-1
1.924334069E1;-1.788613349E-1;-1.788613349E-1;-1.277581044E-2
1.925525319E1;4.865454435E-1;-9.698969126E-1;2.821324766E-1
1.926716412E1;1.272257805E0;-2.545580149E0;7.016049027E-1
1.927907663E1;1.402145147E0;-3.289771080E0;1.022064805E0
1.929098756E1;9.539271593E-1;-2.941630363E0;1.101913571E0
1.930291256E1;-5.781053901E-1;-3.843389452E-1;1.025258780E0
1.931482975E1;-1.283968925E0;1.417050242E0;7.899709344E-1
1.932672194E1;-8.943067193E-1;2.242154598E0;9.656383395E-1
1.933863444E1;-1.767320335E-1;2.596683502E0;1.459636331E0
1.935054538E1;4.588645101E-1;2.347555161E0;1.789678097E0
1.936245631E1;7.218332887E-1;1.524580002E0;1.949375629E0
1.937436881E1;8.293629885E-1;4.216017425E-1;1.930212021E0
1.938627975E1;1.072103381E0;-3.949854672E-1;1.839716673E0
1.939819225E1;1.516062737E0;-8.080700040E-1;1.730057597E0
1.941010475E1;1.968539357E0;-1.144499660E0;1.700247407E0
1.942201725E1;2.177211046E0;-1.403209805E0;1.684277654E0
1.943392662E1;2.230443478E0;-1.473476768E0;1.653402805E0
1.944583913E1;2.284740686E0;-9.784141183E-1;1.567166090E0
1.945775006E1;2.381623983E0;6.611481905E-1;1.455377698E0
1.946966256E1;2.330520630E0;3.621942043E0;1.443666577E0
1.948157350E1;2.033483028E0;4.567352295E0;1.434084654E0
1.949348600E1;1.571424603E0;4.105293751E0;1.314843774E0
1.950539694E1;1.177503824E0;3.131138086E0;1.207314014E0
1.951730788E1;8.485267162E-1;1.987703085E0;1.176439166E0
1.952922662E1;6.866998076E-1;1.011418343E0;1.246706128E0
1.954113756E1;6.494370103E-1;3.523994386E-1;1.314843774E0
1.955304381E1;6.079156399E-1;-1.586329788E-1;1.335072160E0
1.956495475E1;5.046445131E-1;-6.558248997E-1;1.302067995E0
1.957686569E1;4.908040464E-1;-1.205184698E0;1.237124324E0
1.958877819E1;6.728593111E-1;-1.486252546E0;1.154081464E0
1.960068913E1;9.443452954E-1;-1.201990843E0;1.084879160E0
1.961260006E1;9.517978430E-1;-5.685235262E-1;9.603150487E-1
1.962452038E1;5.493598580E-1;-3.513347730E-2;8.197811246E-1
1.963642350E1;2.874557301E-2;2.608394623E-1;7.026695609E-1
1.964833600E1;-3.193952441E-1;2.821324766E-1;5.270021558E-1
1.966024694E1;-5.120970607E-1;9.794788063E-2;2.831971347E-1
1.967215788E1;-5.482951999E-1;-2.800031602E-1;2.555162087E-2
1.968407038E1;-4.482180178E-1;-3.758217394E-1;-2.555162013E-1
1.969598131E1;-3.087487519E-1;3.481408358E-1;-5.174202919E-1
1.970789381E1;-4.194724262E-1;1.254158735E0;-6.036570072E-1
1.971980631E1;-7.740011811E-1;1.464959502E0;-8.027467132E-1
1.973171725E1;-1.183891773E0;1.434084654E0;-1.097655058E0
1.974362819E1;-1.756673932E0;2.037741661E0;-1.532032609E0
1.975553913E1;-2.326261997E0;2.903302908E0;-2.160176516E0
1.976747350E1;-2.665885687E0;2.854328871E0;-2.819195509E0
1.977936881E1;-2.670144320E0;1.974927306E0;-3.292964935E0
1.979127506E1;-2.474248648E0;9.975778461E-1;-3.551675320E0
1.980318600E1;-2.207021236E0;4.088259339E-1;-3.533576250E0
1.981509694E1;-2.013254642E0;4.993212521E-1;-3.272736788E0
1.982700944E1;-1.881237984E0;5.610709786E-1;-2.890527010E0
1.983893131E1;-1.784354806E0;2.874557376E-1;-2.454020262E0
1.985083131E1;-1.647014856E0;1.916371584E-1;-1.911048293E0
1.986274381E1;-1.530967951E0;4.056319594E-1;-1.411727071E0
1.987465475E1;-1.443666577E0;6.206914186E-1;-1.073168039E0
1.988658756E1;-1.316973090E0;2.065422684E-1;-1.014612198E0
1.989848600E1;-1.214766622E0;-2.576455176E-1;-1.084879160E0
1.991039069E1;-1.016741514E0;-8.038113713E-1;-1.242447495E0
1.992230163E1;-6.813765168E-1;-1.537355781E0;-1.325490236E0
1.993421412E1;-2.810678184E-1;-2.142077446E0;-1.443666577E0
1.994612662E1;-1.714087874E-1;-1.820552945E0;-1.714087844E0
1.995804069E1;-3.364296556E-1;-5.419072509E-1;-2.183598757E0
1.996994850E1;-3.513347805E-1;5.355193615E-1;-2.539192200E0
1.998186100E1;-2.161241174E-1;1.233930349E0;-2.502994061E0
1.999377194E1;-1.703441292E-1;1.318037748E0;-2.036677122E0
2.000568600E1;-1.660855263E-1;8.687551022E-1;-1.423438191E0
2.001759538E1;-1.224348471E-1;1.181762442E-1;-8.112639189E-1
2.002950631E1;2.342231758E-2;-6.568895578E-1;-2.693566680E-1
2.004141725E1;2.352878302E-1;-1.358494520E0;2.416757345E-1
2.005332975E1;5.419072509E-1;-1.900401711E0;7.857123017E-1
2.006524069E1;8.783369660E-1;-2.097362041E0;1.339330792E0
2.007715319E1;1.355300546E0;-1.965345502E0;1.913177609E0
2.008906412E1;1.805647850E0;-1.414920926E0;2.269835472E0
2.010097662E1;2.194245338E0;-4.066966176E-1;2.345425844E0
2.011288756E1;2.208085775E0;8.517206907E-1;2.167629004E0
2.012481725E1;1.863138974E-1;1.725798965E0;1.470282793E0
2.013671100E1;-1.232865691E0;-7.282211781E-1;-2.129301615E-2
2.014862194E1;-5.568124056E-1;-1.054004312E0;-1.617204666E0
2.016053444E1;3.885975480E-1;1.084879160E0;-2.474248648E0
2.017244538E1;8.006174564E-1;2.132495642E0;-1.622527838E0
2.018435944E1;6.174974889E-2;1.264805198E0;-7.548374534E-1
2.019627194E1;-4.567352235E-1;-5.749114603E-2;-1.703441292E-1
2.020817975E1;-6.366612315E-1;-1.437278688E-1;7.771950960E-2
2.022009225E1;-1.522450745E-1;-8.783369660E-1;1.650208831E-1
2.023200319E1;8.975006342E-1;-3.143913984E0;2.938436270E-1
2.024391412E1;1.106172204E0;-3.923238277E0;2.587101460E-1
2.025583288E1;4.450240433E-1;-2.668015003E0;3.044901490E-1
2.026773756E1;-1.464959502E0;1.402145147E0;6.696653962E-1
2.027965006E1;-1.809906483E0;2.047323465E0;1.085943818E0
2.029156100E1;-1.320167065E0;2.013254642E0;1.267999172E0
2.030347194E1;-5.291314721E-1;1.571424603E0;1.414920926E0
2.031538444E1;3.619812727E-1;6.643421054E-1;1.505416274E0
2.032729538E1;8.336216211E-1;-2.235766798E-1;1.583135843E0
2.033920631E1;1.158340096E0;-9.496685266E-1;1.656596661E0
2.035111881E1;1.436213970E0;-1.376593590E0;1.600170255E0
2.036304538E1;1.578877211E0;-1.875914812E0;1.536291122E0
2.037494225E1;1.798195243E0;-2.163370609E0;1.523515344E0
2.038685631E1;2.099491358E0;-1.939793825E0;1.586329699E0
2.039876569E1;2.313486338E0;-1.518192053E0;1.587394357E0
2.041067662E1;2.517899275E0;-8.187164664E-1;1.565036774E0
2.042258913E1;2.695695877E0;1.693859458E0;1.618269324E0
2.043450006E1;2.431662560E0;4.341646194E0;1.790742755E0
2.044641256E1;2.010060787E0;4.227728367E0;1.784354806E0
2.045832350E1;1.519256711E0;2.789385319E0;1.575683236E0
2.047023444E1;1.111495495E0;1.436213970E0;1.361688375E0
2.048214694E1;9.784141183E-1;5.717175007E-1;1.274387002E0
2.049406412E1;1.014612198E0;-1.266934574E-1;1.301003337E0
2.050597038E1;9.624443650E-1;-8.602378964E-1;1.387240052E0
2.051788131E1;8.357509375E-1;-1.216895938E0;1.421308875E0
2.052979381E1;7.239625454E-1;-1.197732210E0;1.396821856E0
2.054170475E1;6.270793676E-1;-1.047616482E0;1.330813527E0
2.055361569E1;6.324025989E-1;-1.120012641E0;1.237124324E0
2.056552819E1;7.771950960E-1;-9.475392699E-1;1.222219110E0
2.057743912E1;9.166643620E-1;-2.203827202E-1;1.173245192E0
2.058935163E1;7.409969568E-1;5.940751433E-1;9.954485297E-1
2.060126256E1;3.225892186E-1;8.101992607E-1;8.825955391E-1
2.061317350E1;-8.517206460E-2;7.793244123E-1;7.495141625E-1
2.062508600E1;-3.609166443E-1;4.386361539E-1;5.866225958E-1
2.063699694E1;-4.301189482E-1;5.536184460E-2;3.662398756E-1
2.064890944E1;-3.981794119E-1;-5.642649531E-2;7.239625603E-2
2.066082038E1;-3.736924529E-1;7.026695460E-2;-2.203827202E-1
2.067274069E1;-4.258603454E-1;4.790928662E-1;-4.428947568E-1
2.068464381E1;-6.792472601E-1;1.181762457E0;-6.579542160E-1
2.069655475E1;-1.051874995E0;1.279710293E0;-7.495141625E-1
2.070846725E1;-1.427696824E0;9.794787765E-1;-9.826727509E-1
2.072037819E1;-1.862074375E0;1.563972116E0;-1.426632166E0
2.073231413E1;-2.362460136E0;2.542386293E0;-2.002608299E0
2.074420163E1;-2.547709465E0;2.299645901E0;-2.586036921E0
2.075611256E1;-2.377365351E0;7.889062762E-1;-3.148172617E0
2.076802506E1;-1.944052458E0;-1.082749963E0;-3.588937998E0
2.077993600E1;-1.590588331E0;-2.287934542E0;-3.892363548E0
2.079184694E1;-1.398951173E0;-2.794708490E0;-4.014798164E0
2.080375944E1;-1.458571672E0;-1.719411135E0;-3.768863916E0
2.081567038E1;-1.497963786E0;2.342231758E-2;-3.108780384E0
2.082758288E1;-1.376593590E0;1.332942843E0;-2.212344408E0
2.083952662E1;-1.167922020E0;2.138883591E0;-1.212637305E0
2.085141100E1;-9.826727509E-1;2.123978376E0;-5.025151968E-1
2.086331725E1;-8.208457828E-1;1.334007502E0;-2.757445574E-1
2.087522819E1;-7.952941656E-1;4.056319594E-1;-5.131617188E-1
2.088714069E1;-7.303504944E-1;-7.324797511E-1;-1.127465248E0
2.089905788E1;-5.568124056E-1;-1.939793825E0;-1.556519508E0
2.091096412E1;-3.907268643E-1;-3.236538649E0;-1.855686426E0
2.092287506E1;-3.140719831E-1;-3.854036093E0;-2.115461111E0
2.093478600E1;-3.811450005E-1;-3.358973503E0;-2.291128635E0
2.094669850E1;-4.588645101E-1;-1.556519508E0;-2.399723053E0
2.095860944E1;-3.726277947E-1;-4.077612758E-1;-2.240025282E0
2.097052350E1;-2.704213262E-1;1.905725002E-1;-1.895078540E0
2.098243288E1;-1.905725002E-1;2.576455176E-1;-1.386175394E0
2.099434538E1;-1.096590385E-1;-1.863138974E-1;-8.815308809E-1
2.100625631E1;3.513347730E-2;-8.953713775E-1;-4.098905623E-1
2.101817038E1;2.310292274E-1;-1.518192053E0;7.771950960E-2
2.103007975E1;5.323254466E-1;-1.754544616E0;7.101221085E-1
2.104199069E1;8.751429915E-1;-1.470282793E0;1.295680046E0
2.105390319E1;1.354235888E0;-9.209229946E-1;1.805647850E0
2.106581413E1;1.732186913E0;-5.238082409E-1;2.070745945E0
2.107773131E1;1.898272395E0;-4.844161272E-1;2.177211046E0
2.108964381E1;1.689600825E0;-3.321710527E-1;2.134624958E0
2.110154850E1;4.216017425E-1;4.109552205E-1;1.587394357E0
2.111346100E1;1.596976258E-2;-1.085943878E-1;6.387905218E-3
2.112537194E1;-1.192408949E-1;4.162784815E-1;-2.089909554E0
2.113728444E1;3.513347730E-2;1.848233819E0;-2.813872099E0
2.114919538E1;3.034254909E-1;2.281546831E0;-1.702376723E0
2.116110631E1;-2.086715698E-1;1.334007502E0;-7.803890705E-1
2.117301881E1;-4.716403186E-1;2.874557376E-1;-1.511804163E-1
2.118492975E1;-2.927789688E-1;-3.726277873E-2;2.810678184E-1
2.119684225E1;2.501929402E-1;-4.599291682E-1;4.130845368E-1
2.120875475E1;1.084879160E0;-1.930212021E0;5.589416623E-1
2.122068131E1;1.361688375E0;-2.826647997E0;8.048760295E-1
2.123257506E1;9.028239250E-1;-2.349684477E0;9.336987734E-1
2.124448756E1;-6.057863235E-1;7.388677001E-1;8.932420611E-1
2.125640006E1;-1.130659223E0;1.592717648E0;8.070053458E-1
2.126831256E1;-8.495913744E-1;1.278645635E0;1.100848913E0
2.128022194E1;-2.512575984E-1;8.070053458E-1;1.510739565E0
2.129213444E1;3.694338500E-1;4.716403186E-1;1.704506040E0
2.130404538E1;8.783369660E-1;1.746027321E-1;1.640626907E0
2.131596412E1;1.021000147E0;-5.642649531E-2;1.458571672E0
2.132788288E1;1.094461083E0;-2.267706245E-1;1.335072160E0
2.133977975E1;1.220089912E0;-2.544515431E-1;1.237124324E0
2.135169225E1;1.447925091E0;-3.587873280E-1;1.237124324E0
2.136360319E1;1.677889705E0;-5.344547033E-1;1.310585141E0
2.137551569E1;1.831199408E0;-7.133160830E-1;1.412791610E0
2.138742662E1;2.008996248E0;-7.026695609E-1;1.443666577E0
2.139933912E1;2.224055529E0;-3.907268643E-1;1.404274464E0
2.141125006E1;2.282611370E0;1.355300546E0;1.396821856E0
2.142316256E1;1.845039964E0;3.087487459E0;1.441537261E0
2.143507975E1;1.337201476E0;2.905432224E0;1.391498685E0
2.144699381E1;9.571211338E-1;1.909983635E0;1.326554894E0
2.145889694E1;8.644964695E-1;1.097655058E0;1.267999172E0
2.147080788E1;9.784141183E-1;5.035798550E-1;1.236059666E0
2.148272038E1;1.084879160E0;1.447925121E-1;1.234995008E0
2.149463756E1;1.062521577E0;1.362753063E-1;1.260546565E0
2.150654381E1;8.613025546E-1;2.725506127E-1;1.264805198E0
2.151845475E1;6.568895578E-1;1.171115879E-2;1.211572647E0
2.153036569E1;6.025923491E-1;-6.068509817E-1;1.120012641E0
2.154227819E1;7.314151525E-1;-1.035905242E0;1.042293191E0
2.155418912E1;9.539271593E-1;-9.581857324E-1;1.000771761E0
2.156610006E1;1.026323438E0;-3.704984784E-1;9.879959822E-1
2.157801256E1;7.335444093E-1;7.931648493E-1;9.624443650E-1
2.158992350E1;1.788613349E-1;1.753479958E0;9.187936783E-1
2.160183600E1;-3.406882584E-1;1.641691566E0;8.133932352E-1
2.161375319E1;-5.632002950E-1;7.921002507E-1;6.387904882E-1
2.162565944E1;-5.844933391E-1;3.406882659E-2;4.056319594E-1
2.163757038E1;-4.673817158E-1;-4.716403186E-1;5.536184460E-2
2.164948131E1;-3.406882584E-1;-4.460887015E-1;-2.874557376E-1
2.166139381E1;-3.417529166E-1;1.841845959E-1;-7.016049027E-1
2.167330475E1;-6.249500513E-1;9.081471562E-1;-9.038885832E-1
2.168522350E1;-1.094461083E0;1.388304710E0;-1.050810337E0
2.169712819E1;-1.589523673E0;1.325490236E0;-1.181762457E0
2.170903912E1;-1.972797990E0;1.301003337E0;-1.522450686E0
2.172095162E1;-2.332649946E0;1.542679071E0;-2.171887636E0
2.173286256E1;-2.543450832E0;1.686406970E0;-2.716989040E0
2.174478600E1;-2.517899275E0;1.172180533E0;-3.245055676E0
2.175668600E1;-2.218732357E0;-9.581857361E-3;-3.539963961E0
2.176859694E1;-1.842910647E0;-1.186021090E0;-3.660269499E0
2.178051569E1;-1.656596661E0;-1.578877211E0;-3.510153770E0
2.179243912E1;-1.771579027E0;-5.674588680E-1;-3.203534365E0
2.180433131E1;-1.862074375E0;8.389448524E-1;-2.711665630E0
2.181624381E1;-1.678954363E0;1.508610249E0;-2.110137939E0
2.182815475E1;-1.290356874E0;1.714087844E0;-1.368076324E0
2.184006725E1;-9.411513209E-1;1.490511179E0;-9.305048585E-1
2.185197819E1;-7.069281340E-1;9.539271593E-1;-9.134704471E-1
2.186389069E1;-5.110324025E-1;2.246413231E-1;-1.090202451E0
2.187580162E1;-3.300417662E-1;-6.238853931E-1;-1.391498685E0
2.188771413E1;-1.799259931E-1;-1.519256711E0;-1.785419464E0
2.189962506E1;-8.623671532E-2;-1.965345502E0;-2.108008623E0
2.191153756E1;-8.197811246E-2;-1.714087844E0;-2.390141249E0
2.192345006E1;-1.831199378E-1;-1.045487165E0;-2.612653255E0
2.193535944E1;-1.820552945E-1;-4.279896319E-1;-2.631816864E0
2.194727194E1;-8.730136603E-2;-3.076840937E-1;-2.277288198E0
2.195918444E1;-5.003859103E-2;-7.346090674E-1;-1.550131679E0
2.197110163E1;-4.365068302E-2;-1.319102407E0;-9.358280897E-1
2.198300631E1;2.874557301E-2;-1.757738590E0;-5.632002950E-1
2.199491881E1;1.426632106E-1;-2.082457066E0;-1.735380888E-1
2.200682975E1;3.066194355E-1;-2.168693781E0;1.990897059E-1
2.201874069E1;5.514891148E-1;-1.957892895E0;6.430491209E-1
2.203065944E1;7.367383838E-1;-1.559713483E0;9.688322544E-1
2.204256413E1;9.603150487E-1;-1.154081464E0;1.272257805E0
2.205448600E1;1.198796868E0;-8.463973999E-1;1.495834470E0
2.206638756E1;1.554390192E0;-4.471533597E-1;1.751350641E0
2.207829850E1;1.835458040E0;-1.160469428E-1;1.917436123E0
2.209021569E1;1.823746920E0;2.299645841E-1;1.986638427E0
2.210212506E1;1.165792704E0;1.584200501E0;1.786484122E0
2.211403444E1;4.205370843E-1;1.571424603E0;8.815308809E-1
2.212594538E1;-4.705756605E-1;6.600835174E-2;-9.390220642E-1
2.213785631E1;-3.023608327E-1;1.362753063E-1;-2.384817839E0
2.214977506E1;1.895078421E-1;8.815308809E-1;-1.984509110E0
2.216167975E1;2.012190074E-1;6.260147095E-1;-9.124057889E-1
2.217359225E1;-7.878416032E-2;-1.841845959E-1;-2.363524884E-1
2.218550319E1;-2.363524884E-1;-3.385589719E-1;-4.152138159E-2
2.219741412E1;-4.109552205E-1;4.833514690E-1;-4.365068302E-2
2.220933288E1;2.863910794E-1;-3.619812727E-1;-1.256287992E-1
2.222123756E1;8.006174564E-1;-1.612946033E0;1.011418328E-1
2.223315006E1;7.463202477E-1;-2.112267256E0;4.577998519E-1
2.224506100E1;2.406110913E-1;-1.748156667E0;7.974234819E-1
2.225697194E1;-6.526309848E-1;-6.324025989E-1;1.390434027E0
2.226888600E1;-1.237124324E0;4.716403186E-1;1.958957553E0
2.228079538E1;-9.241169095E-1;6.728593111E-1;2.063293219E0
2.229270631E1;-1.937664598E-1;6.696653962E-1;1.831199408E0
2.230461881E1;4.684463739E-1;7.750658393E-1;1.560778141E0
2.231653131E1;9.794787765E-1;7.122514248E-1;1.488381863E0
2.232844225E1;1.225413084E0;5.898165703E-1;1.468153477E0
2.234035319E1;1.430890679E0;3.002315462E-1;1.359559178E0
2.235226412E1;1.618269324E0;-1.777966917E-1;1.244576812E0
2.236417663E1;1.766255736E0;-5.323254466E-1;1.207314014E0
2.237608912E1;1.879108787E0;-9.017592669E-1;1.246706128E0
2.238800006E1;1.960022211E0;-1.140241027E0;1.341460109E0
2.239991100E1;2.095232964E0;-9.560564756E-1;1.452183723E0
2.241182194E1;2.042000294E0;1.308455825E0;1.543743730E0
2.242373444E1;1.680019021E0;3.167336226E0;1.586329699E0
2.243564538E1;1.301003337E0;2.695695877E0;1.394692659E0
2.244755788E1;1.075297356E0;1.662984610E0;1.227542400E0
2.245947038E1;1.006095052E0;7.910355926E-1;1.071038723E0
2.247138131E1;1.142370343E0;3.257831633E-1;9.773494601E-1
2.248329381E1;1.344653964E0;-3.939208016E-2;9.986425042E-1
2.249520475E1;1.375528932E0;-2.565808594E-1;1.143435001E0
2.250711569E1;1.184956431E0;-2.693566680E-1;1.249900103E0
2.251902819E1;8.634318113E-1;-2.299645841E-1;1.259481907E0
2.253093912E1;6.984109282E-1;-3.555933833E-1;1.227542400E0
2.254285162E1;6.760532856E-1;-6.813765168E-1;1.192408919E0
2.255476256E1;7.729365230E-1;-9.326341152E-1;1.158340096E0
2.256667975E1;8.889834285E-1;-7.016049027E-1;1.107236862E0
2.257858600E1;8.485267162E-1;-7.026695460E-2;1.038034558E0
2.259049694E1;4.993212521E-1;4.503473043E-1;9.581857324E-1
2.260240944E1;9.049531817E-2;4.844161272E-1;8.463973999E-1
2.261432038E1;-2.469989955E-1;1.384046078E-1;5.876872540E-1
2.262623444E1;-3.673045337E-1;-2.278352827E-1;3.492054641E-1
2.263814538E1;-4.013733566E-1;-5.323254466E-1;7.984881103E-2
2.265005475E1;-3.790156841E-1;-6.824411750E-1;-1.607622802E-1
2.266196725E1;-3.438822329E-1;-4.407654405E-1;-3.598519862E-1
2.267387819E1;-4.471533597E-1;6.930876970E-1;-5.610709786E-1
2.268579381E1;-7.633546591E-1;1.617204666E0;-6.249500513E-1
2.269770162E1;-1.139176369E0;1.740704179E0;-7.367383838E-1
2.270961256E1;-1.490511179E0;1.353171229E0;-9.794787765E-1
2.272152506E1;-1.866332889E0;1.656596661E0;-1.375528932E0
2.273343600E1;-2.427403927E0;2.804290295E0;-1.915306807E0
2.274535319E1;-2.782997370E0;3.281253815E0;-2.514705181E0
2.275726569E1;-2.709536314E0;2.412498713E0;-2.975699186E0
2.276917038E1;-2.231508255E0;4.546059072E-1;-3.414335251E0
2.278108288E1;-1.702376723E0;-1.147693634E0;-3.685821295E0
2.279299381E1;-1.415985584E0;-1.699182749E0;-3.660269499E0
2.280490631E1;-1.456442356E0;-9.347634315E-1;-3.384525061E0
2.281681725E1;-1.434084654E0;-1.735380888E-1;-2.937371731E0
2.282872819E1;-1.240318179E0;3.939208090E-1;-2.300710440E0
2.284064069E1;-9.879959822E-1;1.063586235E0;-1.506480932E0
2.285255162E1;-6.952170134E-1;1.226477742E0;-8.591732383E-1
2.286446569E1;-4.173431396E-1;8.389448524E-1;-6.302732825E-1
2.287638444E1;-3.343003690E-1;3.928561509E-1;-7.335444093E-1
2.288828600E1;-2.736152709E-1;-1.426632106E-1;-1.073168039E0
2.290019850E1;-1.522450745E-1;-9.773494601E-1;-1.517127395E0
2.291211100E1;-4.045673087E-2;-1.744962692E0;-1.852492452E0
2.292403600E1;-8.197811246E-2;-1.909983635E0;-2.066487312E0
2.293593288E1;-3.002315462E-1;-1.550131679E0;-2.158047199E0
2.294784381E1;-5.270021558E-1;-1.001836419E0;-2.132495642E0
2.295975631E1;-5.131617188E-1;-5.887519121E-1;-1.913177609E0
2.297166881E1;-3.225892186E-1;-2.746799290E-1;-1.355300546E0
2.298359225E1;-2.150594741E-1;-4.343775511E-1;-8.730136752E-1
2.299549381E1;-1.256287992E-1;-7.228979468E-1;-5.003858805E-1
2.300740319E1;-1.277581044E-2;-1.074232697E0;-1.181762442E-1
2.301931412E1;1.181762442E-1;-1.316973090E0;2.725506127E-1
2.303122663E1;3.502701223E-1;-1.397886515E0;7.952941656E-1
2.304313756E1;6.185621619E-1;-1.254158735E0;1.205184698E0
2.305505006E1;9.752201438E-1;-8.144578934E-1;1.606558084E0
2.306696100E1;1.282904267E0;-3.896622062E-1;1.862074375E0
2.307887194E1;1.534161806E0;8.730136603E-2;1.997285008E0
2.309078444E1;1.591652989E0;5.408426523E-1;1.971733332E0
2.310270006E1;1.334007502E0;1.216895938E0;1.804583192E0
2.311461256E1;3.449468613E-1;1.798195243E0;1.120012641E0
2.312653444E1;-8.187164664E-1;1.575683206E-1;-4.833514690E-1
2.313843600E1;-3.321710527E-1;-2.235766798E-1;-2.062228680E0
2.315034225E1;3.204599023E-1;1.028452754E0;-2.191051483E0
2.316225631E1;4.109552205E-1;1.355300546E0;-1.314843774E0
2.317416569E1;-2.395464331E-1;5.578770638E-1;-6.111095548E-1
2.318607663E1;-5.759761333E-1;-1.809906363E-1;-2.448696941E-1
2.319798756E1;-4.247956872E-1;-4.397007823E-1;-5.323254317E-2
2.320990006E1;3.885975480E-1;-1.343589306E0;1.927018017E-1
2.322181412E1;1.247770786E0;-2.874557257E0;6.505016685E-1
2.323372975E1;1.460700989E0;-3.731601238E0;9.688322544E-1
2.324563444E1;1.080620646E0;-3.590002537E0;1.023129463E0
2.325754538E1;-2.544515431E-1;-1.608687401E0;1.017806172E0
2.326945788E1;-1.468153477E0;9.379574060E-1;1.075297356E0
2.328136881E1;-1.448989749E0;2.319874287E0;1.236059666E0
2.329328131E1;-6.185621619E-1;2.508317471E0;1.315908432E0
2.330519225E1;3.939208090E-1;2.063293219E0;1.291421413E0
2.331710319E1;8.985652924E-1;1.200926185E0;1.355300546E0
2.332901569E1;1.162598729E0;-1.533097178E-1;1.486252546E0
2.334092662E1;1.226477742E0;-9.155997038E-1;1.562907457E0
2.335285163E1;1.258417249E0;-1.289292216E0;1.522450686E0
2.336475006E1;1.423438191E0;-1.378722787E0;1.395757198E0
2.337666100E1;1.588459015E0;-1.212637305E0;1.258417249E0
2.338857350E1;1.708764553E0;-8.911127448E-1;1.131723881E0
2.340048912E1;1.788613439E0;-4.950626493E-1;1.060392261E0
2.341239694E1;1.868462205E0;4.397007823E-1;1.028452754E0
2.342430788E1;1.883367300E0;2.768092155E0;1.174309850E0
2.343621881E1;1.714087844E0;3.516541719E0;1.372334957E0
2.344813131E1;1.499028325E0;2.855393648E0;1.393628001E0
2.346004381E1;1.303132653E0;2.045194149E0;1.358494520E0
2.347196725E1;1.178568482E0;1.387240052E0;1.324425697E0
2.348386569E1;1.205184698E0;9.954485297E-1;1.307391286E0
2.349577819E1;1.233930349E0;6.920230389E-1;1.340395451E0
2.350768913E1;1.137047052E0;3.555933833E-1;1.398951173E0
2.351961412E1;9.528625011E-1;-8.623671532E-2;1.406403780E0
2.353151256E1;7.548374534E-1;-5.014505386E-1;1.385110736E0
2.354342350E1;6.866998076E-1;-6.398551464E-1;1.348912597E0
2.355533444E1;7.548374534E-1;-4.524766207E-1;1.288227558E0
2.356724694E1;8.272337317E-1;-5.323254038E-3;1.209443331E0
2.357915944E1;7.069281340E-1;3.321710527E-1;1.088073134E0
2.359107038E1;3.726277947E-1;4.088259339E-1;9.422159791E-1
2.360298131E1;2.129301615E-2;3.981794119E-1;8.123285770E-1
2.361489381E1;-2.874557376E-1;2.299645841E-1;6.334672570E-1
2.362680475E1;-4.247956872E-1;-2.714859545E-1;3.396236300E-1
2.363871569E1;-4.109552205E-1;-8.581085801E-1;-5.749114603E-2
2.365063912E1;-3.279124498E-1;-1.161534071E0;-4.226663709E-1
2.366253913E1;-2.395464331E-1;-7.516434789E-1;-7.473849058E-1
2.367445006E1;-3.470761776E-1;6.302732825E-1;-8.421388268E-1
2.368636256E1;-8.272337317E-1;1.905725002E0;-7.761304379E-1
2.369830475E1;-1.318037748E0;1.958957553E0;-7.654839754E-1
2.371019225E1;-1.761997104E0;1.786484122E0;-1.090202451E0
2.372209694E1;-2.365654230E0;2.461472750E0;-1.606558084E0
2.373400944E1;-2.939501047E0;3.504830599E0;-2.049452782E0
2.374592038E1;-3.317451954E0;4.025444984E0;-2.691437244E0
2.375784694E1;-3.028931618E0;2.797902346E0;-3.232280016E0
2.376975319E1;-2.225120306E0;5.099677444E-1;-3.809320688E0
2.378165475E1;-1.585265160E0;-9.432806373E-1;-4.088259220E0
2.379356725E1;-1.224348426E0;-1.222219110E0;-3.904074669E0
2.380547819E1;-1.237124324E0;4.737696350E-1;-3.351520777E0
2.381739069E1;-1.066780090E0;1.499028325E0;-2.597748041E0
2.382931412E1;-7.665486336E-1;1.921694756E0;-1.617204666E0
2.384121256E1;-5.876872540E-1;1.952569604E0;-9.262462258E-1
2.385312506E1;-5.184849501E-1;1.430890679E0;-6.174975038E-1
2.386503756E1;-5.333900452E-1;4.822868407E-1;-7.346090674E-1
2.387694850E1;-6.100449562E-1;-2.299645841E-1;-1.000771761E0
2.388886100E1;-6.249500513E-1;-9.006946087E-1;-1.374464273E0
2.390077194E1;-5.110324025E-1;-1.445795894E0;-1.538420439E0
2.391268288E1;-3.162012994E-1;-1.878044128E0;-1.512868881E0
2.392459538E1;-2.267706245E-1;-1.796065927E0;-1.522450686E0
2.393650631E1;-3.928561509E-1;-1.006095052E0;-1.667243242E0
2.394842038E1;-6.004630923E-1;-2.661627233E-1;-1.825876236E0
2.396032975E1;-6.835058331E-1;1.958957613E-1;-1.849298477E0
2.397224069E1;-5.482951999E-1;2.895850241E-1;-1.558648825E0
2.398415319E1;-2.981022298E-1;-1.714087874E-1;-1.062521577E0
2.399606412E1;-6.920230389E-2;-8.570439219E-1;-5.195496082E-1
2.400797662E1;6.281439960E-2;-1.249900103E0;-6.387905031E-2
2.401988756E1;1.575683206E-1;-1.545873046E0;4.695110321E-1
2.403179850E1;2.597748041E-1;-1.702376723E0;9.443452954E-1
2.404371100E1;5.099677444E-1;-1.675760388E0;1.468153477E0
2.405564381E1;8.187164664E-1;-1.310585141E0;1.777966857E0
2.406754069E1;1.172180533E0;-7.165099978E-1;1.895078540E0
2.407944538E1;1.507545590E0;-2.661627233E-1;1.812035680E0
2.409135631E1;1.690665483E0;3.619812801E-2;1.742833376E0
2.410326881E1;1.715152502E0;8.932420611E-1;1.616140008E0
2.411517975E1;9.251815677E-1;1.311649799E0;1.015676856E0
2.412709225E1;-1.117883399E-1;3.289771080E-1;-3.183306158E-1
