"Time (s)";"Linear Acceleration x (m/s^2)";"Linear Acceleration y (m/s^2)";"Linear Acceleration z (m/s^2)"
2.382343700E-2;5.319999903E-2;2.712000012E-1;2.499999851E-2
4.367500000E-2;7.710000128E-2;4.043000042E-1;-1.274599910E0
6.352812500E-2;3.194999993E-1;5.486999750E-1;-1.730199933E0
8.338125000E-2;2.451999933E-1;4.506999850E-1;7.962999940E-1
1.032328120E-1;6.829000115E-1;2.210000008E-1;4.876999855E-1
1.230859370E-1;2.064999938E-1;3.130000085E-2;1.073699951E0
1.429390620E-1;6.629999876E-1;1.744000018E-1;5.892999768E-1
1.627921870E-1;7.279999852E-1;4.421999753E-1;-1.019999944E-2
1.826437500E-1;6.514999866E-1;2.595999837E-1;-4.324999750E-1
2.024968750E-1;3.820999861E-1;2.093999982E-1;-3.260000050E-1
2.223500000E-1;-5.119999871E-2;-7.329999655E-2;-4.590999782E-1
2.422015620E-1;2.559999824E-1;-1.086999997E-1;-2.012999952E-1
2.620546870E-1;2.403999865E-1;-1.618999988E-1;1.198999956E-1
2.819078120E-1;-1.498000026E-1;-3.755999804E-1;5.527999997E-1
3.017593750E-1;-6.688999534E-1;-4.747999907E-1;2.134999931E-1
3.216125000E-1;-1.265799999E0;-3.208999932E-1;-6.830999851E-1
3.414640620E-1;-1.398000002E0;-1.501999944E-1;-1.191499949E0
3.613187500E-1;-8.884999752E-1;-1.254999936E-1;-1.115499973E0
3.811718750E-1;-2.881000042E-1;-7.109999657E-2;-8.443999887E-1
4.010234370E-1;-2.969999909E-1;-4.782999754E-1;-4.729999900E-1
4.208765620E-1;-1.524000019E-1;-4.984999895E-1;-5.849999785E-1
4.407281250E-1;-4.303999841E-1;-7.234999537E-1;-1.391099930E0
4.605812500E-1;-2.269999869E-2;-2.936999798E-1;-2.631099939E0
4.804328120E-1;2.972999811E-1;4.098999798E-1;-3.129699945E0
5.002859370E-1;-6.069999933E-2;-1.773999929E-1;-1.989799976E0
5.201390620E-1;-1.500999928E-1;-5.716999769E-1;-6.128000021E-1
5.399906250E-1;1.994999945E-1;-8.255999684E-1;-5.320000052E-1
5.598437500E-1;6.965999603E-1;-4.299999774E-1;-1.277899981E0
5.796968750E-1;2.342000008E-1;-1.001999974E-1;-9.199999571E-1
5.995484370E-1;-3.655999899E-1;-7.356999516E-1;-4.129999876E-2
6.194015620E-1;-1.288100004E0;-1.467299938E0;6.405000091E-1
6.392546870E-1;-2.446699858E0;-1.649299979E0;1.375000030E-1
6.591078120E-1;-2.196199894E0;-3.878999949E-1;-4.509999752E-1
6.789593750E-1;-1.189299941E0;-1.247999966E-1;1.119999960E-2
6.988125000E-1;-8.804000020E-1;-2.886999846E-1;1.489699960E0
7.186656250E-1;-5.270000100E-1;-7.677999735E-1;1.676699996E0
7.385171870E-1;4.244000018E-1;-6.229999661E-2;1.658999920E0
7.583703120E-1;2.742999792E-1;7.042999864E-1;2.498100042E0
7.782234370E-1;-6.895999908E-1;3.194999993E-1;2.750299931E0
7.980750000E-1;-1.544899940E0;-2.460999936E-1;2.505100012E0
8.179281250E-1;-2.175299883E0;-7.082999945E-1;1.172299981E0
8.377812500E-1;-1.521799922E0;8.619999886E-2;-5.591999888E-1
8.576343750E-1;-4.301999807E-1;1.172299981E0;-2.642999887E-1
8.774859370E-1;-2.960999906E-1;1.318899989E0;1.303599954E0
8.973390620E-1;-1.689000010E0;1.114000008E-1;2.300400019E0
9.171921870E-1;-1.194599986E0;-6.079999804E-1;2.615200043E0
9.370437500E-1;-9.948999882E-1;-4.448999763E-1;2.665999889E0
9.568968750E-1;-5.336999893E-1;1.964000016E-1;7.346999645E-1
9.767500000E-1;-1.256999969E0;1.549999975E-2;-3.086999953E-1
9.966031250E-1;-1.387199998E0;4.746999741E-1;4.986999929E-1
1.016454687E0;6.776999831E-1;1.299099922E0;2.329099894E0
1.036307812E0;2.049000025E0;1.729399920E0;3.641399860E0
1.056160937E0;3.255299807E0;2.916999817E0;4.510999680E0
1.076012500E0;2.728999853E0;3.067099810E0;2.974499941E0
1.095865625E0;2.716599941E0;2.855799913E0;2.905400038E0
1.115718750E0;2.636399984E0;2.428599834E0;2.522899866E0
1.135570312E0;2.327199936E0;2.116499901E0;1.094399929E0
1.155423437E0;8.590000123E-2;1.001999974E0;-6.029999852E-1
1.175276562E0;-1.495199919E0;3.093999922E-1;-2.057699919E0
1.195128125E0;-1.689199924E0;-2.777000070E-1;-2.304999828E0
1.214981250E0;3.587999940E-1;3.960999846E-1;-1.924099922E0
1.234834375E0;5.687099934E0;1.189999934E-2;-7.849299908E0
1.254687500E0;4.559599876E0;1.183599949E0;-2.515899897E0
1.274539062E0;1.832199931E0;-1.119199991E0;2.456000000E-1
1.294392187E0;-2.106799841E0;-1.112599969E0;-2.192100048E0
1.314245312E0;-3.075399876E0;-2.112299919E0;-1.567600012E0
1.334096875E0;3.328000009E-1;-3.381699800E0;1.037899971E0
1.353950000E0;2.082499981E0;-2.194000006E0;7.429999709E-1
1.373803125E0;-3.076999784E-1;-1.403599977E0;1.458899975E0
1.393656250E0;-2.321099997E0;-9.398999810E-1;1.148399949E0
1.413507812E0;-3.084999919E-1;7.645999789E-1;7.899000049E-1
1.433360937E0;8.008999825E-1;1.576099992E0;4.066999853E-1
1.453214062E0;2.341599941E0;4.026199818E0;3.799299955E0
1.473065625E0;3.950299978E0;5.714900017E0;2.574000061E-1
1.492918750E0;-8.769999743E-1;5.452899933E0;-2.285399914E0
1.512771875E0;-1.852399945E0;4.499899864E0;2.604999840E-1
1.532623437E0;-2.988999844E0;3.156399965E0;-4.329599857E0
1.552476562E0;1.137399912E0;2.444399834E0;1.106899977E0
1.572329687E0;2.291199923E0;-4.136999846E-1;5.515199661E0
1.592182812E0;1.337399960E0;-2.511899948E0;7.231599808E0
1.612034375E0;-3.034999967E-1;-1.989999972E-2;1.926899910E0
1.631887500E0;-3.664299965E0;-1.759299994E0;-1.137499928E0
1.651740625E0;-4.487699986E0;-1.824799895E0;-2.075899839E0
1.671592187E0;-5.938799858E0;-2.232399940E0;8.421999812E-1
1.691445312E0;-3.870699883E0;-1.623099923E0;1.787499905E0
1.711298437E0;-3.098199844E0;-2.271699905E0;1.941699982E0
1.731151562E0;-2.453500032E0;-2.170399904E0;4.265399933E0
1.751003125E0;-5.481299877E0;-1.209800005E0;1.193750000E1
1.770856250E0;-4.018099785E0;-1.072099924E0;2.325999886E-1
1.790709375E0;-1.210699916E0;9.947999716E-1;-7.354799747E0
1.810560937E0;-2.818000019E-1;3.123699903E0;-3.830499887E0
1.830414062E0;3.977699995E0;-4.359399796E0;-5.282999873E-1
1.850267187E0;3.395099878E0;-1.472419930E1;7.577999830E-1
1.870118750E0;4.178899765E0;-1.756279945E1;-3.027199984E0
1.889971875E0;7.187999725E0;-1.819099903E0;-3.515399933E0
1.909825000E0;3.024199963E0;1.456699967E0;-1.916499972E0
1.929676562E0;-7.626999617E-1;1.859699965E0;-6.190999746E-1
1.949529687E0;-2.805500031E0;1.104900002E0;6.776999831E-1
1.969382812E0;-1.748600006E0;1.033599973E0;1.651699901E0
1.989235937E0;-5.932999849E-1;7.379999757E-1;1.425599933E0
2.009087500E0;5.464000106E-1;-1.488000005E-1;7.134000063E-1
2.028940625E0;1.563399911E0;-2.435999960E-1;2.540999949E-1
2.048793750E0;2.052999973E0;3.569999933E-1;1.491999924E-1
2.068645312E0;2.626600027E0;1.222999930E0;-8.749999851E-2
2.088498437E0;2.740900040E0;1.890699983E0;-9.677999616E-1
2.108351562E0;1.158200026E0;6.337000132E-1;-2.714000046E-1
2.128203125E0;-1.799999923E-2;-1.061999917E0;5.360000134E-1
2.148056250E0;1.879999936E-1;-1.059499979E0;-1.799999969E-3
2.167909375E0;1.219299912E0;8.370000124E-2;-2.908999920E-1
2.187760937E0;1.719399929E0;7.077999711E-1;-2.061000019E-1
2.207614062E0;1.668799996E0;6.076999903E-1;-4.330999851E-1
2.227467187E0;1.470799923E0;2.701999843E-1;-8.332999945E-1
2.247320312E0;1.270099998E0;3.042999804E-1;-5.220999718E-1
2.267171875E0;1.045199990E0;3.400999904E-1;3.274999857E-1
2.287025000E0;8.192999959E-1;3.660999835E-1;8.754000068E-1
2.306876562E0;6.148999929E-1;4.596000016E-1;8.738999963E-1
2.326729687E0;4.763000011E-1;3.743999898E-1;2.216999978E-1
2.346581250E0;1.861999929E-1;2.001999915E-1;-2.745999992E-1
2.366434375E0;-9.539999813E-2;1.445999891E-1;-1.641999930E-1
2.386287500E0;-2.628999949E-1;3.152999878E-1;-4.299999680E-3
2.406139062E0;4.010000080E-2;4.003999829E-1;1.127000004E-1
2.425992187E0;5.446000099E-1;3.491999805E-1;1.217999980E-1
2.445845312E0;8.524000049E-1;2.287999988E-1;-1.370999962E-1
2.465698437E0;8.323000073E-1;1.856999993E-1;-5.047000051E-1
2.485550000E0;6.064000130E-1;1.218999997E-1;-9.661999941E-1
2.505403125E0;4.315999746E-1;1.572999954E-1;-1.254599929E0
2.525256250E0;3.827999830E-1;3.422999978E-1;-1.171499968E0
2.545109375E0;4.249999821E-1;1.771999896E-1;-8.457999825E-1
2.564960937E0;5.601999760E-1;1.793999970E-1;-5.425999761E-1
2.584814062E0;5.677999854E-1;3.481999934E-1;-6.297000051E-1
2.604667187E0;4.310999811E-1;3.588999808E-1;-9.207999706E-1
2.624518750E0;4.862999916E-1;3.889999986E-1;-9.702999592E-1
2.644371875E0;8.112999797E-1;4.192000031E-1;-1.126199961E0
2.664225000E0;1.249099970E0;6.876999736E-1;-9.044999480E-1
2.684076562E0;1.599099994E0;9.776999950E-1;-4.151999950E-1
2.703929687E0;2.038800001E0;6.978999972E-1;-2.830999792E-1
2.723782812E0;2.503999949E0;4.357999861E-1;-6.998999715E-1
2.743637500E0;2.967599869E0;5.249999762E-1;-1.519199967E0
2.763487500E0;3.443099976E0;4.101999998E-1;-1.874199986E0
2.783340625E0;4.372999668E0;-1.200999990E-1;-1.591099977E0
2.803193750E0;5.479399681E0;-1.178300023E0;-9.789999723E-1
2.823045312E0;5.608999729E0;-2.507299900E0;-1.204999924E0
2.842898437E0;3.810499907E0;-3.127599955E0;-2.802099943E0
2.862751562E0;9.470999837E-1;-1.350600004E0;-4.551199913E0
2.882603125E0;2.426999956E-1;-1.453000009E-1;-4.689399719E0
2.902456250E0;-6.915000081E-1;-1.008499980E0;-1.694999933E0
2.922309375E0;1.880999953E-1;-8.575999737E-1;8.402000070E-1
2.942162500E0;2.750000060E-1;-4.918999970E-1;2.650300026E0
2.962014062E0;-1.046000004E0;-4.196999967E-1;3.161499977E0
2.981867187E0;-2.193500042E0;-8.218999505E-1;2.333299875E0
3.001718750E0;-3.510699987E0;-1.801800013E0;1.265999913E0
3.021571875E0;-4.222499847E0;-3.336299896E0;4.199999850E-3
3.041425000E0;-3.372799873E0;-3.513599873E0;3.998000026E-1
3.061281250E0;-1.728500009E0;-1.803799987E0;1.887299895E0
3.081129687E0;-7.024999857E-1;-6.401999593E-1;2.322000027E0
3.100982812E0;-1.077999949E0;1.564999968E-1;2.244199991E0
3.120835937E0;-1.999499917E0;3.920000046E-2;1.407599926E0
3.140689062E0;-3.145900011E0;2.180000022E-2;3.664999902E-1
3.160540625E0;-3.894299984E0;1.174999997E-1;1.853999943E-1
3.180393750E0;-4.090399742E0;7.418999672E-1;1.166599989E0
3.200246875E0;-3.847699881E0;1.172399998E0;2.236899853E0
3.220098437E0;-3.104300022E0;7.904999852E-1;2.588500023E0
3.239953125E0;-1.946799994E0;1.110999957E-1;2.148499966E0
3.259803125E0;-8.060999513E-1;-2.118999958E-1;1.787199974E0
3.279656250E0;-6.858999729E-1;-6.017999649E-1;1.733599901E0
3.299509375E0;-7.633000016E-1;-7.999999523E-1;1.537599921E0
3.319362500E0;-1.133499980E0;-1.838999987E-1;6.042999625E-1
3.339215625E0;-1.717299938E0;6.459000111E-1;8.423999548E-1
3.359067187E0;-2.236199856E0;7.931999564E-1;1.427199960E0
3.378926562E0;-2.080999851E0;9.393000007E-1;8.342999816E-1
3.398771875E0;-2.073099852E0;1.522699952E0;2.370999902E-1
3.418625000E0;-1.766399980E0;1.727699995E0;2.035999894E-1
3.438478125E0;-1.644500017E0;9.839999676E-2;-2.953000069E-1
3.458329687E0;-4.860999882E-1;1.026099920E0;-1.861400008E0
3.478182812E0;-4.047999978E-1;2.796700001E0;8.319999576E-1
3.498035937E0;-8.955999613E-1;1.283999920E0;2.153300047E0
3.517887500E0;-1.338899970E0;-3.476999998E-1;2.190399885E0
3.537740625E0;-9.075999856E-1;-9.963999987E-1;2.266000032E0
3.557593750E0;6.577999592E-1;4.844999909E-1;6.212999821E-1
3.577446875E0;2.097699881E0;1.864499927E0;-3.788599968E0
3.597298437E0;2.791999817E0;1.809700012E0;-3.674000025E0
3.617151562E0;1.714999914E0;-5.439999700E-2;-1.055999994E-1
3.637004687E0;1.203999996E0;-1.290099978E0;1.562799931E0
3.656856250E0;2.459399939E0;-1.873999983E-1;1.166299939E0
3.676709375E0;3.579299927E0;1.258799911E0;-2.192800045E0
3.696560937E0;3.296599865E0;2.207099915E0;-5.465799809E0
3.716414062E0;1.755899906E0;2.949999869E-1;-3.061599970E0
3.736267187E0;1.161199927E0;-2.696699858E0;8.157999516E-1
3.756120312E0;1.241500020E0;-1.345799923E0;8.788999915E-1
3.775971875E0;1.203699946E0;1.857800007E0;-1.623699903E0
3.795825000E0;-5.906000137E-1;2.414499998E0;-3.830199957E0
3.815678125E0;-4.649999738E-1;1.554499984E0;-9.968999624E-1
3.835529687E0;-1.717000008E-1;6.486999989E-1;3.406299829E0
3.855382812E0;7.307999730E-1;-2.131999880E-1;4.022599697E0
3.875235937E0;2.911900043E0;-1.820999980E-1;1.752399921E0
3.895089062E0;3.509500027E0;2.418999970E-1;-3.098399878E0
3.914940625E0;8.021000028E-1;-2.353999913E-1;-5.815899849E0
3.934793750E0;-9.389999509E-2;-1.674000025E-1;-2.016000003E-1
3.954646875E0;1.225399971E0;9.259999543E-2;1.316889954E1
3.974498437E0;5.546199799E0;4.768999815E-1;-2.128900051E0
3.994351562E0;1.783800006E0;-1.126299977E0;-9.104999900E-1
4.014204687E0;2.109599829E0;-3.028100014E0;-1.077399969E0
4.034057812E0;1.700599909E0;-6.741999984E-1;2.296799898E0
4.053909375E0;1.059000015E0;1.554799914E0;8.299999833E-1
4.073762500E0;2.257299900E0;-2.109999955E-1;9.119999409E-2
4.093614062E0;4.133500099E0;-8.590999842E-1;9.436999559E-1
4.113467187E0;1.067999959E0;-5.164999962E-1;1.286899924E0
4.133320312E0;-2.764600039E0;-1.000299931E0;-2.608599901E0
4.153173437E0;-1.495800018E0;-3.762699842E0;-2.369099855E0
4.173025000E0;8.255999684E-1;-7.105599880E0;1.437299967E0
4.192878125E0;4.205500126E0;-5.068999767E0;4.495599747E0
4.212731250E0;4.450900078E0;-5.476999879E-1;5.742999911E-1
4.232582812E0;2.067499876E0;2.064300060E0;-1.900900006E0
4.252435937E0;-1.436200023E0;1.590099931E0;-2.139999866E0
4.272289062E0;-1.107299924E0;1.773599982E0;-8.288999796E-1
4.292142187E0;-1.820699930E0;4.479999840E-1;-1.082599998E0
4.311993750E0;-2.565599918E0;-1.106999993E0;-4.811199665E0
4.331845312E0;-2.170799971E0;-6.839999557E-2;-1.550599933E0
4.351700000E0;-2.286299944E0;1.017799973E0;2.228399992E0
4.371551562E0;-1.909799933E0;1.779699922E0;3.819099903E0
4.391425000E0;-2.537699938E0;1.367799997E0;3.488099813E0
4.411257812E0;-3.080099821E0;1.462000012E-1;1.417099953E0
4.431109375E0;-4.256199837E0;-4.399999976E-1;-1.023000002E0
4.450962500E0;-5.570600033E0;-6.811000109E-1;-9.181699753E0
4.470815625E0;-4.019799709E0;2.642000020E-1;-3.681799889E0
4.490668750E0;-2.160899878E0;8.460999727E-1;1.961199999E0
4.510520312E0;-1.196399927E0;8.974999785E-1;2.376299858E0
4.530373437E0;-1.759299994E0;5.069000125E-1;4.909999967E-1
4.550226562E0;-2.530400038E0;1.393000036E-1;-3.038899899E0
4.570078125E0;-2.720199823E0;6.536999941E-1;-5.288499832E0
4.589931250E0;-1.247599959E0;9.802999496E-1;-2.887300014E0
4.609782812E0;3.617999852E-1;7.804999948E-1;1.661999971E-1
4.629637500E0;2.201599836E0;5.910999775E-1;3.371999860E-1
4.649487500E0;3.052899837E0;6.480999589E-1;6.025999784E-1
4.669342187E0;1.880599976E0;2.522000074E-1;1.793999910E0
4.689195312E0;1.807199955E0;-4.635999799E-1;1.804699898E0
4.709046875E0;2.297099829E0;8.394999504E-1;1.065999940E-1
4.728898437E0;-4.611999989E-1;2.668200016E0;-4.195099831E0
4.748753125E0;-3.444399834E0;3.307299852E0;-4.872699738E0
4.768604687E0;-4.776299953E0;4.282799721E0;-1.683799982E0
4.788457812E0;-2.738199949E0;6.545199871E0;8.751999736E-1
4.808310937E0;-1.768700004E0;3.507699966E0;2.098799944E0
4.828162500E0;-9.160999656E-1;-1.211399913E0;4.668999672E0
4.848015625E0;1.030999944E-1;-5.488299847E0;5.317800045E0
4.867867187E0;6.225999594E-1;-2.924000025E0;4.320799828E0
4.887720312E0;5.577999949E-1;-8.168999553E-1;3.190500021E0
4.907573437E0;5.626399994E0;-1.456399918E0;-3.842700005E0
4.927426562E0;6.074100018E0;-8.039999604E-1;-1.327439976E1
4.947278125E0;1.337499976E0;-3.269000053E-1;-1.457059956E1
4.967131250E0;8.749999851E-2;-4.899999797E-1;-2.036599874E0
4.986982812E0;2.026999950E0;-8.448999524E-1;3.356499910E0
5.006835937E0;4.149099827E0;-1.299700022E0;6.213399887E0
5.026689062E0;3.845899820E0;-1.462299943E0;5.201699734E0
5.046542187E0;1.379299998E0;-1.686199903E0;1.104599953E0
5.066393750E0;-2.387999892E-1;-2.752799988E0;-5.412999988E-1
5.086246875E0;-1.365299940E0;-2.604399920E0;-1.491199970E0
5.106100000E0;-2.470099926E0;-9.740999937E-1;-1.867599964E0
5.125951562E0;-1.950599909E0;6.739999652E-1;-2.039099932E0
5.145804687E0;-1.056299925E0;3.534999788E-1;-9.238999486E-1
5.165657812E0;-1.180599928E0;-2.068500042E0;8.457999825E-1
5.185509375E0;-1.567999959E0;-2.646600008E0;1.177199960E0
5.205362500E0;-9.143999815E-1;-6.541000009E-1;-1.932500005E0
5.225215625E0;9.409999847E-1;1.964999884E-1;-1.833299994E0
5.245067187E0;3.179199934E0;2.823999822E-1;-2.117999941E-1
5.264920312E0;4.021599770E0;2.967000008E-1;1.608999968E-1
5.284773437E0;3.306599855E0;4.369999766E-1;-6.740999818E-1
5.304626562E0;2.669800043E0;4.980999827E-1;-1.648699999E0
5.324478125E0;1.070299983E0;-1.306999922E-1;-2.139299870E0
5.344331250E0;-1.234999970E-1;-1.065400004E0;-1.000699997E0
5.364184375E0;-5.403000116E-1;-1.331099987E0;7.375999689E-1
5.384035937E0;-6.243999600E-1;-3.411999941E-1;1.359200001E0
5.403889062E0;-1.378799915E0;-5.789999962E-1;5.218999863E0
5.423742187E0;-1.187999994E-1;-2.254899979E0;1.096599960E1
5.443595312E0;2.992100000E0;-1.667999923E-1;-6.069299698E0
5.463446875E0;5.319900036E0;1.976499915E0;-1.809199929E0
5.483300000E0;3.856999874E0;2.828699827E0;-1.258099914E0
5.503153125E0;5.920999646E-1;2.093600035E0;-1.332999945E0
5.523004687E0;-2.346099854E0;1.028200030E0;-2.365999967E-1
5.542857812E0;-3.339299917E0;7.358999848E-1;-7.864999771E-1
5.562709375E0;-3.550799847E0;8.003000021E-1;-1.283999920E0
5.582562500E0;-4.329199791E0;8.904999495E-1;-1.457899928E0
5.602415625E0;-3.994399786E0;9.332000017E-1;-1.412599921E0
5.622267187E0;-2.412400007E0;1.147199988E0;-1.322099924E0
5.642120312E0;-4.746999741E-1;1.424399972E0;-1.325999975E0
5.661971875E0;5.200999975E-1;1.207099915E0;-1.167299986E0
5.681825000E0;5.378999710E-1;9.073999524E-1;-5.604000092E-1
5.701678125E0;-6.448000073E-1;5.178999901E-1;-8.076999784E-1
5.721531250E0;-1.647599936E0;3.176999986E-1;-1.212599993E0
5.741382812E0;-1.789299965E0;2.012999952E-1;-1.652400017E0
5.761235937E0;-1.403399944E0;4.711999893E-1;-1.827600002E0
5.781089062E0;-1.840000041E-2;4.451999962E-1;-1.467499971E0
5.800940625E0;-9.577999711E-1;-1.480000000E-2;-1.450699925E0
5.820793750E0;-2.871199846E0;-8.679999709E-1;-1.346699953E0
5.840648437E0;-3.727499962E0;-1.565999985E0;-1.291999936E0
5.860500000E0;-3.579799891E0;-1.441599965E0;-1.397199988E0
5.880353125E0;-3.405200005E0;-1.328999996E0;-1.340999961E0
5.900204687E0;-2.342499971E0;-7.714999914E-1;-4.453999996E-1
5.920057812E0;-1.347599983E0;-7.978999615E-1;4.808999896E-1
5.939910937E0;-8.290999532E-1;-7.555999756E-1;1.001399994E0
5.959762500E0;-4.156999886E-1;-4.080999792E-1;1.004500031E0
5.979615625E0;4.652999938E-1;7.392999530E-1;5.256000161E-1
5.999467187E0;1.165099978E0;2.304399967E0;-4.023000002E-1
6.019320312E0;1.442399979E0;3.108399868E0;-1.572699904E0
6.039173437E0;1.557699919E0;2.623699903E0;-8.987999558E-1
6.059026562E0;1.290499926E0;8.229999542E-1;9.280999899E-1
6.078878125E0;1.894899964E0;-1.146099925E0;1.738899946E0
6.098731250E0;2.914099932E0;-3.041199923E0;-1.014599919E0
6.118584375E0;2.600699902E0;-2.363299847E0;-4.866899967E0
6.138435937E0;1.980299950E0;8.348999619E-1;-4.126199722E0
6.158289062E0;2.309799910E0;2.307999849E0;-1.958799958E0
6.178142187E0;1.318099976E0;2.199599981E0;3.819999844E-2
6.197995312E0;-5.753999949E-1;2.299799919E0;5.958999991E-1
6.217846875E0;-1.368399978E0;3.800400019E0;9.535999894E-1
6.237700000E0;-2.124899864E0;4.962500095E0;2.500000000E0
6.257551562E0;-1.521499991E0;5.500499725E0;2.289399862E0
6.277404687E0;1.049700022E0;3.932699919E0;1.631399989E0
6.297257812E0;3.052500010E0;-8.413999677E-1;2.000400066E0
6.317110937E0;8.610300064E0;-1.214129925E1;-1.666659927E1
6.336962500E0;3.051100016E0;-6.083199978E0;-3.091899872E0
6.356815625E0;3.719999790E-1;1.651399970E0;1.189299941E0
6.376668750E0;2.178999931E-1;2.462800026E0;1.696699977E0
6.396521875E0;1.556999922E0;1.147099972E0;3.036799908E0
6.416373437E0;2.758499861E0;-1.206999943E-1;4.109699726E0
6.436226562E0;2.640899897E0;-1.419799924E0;2.444499969E0
6.456078125E0;3.676999807E-1;-1.221899986E0;-1.322199941E0
6.475931250E0;5.519999936E-2;3.522999883E-1;-1.656999946E0
6.495784375E0;-1.803699970E0;6.516999602E-1;-4.065999985E-1
6.515637500E0;-5.810999870E-1;9.775999784E-1;1.321299911E0
6.535489062E0;7.482999563E-1;1.268000007E-1;-6.766999960E-1
6.555342187E0;1.565899968E0;3.561999798E-1;-2.862999916E0
6.575195312E0;1.730899930E0;8.070999980E-1;-1.975699902E0
6.595048437E0;2.067699909E0;1.092800021E0;-3.404999971E-1
6.614900000E0;2.623699903E0;1.601799965E0;-7.719999552E-2
6.634753125E0;4.103300095E0;1.039999962E0;-3.055999875E-1
6.654606250E0;5.287600040E0;4.740999937E-1;-1.630000025E-2
6.674457812E0;5.457200050E0;9.523999691E-1;8.575999737E-1
6.694310937E0;6.035199642E0;3.925999999E-1;4.414999783E-1
6.714162500E0;5.816999912E0;-2.182499886E0;7.695999742E-1
6.734015625E0;3.812399864E0;-4.683199883E0;3.084000051E-1
6.753868750E0;2.302999973E0;-6.168600082E0;-9.953100204E0
6.773720312E0;4.745999873E-1;-6.197899818E0;-1.179099941E1
6.793573437E0;1.393899918E0;-3.458999872E0;-1.751799941E0
6.813426562E0;2.314800024E0;1.888999939E-1;9.164999723E-1
6.833279687E0;7.003999949E-1;2.494599819E0;1.413100004E0
6.853134375E0;-1.028399944E0;2.213299990E0;4.141999781E-1
6.872985937E0;-6.135999560E-1;-1.721199989E0;-2.238299847E0
6.892837500E0;5.150000006E-2;-1.720199943E0;-2.579999864E-1
6.912689062E0;-1.051800013E0;4.830999970E-1;1.806999922E0
6.932542187E0;-2.151599884E0;1.571900010E0;2.514899969E0
6.952393750E0;-1.980499983E0;1.122099996E0;1.932699919E0
6.972246875E0;-2.509199858E0;-1.476999968E-1;3.010999858E-1
6.992100000E0;-3.180899858E0;-1.733599901E0;-4.175399780E0
7.011951562E0;-3.200099945E0;-1.630599976E0;-1.708899975E0
7.031804687E0;-3.248799801E0;-1.479499936E0;1.037599921E0
7.051659375E0;-2.666299820E0;-1.699499965E0;1.846499920E0
7.071510937E0;-2.418299913E0;-1.378099918E0;9.014999866E-1
7.091362500E0;-2.508399963E0;-4.166999757E-1;-1.279999912E-1
7.111215625E0;-2.205100060E0;1.528599977E0;-4.147000015E-1
7.131068750E0;-1.465999961E0;3.139899969E0;-5.938999653E-1
7.150921875E0;-9.921999574E-1;3.648099899E0;-8.992999792E-1
7.170775000E0;-3.917999864E-1;2.806699991E0;-1.785499930E0
7.190626562E0;-1.234999970E-1;3.138299942E0;-2.556399822E0
7.210479687E0;-4.081999958E-1;3.657199860E0;-3.679499865E0
7.230331250E0;-2.558500051E0;1.147699952E0;-4.786900043E0
7.250184375E0;-2.465399981E0;-5.119999647E-1;-1.692199945E0
7.270037500E0;-1.378000021E0;-8.438000083E-1;1.336199999E0
7.289889062E0;-2.779999934E-2;-1.340600014E0;2.273200035E0
7.309742187E0;2.088599920E0;-1.577299953E0;1.913199902E0
7.329595312E0;3.242300034E0;-1.815899968E0;1.309399962E0
7.349446875E0;3.820099831E0;-8.810999990E-1;-1.440599918E0
7.369300000E0;2.275500059E0;1.186299920E0;-5.702600002E0
7.389153125E0;-2.773999870E-1;3.214299917E0;-6.394499779E0
7.409006250E0;-5.296999812E-1;2.421399832E0;-1.850699902E0
7.428857812E0;-7.156999707E-1;-3.224000037E-1;1.676499963E0
7.448710937E0;2.789999843E-1;1.098999977E-1;2.392099857E0
7.468564062E0;4.589999914E-1;1.770399928E0;1.062999964E0
7.488415625E0;-8.779999614E-2;2.497699976E0;-7.160999775E-1
7.508268750E0;1.383000016E-1;2.863699913E0;-3.467999995E-1
7.528121875E0;1.263899922E0;1.232200027E0;1.678999960E-1
7.547975000E0;1.364799976E0;-1.006799936E0;7.754999995E-1
7.567826562E0;1.048699975E0;-1.841499925E0;9.091999531E-1
7.587679687E0;1.375999898E-1;9.538999796E-1;-2.719999850E-2
7.607532812E0;-8.799999952E-1;3.013700008E0;-1.418200016E0
7.627384375E0;6.219999865E-2;2.011299849E0;-2.214599848E0
7.647237500E0;1.446999907E0;-4.878999889E-1;-1.758899927E0
7.667090625E0;2.445099831E0;-1.040300012E0;-1.268000007E0
7.686942187E0;2.760299921E0;4.608999789E-1;-1.740199924E0
7.706795312E0;2.033400059E0;-2.730000019E-2;-2.068899870E0
7.726648437E0;1.979799986E0;-1.298699975E0;-3.233000040E-1
7.746500000E0;2.400099993E0;-1.309299946E0;7.475999594E-1
7.766353125E0;3.630100012E0;-1.157599926E0;-1.190599918E0
7.786206250E0;3.960199833E0;-2.535099983E0;-3.000200033E0
7.806059375E0;3.578399897E0;-2.518299818E0;-2.089200020E0
7.825910937E0;3.545099974E0;-1.483199954E0;-3.712999821E-1
7.845764062E0;3.641599894E0;-1.345099926E0;2.559999824E-1
7.865617187E0;3.763799906E0;-1.796199918E0;1.011099935E0
7.885471875E0;3.521399975E0;-1.447799921E0;2.128000021E0
7.905321875E0;3.349399805E0;-1.208599925E0;2.913699865E0
7.925175000E0;3.156999826E0;-1.796099901E0;1.161700010E0
7.945026562E0;1.769599915E0;-1.707700014E0;-3.556599855E0
7.964879687E0;5.906999707E-1;-1.079399943E0;-7.334499836E0
7.984732812E0;-3.828999996E-1;8.679999411E-2;-2.751699924E0
8.004584375E0;-1.706999987E-1;1.227299929E0;2.959599972E0
8.024437500E0;-1.501199961E0;1.640999913E0;6.207599640E0
8.044290625E0;-1.899299979E0;1.099799991E0;3.433300018E0
8.064142187E0;-1.460500002E0;5.076000094E-1;-1.606999993E0
8.083995312E0;-1.402999908E-1;6.078000069E-1;-1.033800006E0
8.103848437E0;8.330000043E-1;-3.856000006E-1;-2.703999877E-1
8.123700000E0;2.054100037E0;-6.161000133E-1;8.136000037E-1
8.143553125E0;1.300099969E0;-1.250000000E-1;1.476699948E0
8.163406250E0;-6.270999908E-1;-4.150999784E-1;8.564999700E-1
8.183259375E0;-1.883299947E0;-8.244999647E-1;-7.335000038E-1
8.203110937E0;-1.786199927E0;-4.869999886E-1;-1.575299978E0
8.222964062E0;-1.170099974E0;2.545999885E-1;-1.008999944E0
8.242817187E0;-5.385000110E-1;8.121999502E-1;-2.300000004E-2
8.262668750E0;2.679999918E-2;8.299999833E-1;6.460999846E-1
8.282523437E0;-6.239999831E-2;8.126999736E-1;3.885000050E-1
8.302375000E0;-7.800000161E-2;6.218999624E-1;-7.566999793E-1
8.322228125E0;-1.674999893E-1;6.801999807E-1;-1.315099955E0
8.342079687E0;-5.346999764E-1;8.744999766E-1;-9.373999834E-1
8.361932812E0;-6.990000010E-1;5.950999856E-1;-8.562999964E-1
8.381785937E0;-4.632999897E-1;-3.197999895E-1;-1.513899922E0
8.401639062E0;-4.752999842E-1;-9.640000015E-2;-1.844399929E0
8.421490625E0;-1.013499975E0;4.930999875E-1;-1.632799983E0
8.441342187E0;-2.047999859E0;3.526999950E-1;-9.906999469E-1
8.461195312E0;-3.019899845E0;-5.648999810E-1;-9.712999463E-1
8.481048437E0;-3.267499924E0;-7.353000045E-1;-2.347599983E0
8.500901562E0;-2.626299858E0;6.279999763E-2;-2.788300037E0
8.520753125E0;-1.536199927E0;9.072999954E-1;-1.159699917E0
8.540606250E0;-4.805999994E-1;1.427099943E0;-3.068999946E-1
8.560459375E0;4.629999995E-1;1.219399929E0;3.790000081E-2
8.580310937E0;1.760800004E0;1.220199943E0;5.339999869E-2
8.600164062E0;2.644199848E0;1.434999943E0;1.900999993E-1
8.620017187E0;1.773999929E0;1.549399972E0;3.685999811E-1
8.639868750E0;9.648999572E-1;2.131799936E0;4.863999784E-1
8.659721875E0;4.754000008E-1;4.225599766E0;-1.903999895E-1
8.679575000E0;-1.752599955E0;4.099699974E0;-3.823199987E0
8.699428125E0;-1.823899984E0;2.227200031E0;-3.527299881E0
8.719279687E0;-1.027799964E0;3.355999887E-1;7.189999521E-2
8.739132812E0;7.502999902E-1;-1.745700002E0;2.312199831E0
8.758984375E0;3.459899902E0;-3.639199972E0;2.365399837E0
8.778837500E0;4.543399811E0;-3.405499935E0;-1.341999918E-1
8.798690625E0;2.142799854E0;-2.910999954E-1;-1.602800012E0
8.818543750E0;6.341999769E-1;3.009699821E0;-4.289999977E-2
8.838395312E0;2.670399904E0;3.153999805E0;2.363199949E0
8.858248437E0;3.672699928E0;-3.836999834E-1;2.679999828E0
8.878101562E0;2.113999844E0;-1.569599986E0;8.614999652E-1
8.897953125E0;9.589999914E-2;2.006999999E-1;4.619999975E-2
8.917806250E0;-1.535300016E0;1.635699987E0;-6.739000082E-1
8.937659375E0;-1.704599977E0;3.166399956E0;-8.506999612E-1
8.957512500E0;-2.053999901E-1;2.365799904E0;-7.701999545E-1
8.977364062E0;2.113899946E0;-9.114999771E-1;-1.249499917E0
8.997217187E0;3.017999887E0;-1.104200006E0;-1.146600008E0
9.017070312E0;3.791199923E0;1.354999989E-1;-1.439799905E0
9.036923437E0;5.121699810E0;1.515499949E0;-1.185599923E0
9.056775000E0;5.664899826E0;8.640999794E-1;3.836999834E-1
9.076628125E0;7.315899849E0;-8.873999715E-1;1.708099961E0
9.096479687E0;7.149299622E0;-2.464999914E0;2.247299910E0
9.116332812E0;4.512599945E0;-1.945599914E0;1.617699981E0
9.136185937E0;1.348999977E0;-1.907199979E0;1.129999943E-2
9.156039062E0;-2.434700012E0;-3.705199957E0;-4.808000088E0
9.175890625E0;-3.621699810E0;-5.605199814E0;-3.436499834E0
9.195743750E0;-6.426499844E0;-5.244800091E0;3.284299850E0
9.215596875E0;-7.521800041E0;-1.967099905E0;3.324800014E0
9.235448437E0;-3.277699947E0;1.971300006E0;4.918999970E-1
9.255301562E0;-6.114999652E-1;1.857199907E0;1.732199907E0
9.275154687E0;-7.419999838E-1;-1.165799975E0;1.793999910E0
9.295007812E0;-1.449000001E0;-1.559399962E0;1.956799984E0
9.314859375E0;-2.480299950E0;-8.265999556E-1;4.141999781E-1
9.334712500E0;-3.473699808E0;-3.084000051E-1;-3.066000044E-1
9.354564062E0;-2.937500000E0;-2.987000048E-1;2.773000002E-1
9.374417187E0;-2.438799858E0;-1.942999959E-1;8.908999562E-1
9.394270312E0;-2.813199997E0;3.827999830E-1;1.675799966E0
9.414121875E0;-2.715899944E0;1.038299918E0;2.886999846E0
9.433975000E0;-2.519899845E0;1.391399980E0;2.964599848E0
9.453828125E0;-2.320899963E0;1.539099932E0;1.753699899E0
9.473681250E0;-2.447199821E0;1.569999933E0;9.303999543E-1
9.493534375E0;-2.214499950E0;1.346699953E0;1.635999978E-1
9.513385937E0;-1.294399977E0;1.470499992E0;-2.002999932E-1
9.533239062E0;2.441999912E-1;1.780399919E0;6.237999797E-1
9.553090625E0;1.275799990E0;1.368299961E0;1.318799973E0
9.572943750E0;1.276499987E0;2.843999863E-1;1.127200007E0
9.592796875E0;6.876999736E-1;-8.570999503E-1;-2.723999918E-1
9.612650000E0;3.100999892E-1;-1.246099949E0;-3.286899805E0
9.632503125E0;8.697999716E-1;-9.549999982E-2;-5.132800102E0
9.652354687E0;2.435999960E-1;1.692999899E-1;-2.465800047E0
9.672207812E0;-7.896999717E-1;-1.008999944E-1;-1.227900028E0
9.692059375E0;-1.368999958E0;-8.039000034E-1;-1.714199901E0
9.711912500E0;-1.830899954E0;-8.195999861E-1;-2.503900051E0
9.731767187E0;-1.029699922E0;1.087199926E0;-1.666499972E0
9.751617187E0;4.800999761E-1;2.638000011E0;6.615999937E-1
9.771470312E0;1.387300014E0;2.682299852E0;1.826999903E0
9.791321875E0;1.734399915E0;1.488299966E0;1.805400014E0
9.811175000E0;1.705299973E0;3.883999884E-1;3.075999916E-1
9.831028125E0;1.065999985E0;1.182999983E-1;-2.815799952E0
9.850881250E0;-3.053999841E-1;2.687000036E-1;-3.742599964E0
9.870732812E0;-2.124799967E0;-3.828999996E-1;-1.360899925E0
9.890585937E0;-3.064800024E0;-9.569000006E-1;4.277999997E-1
9.910439062E0;-2.547099829E0;-2.813999951E-1;-4.994999766E-1
9.930290625E0;-1.119899988E0;3.253999949E-1;-1.499099970E0
9.950143750E0;8.141999841E-1;7.168999910E-1;-4.806999862E-1
9.969996875E0;1.931399941E0;8.133999705E-1;4.021999836E-1
9.989848437E0;1.998600006E0;4.452999830E-1;7.920999527E-1
1.000970313E1;1.768700004E0;-1.121999994E-1;1.261099935E0
1.002955469E1;1.799799919E0;-2.709999979E-1;7.177999616E-1
1.004940781E1;9.782999754E-1;1.509999949E-2;-7.141000032E-1
1.006925938E1;-9.999999776E-3;2.193999887E-1;-1.051100016E0
1.008911250E1;-3.599999845E-1;2.096999884E-1;2.816999853E-1
1.010896563E1;7.091000080E-1;4.017999768E-1;1.205299973E0
1.012881719E1;9.596999884E-1;3.097999990E-1;1.153900027E0
1.014867031E1;1.473299980E0;6.294999719E-1;1.424799919E0
1.016852344E1;2.857599974E0;1.539999992E-1;1.331300020E0
1.018837656E1;3.923099995E0;-7.556999922E-1;1.119499922E0
1.020822812E1;3.085899830E0;-6.527000070E-1;2.906999886E-1
1.022808125E1;1.191699982E0;1.064999998E-1;8.661999702E-1
1.024793281E1;3.114999831E-1;3.671999872E-1;1.974699974E0
1.026778594E1;-5.259000063E-1;4.939999804E-2;1.584699988E0
1.028763906E1;-8.955000043E-1;5.949999765E-2;8.738999963E-1
1.030749219E1;-7.189999819E-1;6.945999861E-1;6.732000113E-1
1.032734375E1;-3.558000028E-1;6.405000091E-1;8.580999970E-1
1.034719688E1;-1.462000012E-1;5.383999944E-1;6.416999698E-1
1.036705000E1;6.099999696E-2;8.294999599E-1;-4.629999772E-2
1.038690156E1;2.313999981E-1;6.213999987E-1;3.309999779E-2
1.040675469E1;2.920999825E-1;3.659999967E-1;5.931000113E-1
1.042660781E1;3.608999848E-1;5.921999812E-1;4.178999960E-1
1.044646094E1;8.112999797E-1;3.506000042E-1;1.232999936E-1
1.046631250E1;9.889999628E-1;-3.780999780E-1;5.742999911E-1
1.048616562E1;7.798999548E-1;-2.906999886E-1;1.279399991E0
1.050601875E1;4.090999961E-1;1.439999938E-1;1.170300007E0
1.052587031E1;2.714000046E-1;-2.298999876E-1;2.201999873E-1
1.054572344E1;9.259999543E-2;-7.242999673E-1;-3.294999897E-1
1.056557500E1;3.422999978E-1;-4.092999995E-1;-4.456999898E-1
1.058542812E1;5.124999881E-1;3.341999948E-1;-2.565999925E-1
1.060528125E1;3.414999843E-1;4.332000017E-1;2.689000070E-1
1.062513438E1;1.395999938E-1;-8.299999870E-3;5.342999697E-1
1.064498594E1;7.789999992E-2;-6.859999895E-2;3.761999905E-1
1.066483906E1;1.713999957E-1;2.723000050E-1;-3.707999885E-1
1.068469219E1;3.231000006E-1;5.827999711E-1;-1.006500006E0
1.070454375E1;8.258999586E-1;8.999999845E-4;-1.264699936E0
1.072439688E1;1.501699924E0;-9.814999700E-1;-1.277999997E0
1.074425000E1;1.343699932E0;-3.752000034E-1;-3.982999921E-1
1.076410156E1;1.598999947E-1;3.639999777E-2;5.988999605E-1
1.078395469E1;-4.267999828E-1;6.100999713E-1;1.368999958E0
1.080380781E1;-7.253999710E-1;8.492999673E-1;1.882599950E0
1.082365938E1;-8.181999922E-1;2.251999974E-1;1.632099986E0
1.084351250E1;-7.565000057E-1;1.784999967E-1;1.135999918E0
1.086336562E1;-9.138000011E-1;5.521999598E-1;8.043999672E-1
1.088321875E1;-4.793999791E-1;1.760599971E0;1.532000005E-1
1.090307031E1;-1.064999938E0;8.499999642E-1;-5.432000160E-1
1.092292344E1;-2.265799999E0;-1.963499904E0;-5.151000023E-1
1.094277500E1;-2.465600014E0;-2.064499855E0;-4.654999971E-1
1.096262812E1;-2.238800049E0;-1.589999944E-1;-4.081999958E-1
1.098248281E1;-5.232999921E-1;1.250499964E0;2.053999901E-1
1.100233438E1;1.559599996E0;1.646199942E0;2.682999969E-1
1.102218750E1;3.097499847E0;8.575999737E-1;-4.851999879E-1
1.104203906E1;3.318099976E0;-1.899999916E-3;-7.828999758E-1
1.106189219E1;3.808199883E0;3.384000063E-1;-4.642999768E-1
1.108174375E1;2.896699905E0;1.417699933E0;-1.148399949E0
1.110159844E1;1.617900014E0;1.231099963E0;-6.322999597E-1
1.112145000E1;1.779000014E-1;-1.791999936E-1;6.583999991E-1
1.114130312E1;-5.478000045E-1;-1.069999933E0;8.950999975E-1
1.116115625E1;-9.294999838E-1;-6.042999625E-1;2.484999895E-1
1.118100938E1;-6.146000028E-1;1.165999994E-1;-8.886999488E-1
1.120086094E1;2.619000077E-1;3.300999999E-1;-5.893999934E-1
1.122071250E1;6.974999905E-1;1.252999902E-1;5.803999901E-1
1.124056562E1;6.556999683E-1;4.864999950E-1;1.056599975E0
1.126041875E1;7.572000027E-1;1.206399918E0;5.356999636E-1
1.128027031E1;9.100999832E-1;3.937000036E-1;-5.920000002E-2
1.130012344E1;1.914999932E-1;-6.275999546E-1;4.999999888E-3
1.131997656E1;-6.290000081E-1;-6.690999866E-1;-1.316999942E-1
1.133982812E1;-8.453999758E-1;1.846999973E-1;-4.959999919E-1
1.135968125E1;-3.576999903E-1;3.664999902E-1;1.294000000E-1
1.137953438E1;5.579999834E-2;4.904999733E-1;8.982999921E-1
1.139938594E1;1.055299997E0;5.040999651E-1;3.871999979E-1
1.141923906E1;5.072000027E-1;5.534999967E-1;9.569999576E-2
1.143909219E1;-1.184899926E0;1.532000005E-1;1.871299982E0
1.145894531E1;-1.811199903E0;3.251000047E-1;2.313099861E0
1.147879688E1;-1.003000021E0;6.030000001E-2;1.674399972E0
1.149865000E1;-2.149999887E-1;-1.311699986E0;1.313899994E0
1.151850312E1;-6.359999776E-1;-1.935199976E0;1.146199942E0
1.153835469E1;-6.035000086E-1;-5.613999963E-1;-5.861999989E-1
1.155820781E1;-1.364499927E0;3.342999816E-1;-9.235999584E-1
1.157806094E1;-1.407699943E0;8.921999931E-1;-7.440999746E-1
1.159791406E1;9.640000015E-2;3.886999786E-1;-2.809000015E-1
1.161776562E1;1.083500028E0;-4.790000021E-1;3.023000062E-1
1.163761875E1;8.894000053E-1;-1.779999882E-1;5.349999666E-1
1.165747188E1;1.134199977E0;1.074599981E0;-3.914999962E-1
1.167734375E1;1.267099977E0;1.031199932E0;-8.240999579E-1
1.169717656E1;1.149399996E0;7.576000094E-1;-1.176999956E-1
1.171702969E1;1.240299940E0;5.884999633E-1;6.213999987E-1
1.173688281E1;9.046999812E-1;4.233999848E-1;2.412000000E-1
1.175673438E1;-1.891999990E-1;7.332999706E-1;-6.606000066E-1
1.177658750E1;-5.368999839E-1;1.111500025E0;-6.895999908E-1
1.179644062E1;5.027999878E-1;1.082199931E0;1.618999988E-1
1.181629219E1;2.028399944E0;4.528999925E-1;1.292199969E0
1.183614531E1;2.957999945E0;-2.333000004E-1;9.332000017E-1
1.185599844E1;2.327699900E0;-7.642999887E-1;6.089999676E-1
1.187585000E1;1.190799952E0;-8.865000010E-1;4.842000008E-1
1.189570312E1;1.121999994E-1;-6.150999665E-1;9.062999487E-1
1.191555625E1;-1.220499992E0;-5.661000013E-1;1.278399944E0
1.193540781E1;-2.243900061E0;-2.357999980E-1;1.700999975E0
1.195526094E1;-2.503200054E0;1.790999919E-1;2.706099987E0
1.197511250E1;-1.798399925E0;1.380999982E-1;1.749199986E0
1.199496562E1;-5.985000134E-1;-3.419999778E-2;3.111999929E-1
1.201481875E1;1.439999975E-2;4.800999761E-1;1.271199942E0
1.203467031E1;-2.441999912E-1;7.637999654E-1;5.871999860E-1
1.205452344E1;-1.328999996E-1;3.087999821E-1;8.071999550E-1
1.207437656E1;5.985999703E-1;-7.339999676E-1;1.672299981E0
1.209422812E1;1.013199925E0;-6.793000102E-1;6.423999667E-1
1.211408125E1;-2.689999901E-2;-4.642999768E-1;3.693999946E-1
1.213393438E1;-1.308300018E0;-7.380999923E-1;-6.470999718E-1
1.215378750E1;-6.613999605E-1;-1.367100000E0;8.995999694E-1
1.217363906E1;-1.664000005E-1;-2.797099829E0;1.857100010E0
1.219349219E1;-4.782999754E-1;-2.096699953E0;6.802999973E-1
1.221334531E1;-1.068899989E0;-1.009999990E0;-9.025999904E-1
1.223319688E1;-6.933000088E-1;-4.520999789E-1;-8.622999787E-1
1.225305000E1;-1.665999889E-1;4.127999842E-1;7.360000163E-2
1.227291094E1;-1.656999886E-1;9.835000038E-1;7.027999759E-1
1.229275469E1;7.999999798E-4;1.346099973E0;7.274000049E-1
1.231260781E1;2.969999984E-2;1.506500006E0;7.750999928E-1
1.233246094E1;-2.773999870E-1;1.142899990E0;6.173999906E-1
1.235231406E1;-3.310999870E-1;3.118000031E-1;-6.169999763E-2
1.237216563E1;2.549999952E-1;-1.037699938E0;-1.532699943E0
1.239201875E1;2.495100021E0;-1.716099977E0;-3.261999846E0
1.241187188E1;3.509599924E0;-1.489799976E0;-4.117300034E0
1.243172344E1;1.625299931E0;-1.172699928E0;-7.642999887E-1
1.245157656E1;1.169600010E0;-2.901999950E-1;-8.883999586E-1
1.247142969E1;1.361899972E0;7.057999969E-1;-1.654299974E0
1.249128125E1;1.660300016E0;1.370899916E0;-1.696999907E0
1.251113438E1;1.967199922E0;1.965099931E0;-6.265000105E-1
1.253098750E1;1.536799908E0;1.969199896E0;5.726999640E-1
1.255083906E1;6.315000057E-1;1.597800016E0;2.009899855E0
1.257069219E1;-6.890000105E-1;1.429600000E0;2.948499918E0
1.259054531E1;-1.604699969E0;1.275399923E0;2.116999865E0
1.261039844E1;-2.229199886E0;1.413999915E0;1.109699965E0
1.263025000E1;-2.748499870E0;1.618199944E0;5.235999823E-1
1.265010313E1;-2.860199928E0;1.624300003E0;9.408999681E-1
1.266995781E1;-2.279599905E0;9.509999752E-1;6.269999593E-2
1.268980938E1;-1.067799926E0;1.899999916E-3;1.946999878E-1
1.270966094E1;5.639999732E-2;-5.698999763E-1;1.630599976E0
1.272951406E1;3.416999876E-1;-5.356999636E-1;2.296299934E0
1.274936563E1;-2.029999942E-1;1.847999990E-1;6.911000013E-1
1.276921875E1;-1.248499990E0;5.841999650E-1;-1.313199997E0
1.278907188E1;-1.736799955E0;2.692999840E-1;-1.798599958E0
1.280892500E1;-1.672599912E0;-1.706299901E0;-1.273399949E0
1.282877656E1;-1.183099985E0;-3.706199884E0;-1.712599993E0
1.284862969E1;-4.849999845E-1;-3.070600033E0;-3.278399944E0
1.286848281E1;7.329999804E-1;2.965999842E-1;-2.711899996E0
1.288833438E1;2.227999926E0;9.748999476E-1;-9.899999499E-1
1.290818750E1;3.519599915E0;-2.983999848E-1;2.057999969E-1
1.292804063E1;4.670599937E0;-1.287299991E0;4.623999894E-1
1.294789375E1;4.816699982E0;-3.649999797E-1;-8.745999932E-1
1.296774531E1;3.858500004E0;1.807599902E0;-1.395900011E0
1.298759844E1;2.835999966E0;2.050099850E0;-4.855999947E-1
1.300745156E1;1.552799940E0;9.660999775E-1;8.398999572E-1
1.302730313E1;-2.939999849E-2;-2.705000043E-1;9.548999667E-1
1.304715625E1;-1.119899988E0;-6.718999743E-1;3.116999865E-1
1.306700938E1;-8.011999726E-1;2.550999820E-1;-3.621999919E-1
1.308686094E1;6.300000008E-3;5.640999675E-1;1.701999903E-1
1.310671406E1;1.147899985E0;3.564999998E-1;8.649999499E-1
1.312656719E1;1.895199895E0;-5.790000036E-2;-1.973000020E-1
1.314641875E1;1.644699931E0;-5.070999861E-1;-3.044499874E0
1.316627188E1;6.699999794E-3;-1.227299929E0;-4.391200066E0
1.318612500E1;-2.971199989E0;-1.375000000E0;-5.511699677E0
1.320597656E1;-4.858900070E0;6.548999548E-1;-5.787600040E0
1.322582969E1;-1.342399955E0;5.992000103E-1;-3.635999918E0
1.324568281E1;-4.052999914E-1;-2.573899984E0;1.050400019E0
1.326553438E1;-5.367000103E-1;-7.193299770E0;1.367399931E0
1.328538750E1;-3.590999842E0;-6.057199955E0;-4.981999874E0
1.330524063E1;-5.096999645E0;-1.514999986E0;-5.786499977E0
1.332509219E1;-3.847599983E0;8.161000013E-1;-8.112999797E-1
1.334494531E1;-1.134899974E0;1.503000021E0;2.595599890E0
1.336479844E1;1.058499932E0;8.586999774E-1;1.087299943E0
1.338465000E1;2.103999853E0;7.439999580E-1;-9.820999503E-1
1.340450313E1;1.376999974E0;8.125999570E-1;-1.287999898E-1
1.342435625E1;7.307999730E-1;1.921999931E0;3.747999966E-1
1.344420781E1;-1.104599953E0;2.620599985E0;8.964999914E-1
1.346406094E1;-2.293900013E0;3.351399899E0;3.252599955E0
1.348391406E1;-1.628499985E0;3.029099941E0;3.149899960E0
1.350376719E1;-7.785999775E-1;1.046000004E0;2.899699926E0
1.352361875E1;-1.031399965E0;-1.149699926E0;7.725999951E-1
1.354347188E1;-1.495899916E0;-1.736599922E0;-2.610199928E0
1.356332500E1;3.835999966E-1;-2.146999985E-1;-2.788800001E0
1.358317656E1;2.599999905E0;2.197000027E0;-2.049099922E0
1.360302969E1;4.211899757E0;3.215299845E0;-7.889999747E-1
1.362288281E1;3.807399988E0;2.723500013E0;1.907599926E0
1.364273438E1;7.202999592E-1;1.931999922E0;4.393000126E0
1.366258750E1;-2.125000000E0;1.251299977E0;1.052899957E0
1.368244063E1;-3.410799980E0;-1.664000005E-1;-3.242000043E-1
1.370229375E1;-3.949299812E0;-2.399999946E-1;-1.319299936E0
1.372214531E1;-1.610000014E0;2.184000015E0;-2.322099924E0
1.374199844E1;4.370999932E-1;3.223299980E0;-1.664000005E-1
1.376185156E1;-1.526999921E-1;1.161299944E0;-1.245599985E0
1.378170313E1;-4.626999795E-1;-4.805999994E-1;-2.078099966E0
1.380155625E1;-2.336299896E0;-2.672099829E0;-2.413499832E0
1.382140938E1;-5.173899651E0;-5.553400040E0;-5.920700073E0
1.384126094E1;-6.259099960E0;-6.898200035E0;-1.089069939E1
1.386111406E1;-5.841899872E0;-9.200900078E0;-8.156499863E0
1.388096719E1;-2.127099991E0;-7.607499599E0;-3.637999892E-1
1.390082031E1;1.577199936E0;2.924700022E0;6.911099911E0
1.392067188E1;3.263799906E0;9.540499687E0;1.025109959E1
1.394052500E1;9.142399788E0;9.567599297E0;4.729300022E0
1.396037812E1;1.496299934E1;3.623099804E0;3.729399920E0
1.398022969E1;7.709899902E0;-5.707999706E0;3.327799797E0
1.400008281E1;-3.435899973E0;-9.736000061E0;5.190700054E0
1.401993594E1;-4.426000118E0;-3.278899908E0;3.166699886E0
1.403978906E1;-2.610800028E0;1.141199946E0;1.196099997E0
1.405964062E1;-3.287000060E-1;1.702999949E0;2.737299919E0
1.407949375E1;4.729999974E-2;1.316399932E0;2.467099905E0
1.409934688E1;1.352299929E0;1.718099952E0;2.414599895E0
1.411919844E1;2.223599911E0;1.822600007E0;2.145900011E0
1.413905156E1;2.323499918E0;1.462599993E0;1.616999984E0
1.415890469E1;1.050799966E0;-1.370000001E-2;1.160200000E0
1.417875625E1;-4.346999824E-1;-1.815000027E-1;1.740999967E-1
1.419860938E1;-3.089999966E-2;1.279600024E0;-1.465099931E0
1.421846250E1;1.508899927E0;1.356400013E0;-1.294600010E0
1.423831406E1;2.376999855E0;7.583999634E-1;3.208999932E-1
1.425816719E1;2.530799866E0;-3.452000022E-1;1.088599920E0
1.427802031E1;-2.642000020E-1;-1.138299942E0;2.881000042E-1
1.429787344E1;-1.587700009E0;-7.409999967E-1;-2.180999964E-1
1.431772500E1;-1.260499954E0;-1.685999930E-1;1.050999984E-1
1.433757812E1;-1.500899911E0;2.590999901E-1;4.799999893E-1
1.435743125E1;-1.049299955E0;2.484999895E-1;3.370999992E-1
1.437728281E1;1.402400017E0;3.173999786E-1;-9.035999775E-1
1.439713594E1;3.193399906E0;8.876999617E-1;-1.988999993E-1
1.441698906E1;3.171999931E0;1.530200005E0;1.151799917E0
1.443684062E1;3.086499929E0;1.609899998E0;1.528100014E0
1.445669375E1;3.919199944E0;6.157999635E-1;4.614999890E-1
1.447654688E1;3.688999891E0;-4.702999890E-1;-7.127999663E-1
1.449639844E1;1.405599952E0;-5.931999683E-1;-8.302999735E-1
1.451625156E1;-7.450999618E-1;-2.639999986E-1;-2.698000073E-1
1.453610312E1;-8.145999908E-1;-4.861999750E-1;7.299999706E-3
1.455595625E1;5.779999867E-2;-9.179999828E-1;1.274999976E-1
1.457580938E1;1.995999932E0;-8.287000060E-1;1.333999932E-1
1.459566250E1;3.641099930E0;-1.620000042E-2;-1.398299932E0
1.461551406E1;5.744999886E0;2.285099983E0;-8.488200188E0
1.463536719E1;4.319200039E0;3.385099888E0;-7.094999790E0
1.465524844E1;2.667799950E0;1.001899958E0;-3.251699924E0
1.467507344E1;2.359599829E0;-3.262599945E0;7.243999839E-1
1.469492500E1;5.227999687E-1;-5.257400036E0;1.844900012E0
1.471477812E1;-1.803999901E0;-2.879299879E0;2.317600012E0
1.473463125E1;-1.630699992E0;6.031000018E-1;4.055500031E0
1.475448281E1;-6.056999564E-1;3.008800030E0;4.065099716E0
1.477433594E1;-7.840000093E-2;4.163700104E0;1.284500003E0
1.479418750E1;-1.275099993E0;3.798199892E0;5.889999866E-1
1.481404062E1;1.262999922E-1;2.438299894E0;7.911999822E-1
1.483389375E1;-1.291199923E0;-1.053499937E0;-1.580399990E0
1.485374688E1;-3.754899979E0;-2.059700012E0;-3.431699991E0
1.487359844E1;-2.839499950E0;-1.096400023E0;-8.489999920E-2
1.489345156E1;-3.576000035E-1;-1.048799992E0;4.302099705E0
1.491330469E1;3.912999928E-1;-8.739999533E-1;5.058199883E0
1.493315625E1;-1.155399919E0;3.782999814E-1;4.427299976E0
1.495300938E1;-2.424199820E0;3.160899878E0;2.199100018E0
1.497286250E1;-7.324999571E-1;6.492399693E0;-9.422999620E-1
1.499271406E1;-7.645999789E-1;5.153899670E0;-3.102200031E0
1.501256719E1;-3.431999922E0;6.849999726E-2;4.157099724E0
1.503242031E1;4.598999918E-1;-3.475999832E0;1.480099916E0
1.505227344E1;4.339999676E0;-4.543799877E0;-1.503499985E0
1.507212500E1;3.857199907E0;-1.014899969E0;1.458899975E0
1.509197812E1;3.819099903E0;2.578199863E0;-2.763499975E0
1.511183125E1;6.213999987E-1;1.532899976E0;-1.446599960E0
1.513168281E1;1.761599898E0;1.155699968E0;-2.534499884E0
1.515153594E1;1.862399936E0;3.199999919E-3;-1.954800010E0
1.517138906E1;2.700500011E0;-2.241999954E-1;6.653000116E-1
1.519124062E1;3.178999901E0;7.493000031E-1;8.204999566E-1
1.521109375E1;4.402800083E0;2.072900057E0;-1.017799973E0
1.523094688E1;1.845899940E0;9.817999601E-1;-1.233899951E0
1.525080000E1;-1.351599932E0;-3.095999956E-1;-2.200000048E0
1.527065156E1;-3.456099987E0;-9.453999996E-1;-1.479300022E0
1.529050469E1;-3.615399837E0;-6.847000122E-1;-1.924999952E-1
1.531035781E1;-1.541499972E0;-1.493399978E0;1.579800010E0
1.533020938E1;1.077399969E0;-2.490299940E0;1.700799942E0
1.535006250E1;5.087999701E-1;-1.492699981E0;9.916999936E-1
1.536991562E1;-1.472999901E-1;-8.676999807E-1;3.084999919E-1
1.538976719E1;-5.809000134E-1;-1.494099975E0;7.558000088E-1
1.540962031E1;-1.412299991E0;-1.796299934E0;4.981999993E-1
1.542947344E1;-5.648999810E-1;-1.292799950E0;4.447000027E-1
1.544932656E1;8.700999618E-1;-4.237999916E-1;3.525999784E-1
1.546917813E1;1.373199940E0;-4.329999909E-2;2.391999960E-1
1.548903125E1;1.298599958E0;-4.251999855E-1;1.061000004E-1
1.550888438E1;1.764899969E0;-1.025200009E0;7.150999904E-1
1.552873594E1;2.047899961E0;-1.643299937E0;1.229300022E0
1.554858906E1;2.391899824E0;-1.500899911E0;1.039600015E0
1.556844219E1;3.285699844E0;-1.310999990E0;3.086999953E-1
1.558829531E1;4.433799744E0;-2.193399906E0;-7.612999678E-1
1.560814688E1;5.148499966E0;-3.403999805E0;-1.945799947E0
1.562800000E1;5.970499992E0;-3.595999956E0;-3.243399858E0
1.564785313E1;5.157499790E0;-2.562000036E0;-4.396999836E0
1.566770469E1;3.029399872E0;-5.429999828E-1;-3.753799915E0
1.568755781E1;1.852599978E0;6.008999944E-1;-1.719900012E0
1.570741094E1;7.748000026E-1;7.421999574E-1;7.750000060E-2
1.572726250E1;-1.955999881E-1;3.537999988E-1;2.130100012E0
1.574711563E1;-1.952600002E0;-7.062999606E-1;4.678299904E0
1.576696875E1;-3.871399879E0;-1.497699976E0;4.512799740E0
1.578682031E1;-3.932599783E0;-2.184399843E0;6.416999698E-1
1.580667344E1;-3.459699869E0;-1.819700003E0;-6.487799644E0
1.582652656E1;-3.558799982E0;-4.089999944E-2;-3.360899925E0
1.584637813E1;-3.426599979E0;1.378299952E0;7.615000010E-1
1.586623125E1;-3.473799944E0;2.410599947E0;2.965899944E0
1.588608438E1;-3.290599823E0;2.983700037E0;3.476399899E0
1.590593594E1;-2.834100008E0;3.433599949E0;2.977799892E0
1.592578906E1;-2.405599833E0;3.878199816E0;2.256799936E0
1.594564219E1;-1.626599908E0;3.786999941E0;1.842299938E0
1.596549531E1;-8.371999860E-1;3.325899839E0;1.093599916E0
1.598534688E1;-5.194000006E-1;2.932499886E0;1.939399958E0
1.600520000E1;-5.022000074E-1;1.608099937E0;1.048099995E0
1.602505156E1;-5.119999871E-2;7.594000101E-1;1.107999980E-1
1.604490469E1;1.993999928E-1;9.669999778E-2;2.031999975E-1
1.606475781E1;-4.161999822E-1;-2.484999895E-1;-1.680599928E0
1.608460938E1;-1.259500027E0;-4.748999774E-1;-3.462800026E0
1.610446250E1;-1.662400007E0;-1.065899968E0;-2.477099895E0
1.612431562E1;-2.088899851E0;-1.515499949E0;1.441499949E0
1.614416719E1;-3.297499895E0;-2.567999959E-1;4.750899792E0
1.616402031E1;-2.275199890E0;1.903999895E-1;4.571599960E0
1.618387344E1;-1.612699986E0;-9.138000011E-1;3.649999857E0
1.620372656E1;-1.059700012E0;-8.072999716E-1;2.798499823E0
1.622357812E1;1.950000040E-2;-2.698000073E-1;1.668999940E-1
1.624343125E1;1.562299967E0;4.829999804E-2;-3.933099985E0
1.626328438E1;1.928399920E0;3.790999949E-1;-3.875499964E0
1.628313594E1;1.242900014E0;1.793999970E-1;-3.240999877E-1
1.630298906E1;1.226699948E0;-1.639000028E-1;1.369599938E0
1.632284219E1;5.223999619E-1;1.298999935E-1;4.667999744E-1
1.634269531E1;5.406999588E-1;3.079999983E-2;5.169999972E-2
1.636254688E1;1.404899955E0;-7.799999788E-3;6.926999688E-1
1.638240000E1;2.047699928E0;1.788999885E-1;1.803999901E0
1.640225312E1;2.445299864E0;2.456999868E-1;2.454999924E0
1.642210469E1;2.466699839E0;3.973999918E-1;2.320400000E0
1.644195781E1;2.875399828E0;4.141999781E-1;1.496999979E0
1.646181094E1;2.299799919E0;4.632999897E-1;-8.824999928E-1
1.648166250E1;5.493999720E-1;9.892999530E-1;-4.947899818E0
1.650151562E1;-6.082000136E-1;9.301999807E-1;-3.508999825E0
1.652136875E1;-4.096999764E-1;5.009999871E-2;2.285999954E-1
1.654122188E1;5.188999772E-1;-1.368999928E-1;2.120599985E0
1.656107344E1;1.724099994E0;1.121199965E0;2.595499992E0
1.658092656E1;1.236899972E0;1.573399901E0;2.477499962E0
1.660077969E1;1.861999989E0;1.139699936E0;1.733299971E0
1.662063125E1;2.938899994E0;4.328999817E-1;2.038999945E-1
1.664048438E1;1.312999964E0;-4.019999802E-1;-2.233999968E-1
1.666033750E1;-1.300799966E0;-1.912999898E-1;-1.228099942E0
1.668018906E1;-2.843600035E0;2.469999939E-1;-1.416899920E0
1.670004219E1;-2.803900003E0;2.861000001E-1;4.075999856E-1
1.671989531E1;-1.484300017E0;1.895999908E-1;1.796899915E0
1.673974844E1;1.750999987E-1;2.829000056E-1;7.499999832E-3
1.675960000E1;2.034999877E-1;1.033499956E0;-1.840099931E0
1.677945312E1;-7.694000006E-1;9.189999700E-1;-3.222899914E0
1.679930625E1;2.293999940E-1;4.351999760E-1;2.161399841E0
1.681915781E1;1.649799943E0;2.221999913E-1;1.922299981E0
1.683901094E1;2.014199972E0;1.363999963E0;1.600499988E0
1.685886406E1;1.007900000E0;1.036800027E0;2.795000076E-1
1.687871562E1;1.389999967E-2;-7.721999884E-1;8.700000048E-1
1.689856875E1;9.997999668E-1;-1.680799961E0;2.809199810E0
1.691842188E1;3.827199936E0;-5.604999661E-1;3.591799974E0
1.693827344E1;5.721999645E0;1.434299946E0;4.436199665E0
1.695812656E1;5.471899986E0;1.289799929E0;3.375699997E0
1.697797969E1;3.794199944E0;-1.913999915E-1;1.103199959E0
1.699783281E1;2.622699976E0;-9.862999916E-1;1.323099971E0
1.701768438E1;2.648099899E0;-1.085199952E0;1.078999996E0
1.703753750E1;2.354399920E0;-1.705299973E0;-3.299999982E-3
1.705738906E1;-3.167999983E-1;-2.965699911E0;3.315999985E0
1.707724219E1;-4.038599968E0;-3.759999990E0;2.549999952E-1
1.709709531E1;-3.434399843E0;-4.790999889E0;-5.612999797E-1
1.711694688E1;-3.624199867E0;-3.471899986E0;5.443999767E-1
1.713680000E1;-3.813899994E0;-1.319299936E0;1.329800010E0
1.715665313E1;-1.617299914E0;-1.258799911E0;-2.908999920E-1
1.717650625E1;-9.271999598E-1;-2.685999870E0;-9.088999629E-1
1.719635781E1;1.554000020E0;-2.634799957E0;-3.200999975E0
1.721621094E1;2.744699955E0;-1.141199946E0;-3.010200024E0
1.723606250E1;1.287999988E0;8.343999982E-1;-5.500999689E-1
1.725591562E1;-9.785999656E-1;1.866899967E0;3.077999949E-1
1.727576875E1;-1.844399929E0;2.166899920E0;7.786999941E-1
1.729562031E1;-3.423999846E-1;5.375999808E-1;-8.768000007E-1
1.731547344E1;1.288599968E0;-3.349099874E0;-2.042700052E0
1.733532812E1;8.794999719E-1;-5.490499973E0;-2.476999998E0
1.735517969E1;-1.180599928E0;-3.000599861E0;-1.284899950E0
1.737503125E1;-1.774199963E0;1.580099940E0;-6.396999955E-1
1.739488594E1;-1.061299920E0;5.230199814E0;-1.471699953E0
1.741473750E1;6.814000010E-1;6.303299904E0;2.960000038E-1
1.743458906E1;-3.306999803E-1;2.982800007E0;2.962000072E-1
1.745444219E1;-9.070000052E-1;6.750000119E-1;4.499999806E-3
1.747429531E1;-3.467999995E-1;1.008299947E0;-5.345000029E-1
1.749414844E1;3.358999789E-1;2.277099848E0;-1.044999957E-1
1.751400156E1;8.895999789E-1;3.354099989E0;1.420199990E0
1.753385938E1;2.185999900E-1;3.299399853E0;2.536999941E0
1.755370625E1;-5.813999772E-1;3.332099915E0;1.903299928E0
1.757355938E1;-4.246999919E-1;3.858799934E0;1.415799975E0
1.759341250E1;6.276999712E-1;3.078299999E0;1.396399975E0
1.761326406E1;5.133000016E-1;1.229499936E0;7.527999878E-1
1.763311719E1;2.719999850E-1;-6.439999938E-1;-1.354099989E0
1.765296875E1;-2.531999946E-1;2.861999869E-1;-1.781699896E0
1.767282188E1;-6.553999782E-1;1.596699953E0;9.844999909E-1
1.769267500E1;-1.018199921E0;1.467899919E0;1.354599953E0
1.771252656E1;-1.318199992E0;1.044000030E0;-2.419999987E-2
1.773237969E1;-2.178099871E0;-5.514000058E-1;-3.011199951E0
1.775223281E1;-3.362200022E0;-3.327099800E0;-6.956599712E0
1.777208438E1;-3.144999981E0;-6.080800056E0;-7.649299622E0
1.779193750E1;-3.376999795E-1;-4.663700104E0;-4.436899662E0
1.781179062E1;3.436999917E-1;-1.381399989E0;1.073899984E0
1.783164375E1;2.155400038E0;1.641999930E-1;3.118799925E0
1.785149531E1;2.986399889E0;1.178900003E0;3.644199848E0
1.787134844E1;3.786999941E0;1.392599940E0;1.793999910E0
1.789120000E1;3.272699833E0;1.445400000E0;-3.019999899E-2
1.791105313E1;1.223099947E0;1.291100025E0;-4.518999755E-1
1.793090625E1;-4.109999835E-1;6.322999597E-1;4.804999828E-1
1.795075938E1;-1.679499984E0;-1.184399962E0;1.075299978E0
1.797061094E1;-1.738299966E0;-1.419600010E0;1.723500013E0
1.799046406E1;-1.164899945E0;-2.497999966E-1;1.774599910E0
1.801031719E1;1.718000025E-1;-1.180999950E-1;2.016399860E0
1.803016875E1;3.904999793E-1;-3.704999983E-1;2.717799902E0
1.805002188E1;4.791999757E-1;-3.519999981E-2;2.424599886E0
1.806987500E1;-2.039999887E-2;6.724999547E-1;1.362599969E0
1.808972812E1;-5.151000023E-1;7.630999684E-1;3.621000051E-1
1.810957969E1;-7.466999888E-1;1.081999987E-1;-4.649999738E-1
1.812943281E1;-9.095999599E-1;-4.889999926E-1;-3.032000065E-1
1.814928594E1;-1.571999937E-1;-3.975999951E-1;5.507000089E-1
1.816913750E1;7.774999738E-1;-2.275999933E-1;1.129699945E0
1.818899063E1;1.647899985E0;-4.224999845E-1;1.464299917E0
1.820884375E1;1.683799982E0;-7.195999622E-1;1.774999976E0
1.822869531E1;2.386999875E-1;-1.141700029E0;2.109099865E0
1.824854844E1;-1.202199936E0;-1.680999994E0;2.612299919E0
1.826840156E1;-2.600399971E0;-2.260099888E0;2.319200039E0
1.828825312E1;-2.036599874E0;-7.750000060E-2;-5.508999825E-1
1.830810625E1;-1.054000020E0;1.426800013E0;-4.212299824E0
1.832795938E1;-2.286499977E0;1.051699996E0;-2.195699930E0
1.834781250E1;-2.214599848E0;1.365399957E0;-3.480000049E-2
1.836766406E1;8.368999958E-1;2.523900032E0;-1.869599938E0
1.838751719E1;2.137399912E0;3.288399935E0;-2.166699886E0
1.840737031E1;-1.178900003E0;2.388200045E0;2.481799841E0
1.842722188E1;-3.156299829E0;1.328199983E0;4.210000038E0
1.844707500E1;-2.104399920E0;1.490199924E0;4.291100025E0
1.846692813E1;-2.872400045E0;1.565099955E0;5.070499897E0
1.848677969E1;-3.489399910E0;1.045599937E0;5.617599964E0
1.850663281E1;-3.029899836E0;7.852999568E-1;4.548799992E0
1.852648594E1;-2.719899893E0;9.749999642E-1;3.206899881E0
1.854633750E1;-3.125099897E0;-2.701999843E-1;2.073899984E0
1.856619062E1;-3.046799898E0;-8.578999639E-1;8.100000210E-3
1.858604219E1;-2.296299934E0;-5.942999721E-1;-3.447700024E0
1.860589531E1;-6.484999657E-1;5.102999806E-1;-3.724200010E0
1.862574844E1;2.099999925E-3;1.216699958E0;-2.030099869E0
1.864560000E1;1.730000041E-2;1.672899961E0;-1.181399941E0
1.866545313E1;1.197000027E0;2.195799828E0;-7.281000018E-1
1.868530625E1;1.383299947E0;1.839899898E0;7.979999781E-1
1.870515938E1;1.213299990E0;6.327999830E-1;1.291100025E0
1.872501094E1;5.479999781E-1;6.496999860E-1;2.066299915E0
1.874486406E1;-2.399999881E-3;1.535099983E0;2.334499836E0
1.876471719E1;5.595999956E-1;1.699999906E-2;1.534699917E0
1.878456875E1;4.242999852E-1;-2.331599951E0;1.884799957E0
1.880442188E1;-9.343999624E-1;-4.923199654E0;1.766199946E0
1.882427500E1;-1.624399900E0;-4.805399895E0;1.082599998E0
1.884412812E1;-1.486299992E0;-4.140399933E0;2.250999957E-1
1.886397969E1;-1.442999959E0;-6.742699623E0;-5.686999798E0
1.888383281E1;1.140599966E0;-8.479199409E0;-8.473799706E0
1.890368594E1;2.804499865E0;-6.284499645E0;1.640100002E0
1.892353750E1;3.568099976E0;-4.328399658E0;1.686800003E0
1.894339063E1;1.765299916E0;-1.975600004E0;1.629299998E0
1.896324375E1;-5.600000024E-1;9.598000050E-1;2.504400015E0
1.898309531E1;-2.191999912E0;3.812899828E0;2.511800051E0
1.900294844E1;-2.718199968E0;6.064899921E0;9.110999703E-1
1.902280469E1;-4.264999926E-1;5.857800007E0;-1.670899987E0
1.904265469E1;2.432399988E0;2.733599901E0;-2.594799995E0
1.906250625E1;4.097799778E0;-2.071799994E0;-1.775599957E0
1.908235938E1;5.344099998E0;-4.746999741E0;2.309999987E-2
1.910221250E1;4.273099899E0;-2.843400002E0;3.160899878E0
1.912206406E1;3.533299923E0;2.065000057E0;1.576599956E0
1.914191719E1;3.415299892E0;3.957000017E0;-2.138799906E0
1.916177031E1;2.862499952E0;3.286199808E0;-2.254999876E0
1.918162188E1;1.437600017E0;1.453899980E0;-4.608999789E-1
1.920147500E1;7.019000053E-1;4.878999889E-1;8.701999784E-1
1.922132812E1;6.897000074E-1;2.123999894E-1;2.343999892E-1
1.924118125E1;4.805999994E-1;-3.120999932E-1;-1.175599933E0
1.926103281E1;1.424999982E-1;-3.102000058E-1;-1.989099979E0
1.928088594E1;-7.498999834E-1;-1.588999927E-1;-4.322400093E0
1.930073750E1;5.461999774E-1;2.705999911E-1;-4.495699883E0
1.932059062E1;2.204499960E0;4.334999919E-1;-1.923699975E0
1.934044375E1;3.125900030E0;3.786000013E-1;-7.768999934E-1
1.936029688E1;3.161199808E0;-2.593999803E-1;7.871999741E-1
1.938014844E1;2.103499889E0;-6.762999892E-1;1.654699922E0
1.940000156E1;7.056999803E-1;-7.023999691E-1;1.799699903E0
1.941985312E1;-1.004199982E0;-3.258999884E-1;1.699299932E0
1.943970781E1;-2.651000023E0;1.851999909E-1;1.471899986E0
1.945955938E1;-3.377799988E0;7.414000034E-1;3.779000044E-1
1.947941250E1;-2.837100029E0;1.492499948E0;-2.606199980E0
1.949926562E1;-1.206200004E0;1.627799988E0;-4.012799740E0
1.951911719E1;-5.396000147E-1;9.663999677E-1;-1.492399931E0
1.953897031E1;6.870000064E-2;2.653000057E-1;1.726000011E-1
1.955882344E1;5.135999918E-1;-1.343999952E-1;3.773999810E-1
1.957867500E1;6.147999763E-1;-3.339999914E-2;3.615999818E-1
1.959852812E1;1.327999949E0;2.195999920E-1;1.727999896E-1
1.961838125E1;1.754299998E0;-2.644999921E-1;-5.288000107E-1
1.963823438E1;1.443799973E0;-3.910999894E-1;-1.429000020E0
1.965808594E1;7.805999517E-1;-5.845999718E-1;-8.094999790E-1
1.967793906E1;2.181999981E-1;-1.787000000E-1;4.472000003E-1
1.969779062E1;5.460000038E-2;1.829999872E-2;8.356999755E-1
1.971764375E1;2.838000059E-1;-7.989999652E-2;3.930999935E-1
1.973749531E1;3.666999936E-1;4.697999954E-1;6.509999931E-2
1.975734844E1;3.650999963E-1;1.196399927E0;-1.195999980E-1
1.977720156E1;6.146999598E-1;1.560699940E0;-6.524999738E-1
1.979705469E1;8.251000047E-1;1.289299965E0;-5.388000011E-1
1.981690781E1;3.987999856E-1;9.388999939E-1;1.261000037E-1
1.983675938E1;1.261000037E-1;2.331999987E-1;5.485999584E-1
1.985661250E1;-1.585000008E-1;-6.818000078E-1;8.983999491E-1
1.987646406E1;-5.625999570E-1;-1.020300031E0;9.362999797E-1
1.989631719E1;-6.793999672E-1;-5.828999877E-1;5.681999922E-1
1.991617031E1;-3.630999923E-1;-6.529999524E-2;-2.433999926E-1
1.993602188E1;1.471000016E-1;-5.370000005E-2;-5.288999677E-1
1.995587500E1;1.767999977E-1;-9.348999858E-1;-6.028000116E-1
1.997572812E1;-3.906999826E-1;-2.456599951E0;-1.329399943E0
1.999558125E1;-8.474999666E-1;-2.811699867E0;-5.467299938E0
2.001543281E1;3.190999925E-1;-1.537499905E0;-9.789199829E0
2.003528594E1;-1.408499956E0;-1.347000003E-1;-1.002429962E1
2.005513906E1;-3.034499884E0;-1.416999996E-1;5.179999769E-2
2.007499062E1;-3.371999979E0;2.139999904E-2;4.226999760E0
2.009484375E1;-3.266000032E0;-1.359999925E-1;3.876499891E0
2.011469688E1;-2.595899820E0;4.580000043E-2;4.192199707E0
2.013454844E1;-2.159600019E0;-1.130499959E0;1.676699996E0
2.015440156E1;-3.161899805E0;-1.858599901E0;-3.129199982E0
2.017425469E1;-3.384199858E0;-1.200399995E0;-2.421200037E0
2.019410781E1;-8.976999521E-1;1.172299981E0;1.885000020E-1
2.021396094E1;1.082899928E0;3.683099985E0;9.386999607E-1
2.023381250E1;2.120899916E0;4.953299999E0;-2.131000012E-1
2.025366562E1;2.048399925E0;4.393199921E0;-6.001999974E-1
2.027351719E1;1.250399947E0;3.109699965E0;5.879999995E-1
2.029337031E1;9.454999566E-1;1.491199970E0;-1.411999911E-1
2.031322344E1;-1.052099943E0;-7.196999788E-1;-3.883499861E0
2.033307656E1;-8.149999976E-1;-1.949699998E0;-4.074699879E0
2.035292813E1;1.509999990E0;3.786999881E-1;-4.234499931E0
2.037278125E1;3.549399853E0;3.126499891E0;-1.470399976E0
2.039263438E1;1.162299991E0;2.726199865E0;5.130099773E0
2.041248594E1;-2.080999911E-1;1.561699986E0;7.436299801E0
2.043233906E1;-2.385799885E0;-3.249000013E-1;2.039999887E-2
2.045219219E1;-1.631899953E0;-4.309999943E-2;-1.477599978E0
2.047204375E1;-1.252699971E0;1.104099989E0;-7.448999882E-1
2.049189688E1;-1.620000005E-1;1.101099968E0;-7.019000053E-1
2.051175000E1;1.449999958E-2;-2.469999939E-1;-1.047500014E0
2.053160469E1;5.669999868E-2;-3.664000034E-1;-2.724699974E0
2.055145469E1;-1.719799995E0;-5.418999791E-1;-3.487799883E0
2.057130781E1;-3.262899876E0;-1.033100009E0;-2.731999874E0
2.059116094E1;-4.382800102E0;-2.143599987E0;-2.653599977E0
2.061102344E1;-6.052799702E0;-4.593499660E0;-6.393699646E0
2.063086563E1;-7.150599957E0;-1.076159954E1;-1.422309971E1
2.065071875E1;-6.056299686E0;-1.553239918E1;-2.958000004E-1
2.067057031E1;4.747900009E0;2.113299847E0;5.939199924E0
2.069042344E1;5.067499638E0;1.271789932E1;1.012659931E1
2.071027656E1;4.733299732E0;1.217719936E1;1.382579994E1
2.073012812E1;4.395299911E0;2.703399897E0;1.152050018E1
2.074998125E1;5.858500004E0;-7.673799992E0;7.893999815E-1
2.076983438E1;4.491699696E0;-1.313009930E1;-2.193000019E-1
2.078968594E1;7.651999593E-1;-2.575999975E0;4.012000084E0
2.080953906E1;1.059599996E0;2.675899982E0;2.661900043E0
2.082939219E1;5.364999771E-1;4.028899670E0;2.968299866E0
2.084924375E1;4.758999944E-1;3.947899818E0;2.537499905E0
2.086909688E1;1.159500003E0;2.604199886E0;1.479900002E0
2.088895000E1;2.747900009E0;1.041299939E0;-2.234999985E-1
2.090880156E1;3.409600019E0;-3.852999806E-1;-1.014099956E0
2.092865469E1;3.737299919E0;-1.090000011E-2;-2.417700052E0
2.094850781E1;2.315799952E0;1.305599928E0;-2.724499941E0
2.096835938E1;-5.382999778E-1;9.174999595E-1;8.866999745E-1
2.098821250E1;-2.598899841E0;-4.678999782E-1;2.543900013E0
2.100806562E1;-2.935799837E0;-1.108099937E0;1.333999991E0
2.102791719E1;-1.998799920E0;-4.818999767E-1;-6.911999583E-1
2.104777031E1;-7.475000024E-1;-1.994999945E-1;-1.400399923E0
2.106762344E1;-7.300999761E-1;-7.137999535E-1;-2.658900023E0
2.108747656E1;-2.422999889E-1;-1.023599982E0;-7.967000008E-1
2.110732813E1;7.774999738E-1;-8.496999741E-1;1.245000005E0
2.112718125E1;7.781999707E-1;7.646999955E-1;1.449800014E0
2.114703281E1;1.316599965E0;1.191100001E0;9.302999973E-1
2.116688594E1;2.682299852E0;6.854000092E-1;6.872000098E-1
2.118673906E1;3.069299936E0;3.710999787E-1;5.751000047E-1
2.120659531E1;2.837699890E0;8.578000069E-1;6.270999908E-1
2.122644375E1;2.443199873E0;1.236299992E0;-3.669999838E-1
2.124629688E1;1.879199982E0;6.667999625E-1;-1.627499938E0
2.126615000E1;1.781099916E0;4.658999741E-1;1.409999933E-2
2.128600156E1;1.287099957E0;2.231999934E-1;1.142599940E0
2.130585469E1;1.148299932E0;4.382999837E-1;2.740000002E-2
2.132570781E1;3.166999817E-1;6.227999926E-1;-1.084699988E0
2.134556094E1;1.071399927E0;5.374999642E-1;-5.576999784E-1
2.136541250E1;1.125699997E0;5.336999893E-1;-3.718999922E-1
2.138526563E1;4.842000008E-1;7.066000104E-1;4.863999784E-1
2.140511875E1;2.936999798E-1;5.360999703E-1;1.469999999E-1
2.142497031E1;1.179000020E0;1.829999983E-1;-6.390000135E-2
2.144482344E1;1.870999932E0;1.754999906E-1;2.372999936E-1
2.146467656E1;2.551199913E0;5.482000113E-1;1.228000000E-1
2.148452969E1;2.750099897E0;4.141999781E-1;-2.085999995E-1
2.150438281E1;1.831200004E0;3.332999945E-1;3.851999938E-1
2.152423438E1;2.214999944E-1;3.544999957E-1;1.174299955E0
2.154408750E1;-1.851499915E0;6.880999804E-1;1.422299981E0
2.156393906E1;-3.036299944E0;-3.438999951E-1;1.037899971E0
2.158379219E1;-2.703199863E0;-6.294999719E-1;-3.840000033E-1
2.160365156E1;-1.192499995E0;9.356999993E-1;-1.147599936E0
2.162349688E1;1.652999967E-1;1.376500010E0;-4.602999985E-1
2.164335000E1;1.626199961E0;7.598999739E-1;1.731999964E-1
2.166320313E1;2.850800037E0;4.114999771E-1;3.745999932E-1
2.168305625E1;3.348999977E0;8.084999919E-1;-1.022199988E0
2.170290781E1;1.489599943E0;1.085199952E0;-1.874300003E0
2.172276094E1;9.089999795E-1;8.596999645E-1;-1.999999881E-1
2.174261406E1;4.711000025E-1;-1.017300010E0;5.486999750E-1
2.176246562E1;-6.710000038E-1;-2.398999929E0;7.504000068E-1
2.178231875E1;-1.901199937E0;-2.247299910E0;-1.107800007E0
2.180217188E1;-1.474799991E0;4.466999769E-1;-1.976199985E0
2.182202500E1;3.331999779E-1;1.939999938E0;-4.244000018E-1
2.184187656E1;1.676499963E0;1.498600006E0;9.031999707E-1
2.186172969E1;2.510799885E0;5.241000056E-1;1.712099910E0
2.188158125E1;2.034499884E0;1.246999949E-1;1.180899978E0
2.190143438E1;1.575999975E0;1.216599941E0;-8.287000060E-1
2.192128750E1;1.246399999E0;1.727199912E0;-3.184999824E-1
2.194113906E1;1.067899942E0;8.253999949E-1;1.040099978E0
2.196099219E1;1.378499985E0;7.275999784E-1;1.801599979E0
2.198084531E1;1.900900006E0;1.707299948E0;6.897999644E-1
2.200069688E1;2.420799971E0;2.730900049E0;-1.263700008E0
2.202055000E1;2.405699968E0;3.138700008E0;-4.177799702E0
2.204040312E1;3.690299988E0;2.681699991E0;-3.738999844E0
2.206025625E1;5.347499847E0;2.164000034E0;-1.178799987E0
2.208010781E1;5.242399693E0;-3.287999928E-1;-6.548999548E-1
2.209996094E1;4.087299824E0;-3.356499910E0;-5.332999825E-1
2.211981406E1;3.066299915E0;-3.872499943E0;2.256700039E0
2.213966719E1;1.038200021E0;-3.692199945E0;5.009699821E0
2.215951875E1;-3.567699909E0;-4.711400032E0;7.215699673E0
2.217937188E1;-7.456799984E0;-5.562299728E0;1.520200014E0
2.219922500E1;-6.577300072E0;-4.751100063E0;-1.543519974E1
2.221907656E1;-1.765999913E0;-2.742699862E0;2.414799929E0
2.223892969E1;-3.662000000E-1;-2.200500011E0;4.790899754E0
2.225878125E1;-1.173499942E0;-3.310799837E0;3.345599890E0
2.227863438E1;-1.135100007E0;-3.355799913E0;-3.229999915E-2
2.229848750E1;-1.631199956E0;-2.541800022E0;-2.109799862E0
2.231834062E1;-2.702800035E0;-2.179499865E0;-1.611499906E0
2.233819219E1;-2.355399847E0;-1.750099897E0;-8.329999447E-2
2.235804531E1;-1.936899900E0;-1.843699932E0;1.473199964E0
2.237789688E1;-2.027699947E0;-1.200099945E0;1.762599945E0
2.239775000E1;-2.338000059E0;4.592999816E-1;1.791999936E0
2.241760313E1;-2.023999929E0;2.086799860E0;1.967199922E0
2.243745469E1;-1.687600017E0;3.400199890E0;2.116400003E0
2.245730781E1;-1.364099979E0;4.298199654E0;2.205499887E0
2.247716094E1;-7.989000082E-1;4.172800064E0;1.951799989E0
2.249703125E1;-5.353999734E-1;3.426299810E0;1.595899940E0
2.251686562E1;-1.326999962E-1;3.314399958E0;8.244000077E-1
2.253672031E1;1.412400007E0;4.220200062E0;-1.825399995E0
2.255657188E1;2.021899939E0;4.366699696E0;-1.314199924E0
2.257642344E1;1.361699939E0;3.088799953E0;4.057999849E-1
2.259627656E1;6.961999536E-1;1.723199964E0;9.424999952E-1
2.261612969E1;1.231199980E0;1.027099967E0;1.905999929E-1
2.263598125E1;2.422999859E0;4.608999789E-1;-6.931999922E-1
2.265583438E1;2.004699945E0;-7.350999713E-1;-1.375000030E-1
2.267568750E1;1.278900027E0;-1.410599947E0;6.620999575E-1
2.269554063E1;4.535000026E-1;-1.232100010E0;9.662999511E-1
2.271539219E1;-9.957000017E-1;-2.890999913E-1;-3.486999869E-1
2.273524531E1;-2.284299850E0;7.773999572E-1;-4.636999965E-1
2.275509844E1;-3.427199841E0;1.212599993E0;1.505399942E0
2.277495000E1;-4.181900024E0;1.354599953E0;4.094900131E0
2.279480312E1;-3.462100029E0;1.057600021E0;4.039599895E0
2.281465625E1;-3.412899971E0;-6.421999931E-1;3.030200005E0
2.283450938E1;-2.647699833E0;-1.730399966E0;1.023100019E0
2.285436094E1;-7.042999864E-1;-1.744499922E0;-2.243000031E0
2.287421406E1;1.629199982E0;-1.653199911E0;-3.507999897E0
2.289406563E1;1.385299921E0;-2.732199907E0;-7.696999907E-1
2.291391875E1;2.685000002E-1;-1.259599924E0;1.204499960E0
2.293377188E1;7.069999576E-1;2.825799942E0;-8.517000079E-1
2.295362500E1;-1.492999941E-1;4.585099697E0;-1.778399944E0
2.297347656E1;-2.271600008E0;2.497200012E0;1.389299989E0
2.299334844E1;-2.136800051E0;-7.703999877E-1;2.877199888E0
2.301318281E1;-5.030999780E-1;-2.942600012E0;1.761699915E0
2.303303438E1;7.621999979E-1;-1.936599970E0;2.403999865E-1
2.305288750E1;6.588000059E-1;-2.656599998E0;1.528999954E-1
2.307274062E1;1.877499938E0;-1.285699964E0;4.933999777E-1
2.309259375E1;3.679899931E0;7.684999704E-1;3.811999857E-1
2.311244531E1;2.619099855E0;1.355700016E0;1.652499914E0
2.313229844E1;4.713999927E-1;3.264599800E0;2.748899937E0
2.315215156E1;3.698999882E-1;4.057699680E0;1.717099905E0
2.317200312E1;2.974299908E0;2.481600046E0;8.373000026E-1
2.319185625E1;2.599400043E0;2.133800030E0;-1.223199964E0
2.321170938E1;3.999999762E-1;2.790699959E0;-4.921499729E0
2.323156250E1;5.019999743E-1;3.081300020E0;-3.918200016E0
2.325141406E1;1.272699952E0;3.375399828E0;-1.456499934E0
2.327126719E1;2.011600018E0;2.798099995E0;2.780999899E0
2.329112031E1;5.595599651E0;1.754299998E0;6.375799656E0
2.331097188E1;9.418899536E0;1.182999983E-1;7.242199898E0
2.333082500E1;8.956999779E0;-2.904099941E0;5.298799992E0
2.335067812E1;2.122999907E0;-2.359499931E0;2.561100006E0
2.337052969E1;1.593099952E0;-3.118999898E-1;3.560999930E-1
2.339038281E1;5.949999690E-1;-2.201999903E0;-2.061399937E0
2.341023594E1;-1.323699951E0;-3.414299965E0;-2.513299942E0
2.343008750E1;-2.400899887E0;-3.009599924E0;-1.222899914E0
2.344994062E1;-1.872799993E0;-2.957299948E0;2.010200024E0
2.346979375E1;-5.101999640E-1;-1.898699999E0;7.930099964E0
2.348964531E1;-1.998199940E0;-4.712999761E-1;3.616299868E0
2.350949844E1;-1.136299968E0;1.924999952E-1;5.986099720E0
2.352935156E1;6.263999939E-1;9.192000031E-1;5.944399834E0
2.354920313E1;2.947700024E0;1.485999942E0;4.264999866E0
2.356905625E1;3.618799925E0;-4.399999976E-2;5.159499645E0
2.358890781E1;2.783099890E0;-1.963999987E0;3.419499874E0
2.360876094E1;2.518800020E0;-4.265299797E0;1.744199991E0
2.362861406E1;3.590199947E0;-6.803400040E0;5.546000004E-1
2.364846719E1;2.122099876E0;-6.289999962E0;-1.740000024E-2
2.366832031E1;1.590899944E0;-4.745599747E0;1.177999973E0
2.368817188E1;1.636299968E0;-6.204799652E0;-5.756999850E-1
2.370802500E1;-3.242999911E-1;-4.942299843E0;-2.937099934E0
2.372787656E1;5.891000032E-1;6.915999651E-1;-2.806599855E0
2.374772969E1;-3.174499989E0;3.671399832E0;-3.501899958E0
2.376758281E1;-2.024699926E0;3.285699844E0;-5.737699986E0
2.378744219E1;1.888499975E0;2.229099989E0;-6.624499798E0
2.380728750E1;4.240999818E-1;1.353899956E0;-1.599699974E0
2.382714063E1;-5.202499866E0;1.047799945E0;1.192600012E0
2.384699375E1;-9.307700157E0;-4.605999887E-1;3.824999928E-1
2.386684531E1;-8.572299957E0;-5.927000046E-1;2.009099960E0
2.388669844E1;-3.859899998E0;1.656299949E0;6.213299751E0
2.390655156E1;-1.638000011E-1;3.172499895E0;6.441699982E0
2.392640469E1;2.781299829E0;4.602600098E0;1.230999947E0
2.394625625E1;3.195299864E0;3.577299833E0;3.456099987E0
2.396610938E1;-5.755999684E-1;3.561999798E-1;4.819799900E0
2.398596250E1;-1.095899940E0;1.594799995E0;-3.838000000E-1
2.400581406E1;-1.665799975E0;2.710700035E0;-6.424799919E0
2.402566719E1;-4.857299805E0;1.330299973E0;-1.152919960E1
2.404552031E1;-6.121500015E0;-2.229999937E-2;-8.860799789E0
2.406537344E1;-4.625899792E0;-2.388299942E0;-2.846099854E0
2.408522500E1;-5.589200020E0;-4.622499943E0;-2.459999919E-2
2.410507813E1;-3.114300013E0;-3.940299988E0;1.616999984E0
2.412492969E1;-3.355599880E0;-2.286799908E0;-8.499999642E-1
2.414478281E1;-1.127300024E0;1.295599937E0;-2.186199903E0
2.416463594E1;2.811499834E0;2.286000013E0;3.194999993E-1
2.418448750E1;4.809999943E0;-8.991000056E-1;1.594699979E0
2.420434062E1;5.758599758E0;-4.304199696E0;1.255699992E0
2.422419375E1;6.974699974E0;-3.136699915E0;8.251999617E-1
2.424404688E1;3.268499851E0;5.327999592E-1;1.299999934E-2
2.426389844E1;-7.986999750E-1;7.849999666E-1;-2.704499960E0
2.428375156E1;-2.285399914E0;-2.122999877E-1;-4.293799877E0
2.430360469E1;-4.813899994E0;-1.622900009E0;-4.244299889E0
2.432345781E1;-6.485399723E0;-1.533499956E0;-2.779700041E0
2.434330938E1;-6.377599716E0;-3.746999800E-1;5.052999854E-1
2.436316250E1;-2.605099916E0;2.633999884E-1;3.783099890E0
2.438301406E1;2.548300028E0;1.187899947E0;2.090699911E0
2.440286719E1;4.262099743E0;1.303099990E0;2.305799961E0
2.442272031E1;6.780000031E-2;9.352999926E-1;1.273800015E0
2.444257188E1;-3.378099918E0;7.684999704E-1;3.319999874E-1
2.446242500E1;-4.707699776E0;1.092899919E0;-1.238999963E0
2.448227812E1;-3.642899990E0;1.525999904E0;-7.356999516E-1
2.450213281E1;-4.018899918E0;3.675999939E-1;-1.115599990E0
2.452198438E1;-3.437099934E0;-1.319999993E-2;-6.671999693E-1
2.454183594E1;-2.265499830E0;-6.999999750E-4;3.461000025E-1
2.456168906E1;-1.588999987E0;-2.398999929E-1;1.280300021E0
2.458154219E1;-1.660799980E0;-1.321000010E-1;1.534699917E0
2.460139375E1;-1.793399930E0;-4.192999899E-1;9.952999949E-1
2.462124688E1;-1.617599964E0;-1.155999973E-1;2.131000012E-1
2.464110000E1;-9.894999862E-1;1.160499930E0;-9.119999409E-2
2.466095156E1;2.099999934E-1;1.984399915E0;5.480000004E-2
2.468080469E1;1.745999902E-1;1.658399940E0;2.212999910E-1
2.470065781E1;1.011999995E-1;1.417799950E0;-6.789999604E-1
2.472050938E1;5.769999623E-1;1.865700006E0;-1.469399929E0
2.474036250E1;1.116599917E0;1.524799943E0;-2.349799871E0
2.476021562E1;3.090799809E0;-2.150999904E-1;-1.638299942E0
2.478006719E1;5.865200043E0;-1.322799921E0;1.352399945E0
2.479992031E1;3.898699999E0;-3.952299833E0;3.213999987E0
2.481977344E1;1.095199943E0;-5.852799892E0;6.677599907E0
2.483962656E1;-1.675499916E0;-4.998099804E0;6.742699623E0
2.485947813E1;-3.851999998E0;-6.352299690E0;-8.088999987E-1
2.487932969E1;-5.491299629E0;-6.242399693E0;-2.724790001E1
2.489918281E1;-4.626999795E-1;-3.711799860E0;-1.932999969E0
2.491903594E1;-8.799999952E-2;-1.404799938E0;3.586399794E0
2.493888906E1;6.657999754E-1;-1.246199965E0;3.010200024E0
2.495874062E1;2.822700024E0;-1.162199974E0;3.299999833E-1
2.497859531E1;3.950500011E0;1.053999960E-1;-1.137699962E0
2.499844688E1;4.158999920E0;2.451400042E0;-1.335999966E0
2.501829844E1;3.306299925E0;3.521299839E0;-7.548999786E-1
2.503815156E1;3.895499945E0;3.957599878E0;9.598999619E-1
2.505800469E1;5.206099987E0;3.171299934E0;2.122699976E0
2.507785625E1;5.802499771E0;2.247200012E0;4.566299915E0
2.509771094E1;4.871599674E0;2.132400036E0;6.585399628E0
2.511756250E1;2.220599890E0;5.706999898E-1;4.173099995E0
2.513741406E1;4.950999916E-1;-5.052999854E-1;9.391999841E-1
2.515726875E1;-9.031999707E-1;-8.580999970E-1;-6.599000096E-1
2.517712031E1;-2.294600010E0;-7.544999719E-1;-9.905999899E-1
2.519697344E1;-5.015399933E0;-1.703199983E0;-2.497699976E0
2.521682656E1;-5.337500095E0;-1.104200006E0;-1.095520020E1
2.523667812E1;-2.440500021E0;5.748000145E-1;-1.600199938E0
2.525653125E1;-8.910999894E-1;1.060099959E0;1.065799952E0
2.527638281E1;-4.144999981E-1;-2.732000053E-1;6.530999541E-1
2.529623594E1;1.105700016E0;-6.226999760E-1;-1.270900011E0
2.531608906E1;1.607899904E0;6.999999750E-3;-3.118399858E0
2.533594219E1;5.430999994E-1;5.651999712E-1;-3.214599848E0
2.535579375E1;-2.912999988E-1;7.082999945E-1;-1.584800005E0
2.537564688E1;1.872999966E-1;2.868999839E-1;-6.768000126E-1
2.539550000E1;7.094999552E-1;-5.313999653E-1;-5.139999837E-2
2.541535156E1;6.128000021E-1;-4.644999802E-1;9.777999520E-1
2.543520469E1;5.995999575E-1;9.849999547E-1;1.009500027E0
2.545505781E1;5.479999781E-1;1.173900008E0;3.366000056E-1
2.547490938E1;4.804999828E-1;2.902999818E-1;-9.679999948E-2
2.549476250E1;7.951999903E-1;-9.073999524E-1;-7.159999758E-2
2.551461562E1;1.152799964E0;-1.837000012E0;6.129999831E-2
2.553446875E1;1.047299981E0;-1.638499975E0;1.526999921E-1
2.555432031E1;6.452999711E-1;-1.130499959E0;3.849999979E-2
2.557417344E1;-2.696999907E-1;-3.060999811E-1;-1.823999882E-1
2.559402656E1;-1.252200007E0;4.709999859E-1;-8.496999741E-1
2.561387813E1;-3.441999853E-1;-4.309999943E-1;-9.493000031E0
2.563373125E1;-6.523000002E-1;-1.054600000E0;-6.124700069E0
2.565358438E1;-2.809000015E0;3.905999959E-1;3.664599895E0
2.567343594E1;-3.394699812E0;1.629400015E0;5.193899632E0
2.569328906E1;-2.605200052E0;3.695699930E0;3.492100000E0
2.571314219E1;-2.062599897E0;3.154099941E0;3.041999817E0
2.573299531E1;-1.213899970E0;-2.802000046E-1;3.573199987E0
2.575284688E1;-1.349999942E-2;-2.459800005E0;2.966699839E0
2.577270000E1;2.311699867E0;-3.099699974E0;1.067600012E0
2.579255312E1;5.652999878E0;-1.827099919E0;-2.872999907E0
2.581240469E1;5.082599640E0;-8.409000039E-1;-6.954799652E0
2.583225781E1;2.447199821E0;-7.497999668E-1;-8.165999413E0
2.585211094E1;4.936999977E-1;-4.305999875E-1;-4.003699780E0
2.587196250E1;1.563999951E-1;8.161999583E-1;-2.345999926E-1
2.589181563E1;-8.299999833E-1;1.243099928E0;4.745999873E-1
2.591166875E1;-2.096299887E0;1.528299928E0;4.212999940E-1
2.593152188E1;-9.433999658E-1;1.166399956E0;-1.388599992E0
2.595137344E1;-1.375999928E0;-3.953000009E-1;-2.839499950E0
2.597122656E1;-2.246599913E0;-7.849000096E-1;-3.463500023E0
2.599107969E1;-2.762500048E0;-5.753999949E-1;-2.833699942E0
2.601093125E1;-1.847199917E0;7.166999578E-1;-7.644000053E-1
2.603078438E1;-4.406999946E-1;1.679799914E0;3.199999779E-2
2.605063594E1;-1.105000004E-1;2.242300034E0;8.083999753E-1
2.607049062E1;1.131299973E0;2.970599890E0;8.139999956E-2
2.609034219E1;2.280599833E0;3.540899992E0;7.001000047E-1
2.611019531E1;5.399999619E-1;3.319599867E0;-1.464900017E0
2.613004844E1;-9.937999845E-1;2.418400049E0;-4.120500088E0
2.614990000E1;-7.699999809E-1;1.139299989E0;2.300000004E-2
2.616975156E1;-3.775999844E-1;4.723999798E-1;2.677099943E0
2.618960469E1;-5.913000107E-1;6.850000024E-1;1.813899994E0
2.620945781E1;-7.509999722E-2;1.274599910E0;-8.527999520E-1
2.622930938E1;6.924999952E-1;1.541099906E0;-1.957199931E0
2.624916250E1;9.704999924E-1;1.633700013E0;-2.378000021E0
2.626901562E1;2.734999955E-1;1.672500014E0;-3.003299952E0
2.628886719E1;-1.837299943E0;5.252999663E-1;-3.957299948E0
2.630872031E1;-4.656899929E0;-1.923499942E0;-8.042300224E0
2.632857344E1;-1.952099919E0;-4.752399921E0;-9.100299835E0
2.634842656E1;4.251699924E0;-8.682099342E0;-1.236999989E1
2.636827813E1;5.221899986E0;-9.542499542E0;-1.490099907E0
2.638813125E1;1.824199915E0;2.654799938E0;2.077890015E1
2.640798438E1;-4.921799660E0;1.207399940E1;-4.129600048E0
2.642783750E1;7.754099846E0;1.100739956E1;1.377499938E0
2.644768906E1;2.254699945E0;-4.238500118E0;3.381699800E0
2.646754375E1;-3.033699989E0;-1.176469994E1;4.149899960E0
2.648739531E1;-7.687000036E-1;-4.883999825E0;6.302299976E0
2.650724844E1;2.300000004E-2;2.549999952E-2;1.582799911E0
2.652710156E1;-1.404999942E-1;-4.307999909E-1;4.915599823E0
2.654695312E1;2.554299831E0;-8.776999712E-1;4.008599758E0
2.656680625E1;3.261999846E0;-1.151399970E0;3.200199842E0
2.658665781E1;3.245199919E0;-1.398800015E0;3.279999971E0
2.660651094E1;2.623999834E0;-8.375999928E-1;3.273399830E0
2.662636250E1;1.939099908E0;-2.988999784E-1;2.849099874E0
2.664621562E1;9.411999583E-1;-1.366000026E-1;2.068799973E0
2.666606875E1;-1.049199939E0;-7.518000007E-1;1.351599932E0
2.668592188E1;-1.040300012E0;-4.783999920E-1;2.646800041E0
2.670577344E1;-9.337999821E-1;1.627999991E-1;3.018800020E0
2.672562656E1;-2.025899887E0;3.894999921E-1;1.480799913E0
2.674547969E1;-1.483799934E0;1.290599942E0;-6.962999701E-1
2.676533125E1;-1.754999906E-1;1.116400003E0;-1.173099995E0
2.678518438E1;6.074000001E-1;4.205999970E-1;-3.596999943E-1
2.680503750E1;8.463000059E-1;-2.249999903E-2;-6.060000062E-1
2.682489063E1;1.481999904E-1;-2.474999875E-1;-1.646899939E0
2.684474219E1;-8.980000019E-1;2.549999952E-2;-2.578199863E0
2.686459531E1;-8.062999845E-1;2.063999921E-1;-1.843699932E0
2.688444844E1;-5.554000139E-1;3.034999967E-1;-9.889999628E-1
2.690430000E1;-3.291999996E-1;2.373999953E-1;-2.513299942E0
2.692415312E1;7.063999772E-1;-5.242999792E-1;3.246999979E-1
2.694400625E1;4.211999774E-1;-8.519999981E-1;1.939599991E0
2.696386562E1;4.111999869E-1;1.794999987E-1;2.128299952E0
2.698371094E1;6.773999929E-1;1.145699978E0;2.747099876E0
2.700356406E1;9.452999830E-1;1.470899940E0;3.233199835E0
2.702341719E1;1.710299969E0;9.963999987E-1;2.981799841E0
2.704326875E1;1.580500007E0;5.056999922E-1;2.144799948E0
2.706312188E1;1.539099932E0;7.378999591E-1;2.988999784E-1
2.708297500E1;2.682399988E0;6.484000087E-1;-2.109599829E0
2.710282656E1;3.353999853E0;2.272000015E-1;-3.125099897E0
2.712267969E1;3.079399824E0;6.502999663E-1;-1.707999945E0
2.714253281E1;2.343999863E0;8.937999606E-1;2.980999947E-1
2.716238438E1;1.848799944E0;3.400000036E-1;-3.399999812E-3
2.718223750E1;6.663999557E-1;-1.695999950E-1;-8.966999650E-1
2.720209062E1;2.363999933E-1;5.709999800E-2;-7.403999567E-1
2.722194375E1;2.407999933E-1;3.660999835E-1;-4.089999795E-1
2.724179531E1;5.137999654E-1;2.063999921E-1;-6.028999686E-1
2.726164844E1;6.816999912E-1;4.194999933E-1;-9.995999932E-1
2.728150156E1;9.074999690E-1;6.430000067E-1;-1.004599929E0
2.730135313E1;1.103600025E0;3.261999786E-1;-1.067999959E0
2.732120625E1;1.346199989E0;-1.281999946E-1;-1.081099987E0
2.734105938E1;1.207000017E0;-2.577999830E-1;-1.006299973E0
2.736091094E1;1.307500005E0;-4.837999940E-1;-1.129099965E0
2.738076406E1;6.588000059E-1;-4.345999956E-1;-6.662999988E-1
2.740061562E1;1.052999943E-1;1.361999959E-1;-4.316999912E-1
2.742047031E1;2.816999853E-1;9.239999652E-1;-1.356699944E0
2.744032188E1;1.709599972E0;1.759400010E0;-1.802299976E0
2.746017500E1;2.580699921E0;2.547600031E0;-4.351999760E-1
2.748002812E1;2.067399979E0;1.825799942E0;2.064800024E0
2.749987969E1;1.600299954E0;9.420999885E-1;3.168599844E0
2.751973281E1;2.085999966E0;9.972999692E-1;3.442999840E0
2.753958438E1;2.574499846E0;1.500999928E0;3.012899876E0
2.755943750E1;2.633999825E0;8.132999539E-1;2.318199873E0
2.757929063E1;1.878299952E0;-4.885999858E-1;1.574699998E0
2.759914375E1;6.961999536E-1;-6.797999740E-1;-9.510999918E-1
2.761899531E1;6.951000094E-1;-1.329999976E-2;-3.545999825E-1
2.763884844E1;9.919999838E-1;3.554999828E-1;4.679999948E-1
2.765870000E1;2.228600025E0;8.804999590E-1;2.485199928E0
2.767855312E1;3.320899963E0;7.567999959E-1;4.619199753E0
2.769840625E1;3.469399929E0;-4.869999737E-2;5.014599800E0
2.771825938E1;3.603199959E0;-1.085999966E0;3.792500019E0
2.773811094E1;2.638999939E0;-2.273999929E0;2.322999984E-1
2.775796406E1;2.655499935E0;-4.461699963E0;-1.057600021E0
2.777781563E1;2.761699915E0;-8.418000221E0;-2.524399996E0
2.779766875E1;1.979999900E0;-7.579399586E0;-1.522699952E0
2.781752188E1;1.909099936E0;-4.320199966E0;2.965899944E0
2.783737500E1;4.597999752E-1;7.633999586E-1;7.621999979E-1
2.785722656E1;-4.878999889E-1;3.712199926E0;-2.148000002E0
2.787707969E1;-3.129999936E-1;3.217999935E0;-5.364999771E-1
2.789693281E1;1.463899970E0;3.057099819E0;-2.276999950E-1
2.791678438E1;1.947199941E0;3.355700016E0;1.025900006E0
2.793663750E1;3.333299875E0;2.125699997E0;-6.424999833E-1
2.795649062E1;5.460199833E0;5.146999955E-1;-4.016099930E0
2.797634375E1;4.915199757E0;3.506999910E-1;-5.029699802E0
2.799619531E1;2.464599848E0;8.150000125E-2;-5.261799812E0
2.801604844E1;-7.972999811E-1;-1.765899897E0;-4.019999802E-1
2.803590000E1;-1.962999940E0;-3.671499968E0;5.087999821E0
2.805575313E1;-2.233000040E0;-3.888099909E0;4.898600101E0
2.807560625E1;-3.519199848E0;-3.955299854E0;3.176399946E0
2.809545938E1;-2.948099852E0;-1.134400010E0;-4.784999788E-1
2.811531094E1;-4.236499786E0;1.054299951E0;-1.975999951E0
2.813516406E1;-5.714699745E0;3.025999963E-1;-1.938499928E0
2.815501719E1;-5.493599892E0;-1.138299942E0;-2.010599852E0
2.817487031E1;-4.421299934E0;1.614999920E-1;-1.932699919E0
2.819472188E1;-3.545899868E0;3.606799841E0;-1.993899941E0
2.821457500E1;-3.965699911E0;6.102099895E0;-5.320399761E0
2.823442812E1;-1.357299924E0;5.757400036E0;-1.430249977E1
2.825427969E1;-2.177399874E0;5.425999641E0;4.470499992E0
2.827413281E1;-2.980099916E0;4.640999794E0;3.621799946E0
2.829398594E1;-1.122399926E0;8.986999989E-1;5.606999993E-1
2.831383750E1;6.110000014E-1;-3.993499994E0;-2.070800066E0
2.833369063E1;3.144299984E0;-6.557199955E0;-8.540900230E0
2.835354375E1;3.572599888E0;-1.185099959E0;-5.903699875E0
2.837339531E1;5.886999965E-1;-8.680999875E-1;-8.309999704E-1
2.839324844E1;1.377599955E0;-6.872000098E-1;-1.816499949E0
2.841310156E1;3.344499826E0;-5.331999660E-1;-1.211599946E0
2.843295469E1;3.734999895E0;-2.020299911E0;1.549999975E-2
2.845280625E1;1.099399924E0;-2.366699934E0;-7.688999772E-1
2.847265938E1;3.396099806E0;4.028999805E-1;-6.567299843E0
2.849251250E1;2.556599855E0;9.629999995E-1;-2.795199871E0
2.851236406E1;1.733999968E0;1.398100019E0;5.692999959E-1
2.853221719E1;2.527099848E0;9.937999845E-1;1.960899949E0
2.855207031E1;2.253000021E0;-2.585700035E0;-3.719999790E-1
2.857192188E1;2.225399971E0;-3.926299810E0;-2.937399864E0
2.859177500E1;1.262699962E0;-1.858999968E0;-1.077000022E0
2.861162813E1;1.283699989E0;2.365999967E-1;8.585999608E-1
2.863147969E1;3.222800016E0;1.956900001E0;4.038999975E-1
2.865133281E1;4.726599693E0;2.435299873E0;-8.500999808E-1
2.867118438E1;3.111299992E0;1.091199994E0;-4.245999753E-1
2.869103750E1;7.677999735E-1;-1.059100032E0;-1.437000036E-1
2.871089219E1;2.951999903E-1;-1.623799920E0;9.609999508E-2
2.873074375E1;1.854699969E0;-6.324999928E-1;2.530599833E0
2.875059531E1;2.244199991E0;-2.285999954E-1;7.653399944E0
2.877045000E1;7.392999530E-1;-9.580000043E-1;1.168519974E1
2.879030156E1;-1.519699931E0;-1.448699951E0;6.496500015E0
2.881015313E1;-5.285599709E0;-3.142299891E0;-3.779099941E0
2.883000781E1;-8.292599678E0;-6.085000038E0;-4.983299732E0
2.884985938E1;-6.817899704E0;-4.991399765E0;5.655999780E-1
2.886971250E1;-4.554299831E0;-9.095999599E-1;2.468899965E0
2.888956406E1;-3.113999844E0;1.736899972E0;-5.275999904E-1
2.890941719E1;-2.123699903E0;4.500999749E-1;-2.119600058E0
2.892926875E1;-5.740000010E-1;-8.410000056E-2;-1.745299935E0
2.894912188E1;1.360199928E0;7.766999602E-1;-1.407799959E0
2.896897500E1;4.041500092E0;2.932299852E0;-3.594000041E-1
2.898882812E1;5.467099667E0;4.357500076E0;2.067299843E0
2.900867969E1;5.577199936E0;4.548399925E0;3.135399818E0
2.902855000E1;3.522300005E0;3.438199997E0;2.011100054E0
2.904838594E1;4.465899944E0;3.122299910E0;-2.177000046E0
2.906823750E1;2.791299820E0;1.971899986E0;-3.377799988E0
2.908809063E1;1.172999963E-1;-2.318999916E-1;-5.321899891E0
2.910794375E1;-1.084299922E0;-5.008000135E-1;-7.016599655E0
2.912779688E1;-2.424299955E0;-2.724999785E-1;-3.544999838E0
2.914765000E1;-2.420599937E0;-3.937999904E-1;-1.730899930E0
2.916750156E1;-1.384499907E0;-5.759999901E-2;-7.270999551E-1
2.918735469E1;-9.000999928E-1;4.592999816E-1;-3.865000010E-1
2.920720625E1;-9.016000032E-1;1.888999939E-1;-7.985000014E-1
2.922705938E1;-4.949999973E-2;3.509999812E-1;-1.404599905E0
2.924691250E1;1.178599954E0;6.255999804E-1;-2.326799870E0
2.926676406E1;2.201999903E0;5.030999780E-1;-3.931599855E0
2.928661719E1;2.419899940E0;-1.222999990E-1;-4.549200058E0
2.930647031E1;1.893399954E0;-5.909999833E-2;-4.175499916E0
2.932632344E1;1.347899914E0;2.945999801E-1;-2.267400026E0
2.934617500E1;1.218699932E0;4.971999824E-1;-9.437999725E-1
2.936602813E1;1.651600003E0;3.507999778E-1;-1.652899981E0
2.938588125E1;2.343400002E0;5.259999633E-1;-2.575500011E0
2.940573281E1;2.786499977E0;5.000000000E-1;-3.096400023E0
2.942558594E1;2.903199911E0;6.473999619E-1;-2.454299927E0
2.944543906E1;2.723999977E0;9.210999608E-1;-1.115700006E0
2.946529219E1;2.682399988E0;8.999999762E-1;1.072999984E-1
2.948514375E1;2.460199833E0;1.457999945E0;3.304999769E-1
2.950499688E1;1.487399936E0;2.575199842E0;-6.983000040E-1
2.952484844E1;6.556999683E-1;2.643800020E0;-1.602800012E0
2.954470156E1;4.778999984E-1;2.539399862E0;-3.146499872E0
2.956455469E1;2.999999821E-1;2.594300032E0;-4.681299686E0
2.958440781E1;5.260999799E-1;2.050099850E0;-2.223500013E0
2.960425938E1;1.423900008E0;9.945999980E-1;8.254999518E-1
2.962411250E1;1.069899917E0;1.709999889E-1;1.572299957E0
2.964396563E1;1.390100002E0;-1.518899918E0;1.620299935E0
2.966381719E1;2.547299862E0;-5.327799797E0;1.316599965E0
2.968367031E1;2.694900036E0;-2.649399996E0;1.340799928E0
2.970352344E1;-1.210999966E0;2.246099949E0;5.329999924E-1
2.972337500E1;-2.339200020E0;1.818199992E0;-1.350000024E0
2.974322812E1;-2.854799986E0;9.459999949E-2;9.541999698E-1
2.976308125E1;-1.077399969E0;-3.768999875E-1;1.207799911E0
2.978293438E1;-2.034999877E-1;-4.594999850E-1;1.009799957E0
2.980278750E1;3.980000019E-1;9.013999701E-1;7.598999739E-1
2.982263906E1;2.135299921E0;2.481899977E0;-2.819999866E-2
2.984249219E1;3.383999825E0;2.519000053E0;-6.455000043E-1
2.986234375E1;2.151599884E0;8.233999610E-1;-8.509999514E-2
2.988219688E1;2.485999823E0;2.076999992E-1;-7.565999627E-1
2.990204844E1;2.791599989E0;8.417999744E-1;-1.674099922E0
2.992190156E1;1.374099970E0;9.049999714E-1;-1.212700009E0
2.994175312E1;1.262099981E0;-5.733999610E-1;-8.215000033E-1
2.996160625E1;9.957999587E-1;-2.116099834E0;-1.411999911E-1
2.998145938E1;6.058999896E-1;-2.151000023E0;4.260999858E-1
3.000131250E1;-4.194999933E-1;-8.987999558E-1;-4.389999807E-2
3.002116406E1;-2.327399969E0;1.392000020E-1;-1.983899951E0
3.004101719E1;-2.131399870E0;-2.302500010E0;-2.010099888E0
3.006087031E1;7.930000126E-2;-4.250400066E0;7.469999790E-1
3.008072188E1;2.034999847E0;-2.142600060E0;8.249999881E-1
3.010057500E1;6.341199875E0;-6.886999607E-1;2.653999925E-1
3.012042812E1;1.194899940E1;1.228999943E-1;-2.369999886E-1
3.014028125E1;1.519899940E1;2.425799847E0;-9.259999543E-2
3.016013281E1;8.735099792E0;4.766699791E0;-1.720299959E0
3.017998594E1;4.265699863E0;3.412499905E0;-3.078899860E0
3.019983906E1;3.563099861E0;9.801999927E-1;-3.793399811E0
3.021969063E1;2.619699955E0;-2.736999989E0;-5.269999981E0
3.023954375E1;2.677899837E0;-7.205099583E0;-6.241399765E0
3.025939688E1;-8.113999963E-1;-6.082900047E0;-4.129899979E0
3.027924844E1;-3.677599907E0;-3.704299927E0;-3.067999840E0
3.029910313E1;-5.105799675E0;-3.463500023E0;-2.356199980E0
3.031895469E1;-5.813399792E0;-5.047899723E0;4.083999991E-1
3.033880781E1;-7.605799675E0;-7.426300049E0;2.789399862E0
3.035865938E1;-1.004150009E1;-6.691799641E0;2.199899912E0
3.037851250E1;-1.078749943E1;-2.741199970E0;4.389999807E-2
3.039836562E1;-8.302499771E0;1.630199909E0;2.606499910E0
3.041821875E1;-5.245299816E0;4.270699978E0;4.823599815E0
3.043807031E1;-2.950099945E0;5.750499725E0;5.318199635E0
3.045792344E1;-1.805299997E0;7.450799942E0;4.478499889E0
3.047777656E1;-1.054999948E0;9.051699638E0;3.637199879E0
3.049762813E1;-3.209999949E-2;1.059299946E1;3.914899826E0
3.051748125E1;1.595299959E0;1.171599960E1;4.965699673E0
3.053733281E1;2.627699852E0;1.223639965E1;3.436699867E0
3.055718594E1;3.056499958E0;1.137779999E1;1.151899934E0
3.057703906E1;2.243399858E0;7.684599876E0;1.670199990E0
3.059690156E1;2.189100027E0;3.410699844E0;3.276999950E0
3.061674375E1;3.378999829E-1;-1.090789986E1;5.254999995E-1
3.063659688E1;6.162099838E0;-1.932009888E1;5.037999749E-1
3.065645000E1;1.024819946E1;-6.526700020E0;-1.341289997E1
3.067630156E1;3.902199984E0;-1.039299965E0;-6.715099812E0
3.069615469E1;3.742599964E0;1.556100011E0;-1.736099958E0
3.071600781E1;5.327199936E0;2.918200016E0;-1.518700004E0
3.073586094E1;4.524399757E0;-1.801499963E0;-3.930599928E0
3.075571250E1;4.199699879E0;-7.202699661E0;-1.371500015E0
3.077556563E1;3.571399927E0;-8.500100136E0;-2.662999928E-1
3.079541875E1;3.567600012E0;-4.040400028E0;-4.231999815E-1
3.081527188E1;3.758499861E0;-1.892899990E0;-2.909999900E-2
3.083512344E1;4.169799805E0;-2.128900051E0;-1.099099994E0
3.085497656E1;4.666500092E0;-1.073300004E0;-1.889099956E0
3.087482969E1;4.660500050E0;6.252999902E-1;-9.450999498E-1
3.089468125E1;4.468400002E0;1.252099991E0;-1.313599944E0
3.091453438E1;3.888899803E0;6.719999760E-2;-2.115399837E0
3.093439375E1;2.245199919E0;2.856999934E-1;-1.838999987E0
3.095423906E1;9.366999865E-1;1.113099933E0;-1.031499982E0
3.097409219E1;-1.816999912E-1;1.622900009E0;4.369999841E-2
3.099394531E1;-1.571900010E0;6.186000109E-1;2.495399952E0
3.101379688E1;-2.865599871E0;-2.933999896E-1;4.966199875E0
3.103365000E1;-6.370299816E0;-1.819199920E0;1.984799981E0
3.105350313E1;-9.370399475E0;-2.473599911E0;-6.565799713E0
3.107335625E1;-5.631499767E0;-4.114999771E-1;-4.023999870E-1
3.109320781E1;-2.651299953E0;1.296999931E0;2.681200027E0
3.111306094E1;-2.428499937E0;1.102399945E0;1.333799958E0
3.113291406E1;-3.513299942E0;1.341999918E-1;6.787999868E-1
3.115276562E1;-4.027800083E0;-7.807999849E-1;3.502599955E0
3.117261875E1;-3.670499802E0;-4.296999872E-1;3.407299995E0
3.119247031E1;-3.384999990E0;-4.814999998E-1;1.494699955E0
3.121232344E1;-3.857800007E0;-1.689899921E0;5.404999852E-1
3.123217656E1;-4.619499683E0;-2.747999907E0;-3.739999980E-2
3.125202813E1;-4.198299885E0;-2.829999924E0;-3.457999825E-1
3.127188125E1;-3.387399912E0;-2.203399897E0;1.027500033E0
3.129173438E1;-2.536299944E0;-2.072200060E0;1.495700002E0
3.131158594E1;-1.611999989E0;-1.498899937E0;9.423999786E-1
3.133144063E1;-8.133999705E-1;-8.578999639E-1;4.500999749E-1
3.135129219E1;-4.648000002E-1;-2.542999983E-1;7.159999609E-1
3.137114375E1;-5.372999907E-1;2.166999876E-1;1.695400000E0
3.139099844E1;-2.606000006E-1;6.006999612E-1;1.523399949E0
3.141085000E1;5.105999708E-1;1.005399942E0;3.399999812E-3
3.143070156E1;1.379799962E0;1.993899941E0;1.191999987E-1
3.145055625E1;1.771099925E0;2.537600040E0;6.292999983E-1
3.147040781E1;1.574599981E0;2.454499960E0;1.344200015E0
3.149026094E1;1.252399921E0;2.766999960E0;1.623199940E0
3.151011250E1;1.256399989E0;3.151299953E0;1.257900000E0
3.152996563E1;1.967099905E0;3.108199835E0;3.208999932E-1
3.154981875E1;1.440199971E0;2.444000006E0;4.849999845E-1
3.156967031E1;1.287299991E0;2.186800003E0;2.316000015E-1
3.158952344E1;1.203799963E0;2.479399920E0;-7.434999943E-1
3.160937656E1;6.783999801E-1;2.625399828E0;-1.935199976E0
3.162922969E1;9.510000050E-2;2.092700005E0;-2.191400051E0
3.164908125E1;-1.331999898E-1;1.112100005E0;-1.133800030E0
3.166893438E1;-1.864999980E-1;5.022999644E-1;-4.131999910E-1
3.168878750E1;1.360599995E0;1.106500030E0;-8.172000051E-1
3.170863906E1;2.694099903E0;2.943199873E0;-7.382999659E-1
3.172849219E1;2.641499996E0;2.932099819E0;-1.501999944E-1
3.174834531E1;3.110199928E0;1.575699925E0;-1.441599965E0
3.176819688E1;3.205499887E0;5.249999762E-1;-3.500699997E0
3.178805000E1;1.062299967E0;1.434199929E0;-2.112099886E0
3.180790313E1;1.369999945E-1;1.404299974E0;-3.564899921E0
3.182775625E1;-7.719999552E-1;4.134999812E-1;-2.505399942E0
3.184760781E1;-4.084499836E0;-3.939999938E-1;-3.874699831E0
3.186746094E1;-4.657000065E0;9.557999969E-1;-3.565599918E0
3.188731406E1;-4.205199718E0;2.507200003E0;-5.279999971E-2
3.190716562E1;-4.485699654E0;2.358199835E0;1.114999950E-1
3.192701875E1;-4.066899776E0;1.466699958E0;-1.293599963E0
3.194687188E1;-6.782099724E0;-1.874699950E0;-1.498099995E1
3.196672344E1;-7.836299896E0;-7.389599800E0;-8.439299583E0
3.198657656E1;-7.530900002E0;-8.750599861E0;-7.461799622E0
3.200642969E1;1.401799917E0;5.980799675E0;1.224349976E1
3.202628438E1;1.124999970E-1;1.500019932E1;-5.006000042E0
3.204613438E1;1.396439934E1;8.406899452E0;8.995800018E0
3.206598750E1;3.081300020E0;-3.537099838E0;3.982899904E0
3.208584062E1;-1.516199946E0;-6.967599869E0;2.527000010E-1
3.210569219E1;2.401299953E0;-3.803299904E0;7.586299896E0
3.212554531E1;2.696899891E0;-2.894500017E0;5.758499622E0
3.214539844E1;9.167000055E-1;-2.034100056E0;2.791999817E0
3.216525000E1;5.065000057E-1;-5.845999718E-1;3.218699932E0
3.218510313E1;3.506999910E-1;-4.862999916E-1;3.500900030E0
3.220495625E1;1.226699948E0;-1.196499944E0;3.339200020E0
3.222480938E1;2.673699856E0;-3.036700010E0;-2.203999907E-1
3.224466094E1;3.393399954E0;-6.110300064E0;-2.029500008E0
3.226451406E1;6.408999920E0;-8.562799454E0;-4.115499973E0
3.228436719E1;8.208499908E0;-8.234099388E0;-4.092499733E0
3.230421875E1;6.735300064E0;-5.481199741E0;-2.032500029E0
3.232407188E1;4.594299793E0;-3.417099953E0;-5.069699764E0
3.234392500E1;1.336300015E0;-9.582999945E-1;-5.602200031E0
3.236377656E1;-1.035300016E0;6.771999598E-1;-5.181600094E0
3.238362969E1;-4.008199692E0;2.068399906E0;-3.010699987E0
3.240348281E1;-5.273499966E0;4.179699898E0;5.419799805E0
3.242333438E1;-1.616199970E0;8.205900192E0;8.895099640E0
3.244318750E1;-3.984999955E-1;9.941199303E0;7.822199821E0
3.246304063E1;4.314000010E-1;1.151909924E1;4.795899868E0
3.248289375E1;7.433999777E-1;1.253859997E1;1.092899919E0
3.250274531E1;8.364999890E-1;1.136409950E1;1.046299934E0
3.252259844E1;-3.263999820E-1;8.238999367E0;5.643899918E0
3.254245156E1;-4.230999947E-1;5.594399929E0;6.585299969E0
3.256230312E1;-1.787599921E0;-1.590099931E0;3.331599951E0
3.258215625E1;-2.249899864E0;-9.121099472E0;-4.908299923E0
3.260200938E1;1.322000027E-1;-1.340359974E1;-9.252599716E0
3.262186250E1;3.100600004E0;-7.513099670E0;-4.615200043E0
3.264171562E1;4.463200092E0;9.405999780E-1;-5.210700035E0
3.266156719E1;4.028100014E0;4.054999828E0;-4.064000130E0
3.268142031E1;2.819299936E0;1.945799947E0;-1.834999919E-1
3.270127188E1;2.337899923E0;-6.577999592E-1;-1.775900006E0
3.272112500E1;-3.841999769E-1;-2.417799950E0;-8.543399811E0
3.274097813E1;-2.270099878E0;-1.540399909E0;-6.154999733E0
3.276083125E1;-2.350899935E0;-3.874000013E-1;3.447399855E0
3.278068281E1;-9.185000062E-1;3.759999871E-1;2.533599854E0
3.280053594E1;8.847000003E-1;-6.419999897E-2;-2.485299826E0
3.282038906E1;6.978099823E0;-3.083299875E0;-3.746500015E0
3.284024062E1;1.138829994E1;-5.673599720E0;-2.777499914E0
3.286009219E1;8.982199669E0;-3.859099865E0;2.628599882E0
3.287994531E1;2.582499981E0;1.256899953E0;5.776499748E0
3.289979844E1;3.007999957E-1;2.504099846E0;4.827099800E0
3.291965000E1;2.108899832E0;1.939199924E0;4.990900040E0
3.293950312E1;1.681299925E0;-3.130999804E-1;6.239299774E0
3.295935781E1;3.300999999E-1;-3.309000015E0;5.099999905E0
3.297920938E1;-3.398999870E-1;-2.280099869E0;1.863199949E0
3.299906094E1;-7.566999793E-1;1.375000030E-1;-2.946300030E0
3.301891406E1;1.346300006E0;4.289000034E-1;-3.267699957E0
3.303876719E1;4.019099712E0;8.592999578E-1;-9.534999728E-1
3.305862031E1;5.628999710E0;6.144999862E-1;1.248700023E0
3.307847188E1;5.507099628E0;-3.980000019E-1;9.496999979E-1
3.309832500E1;3.705600023E0;-1.325399995E0;-1.250100017E0
3.311817812E1;1.971399903E0;-8.960999846E-1;-5.360000134E-1
3.313803125E1;1.616999954E-1;-3.208000064E-1;6.453999877E-1
3.315788281E1;-2.101999968E-1;1.995999962E-1;4.816999733E-1
3.317773594E1;1.415099978E0;6.029999852E-1;-1.024999991E-1
3.319758750E1;2.500299931E0;1.271999955E0;1.022999957E-1
3.321744062E1;3.318199873E0;8.420000076E-1;3.515999913E-1
3.323729375E1;3.084599972E0;-1.567000002E-1;1.656000018E-1
3.325714531E1;2.534199953E0;-5.848999619E-1;3.177999854E-1
3.327699844E1;1.239899993E0;-6.658999920E-1;8.420000076E-1
3.329685156E1;-5.162000060E-1;-2.660999894E-1;2.445999980E-1
3.331670313E1;-4.479999840E-2;9.332999587E-1;-2.192699909E0
3.333655625E1;2.661499977E0;1.174299955E0;-1.362499952E0
3.335640938E1;3.435799837E0;-3.909999877E-2;4.192999899E-1
3.337626250E1;3.247900009E0;1.455999911E-1;7.674999833E-1
3.339611406E1;2.963500023E0;6.157000065E-1;-1.156799912E0
3.341596719E1;1.611599922E0;2.032999992E-1;-9.393999577E-1
3.343582031E1;1.662999988E-1;-2.624000013E-1;2.044999897E-1
3.345567344E1;-9.729999900E-1;5.564000010E-1;-5.268999934E-1
3.347552500E1;5.379999802E-2;2.441999912E0;-1.831200004E0
3.349537812E1;1.122399926E0;2.417099953E0;-1.313899994E0
3.351522969E1;1.927799940E0;1.100399971E0;-9.789999574E-2
3.353508281E1;2.679999828E0;6.456999779E-1;1.061999947E-1
3.355493594E1;3.006799936E0;1.373600006E0;3.908999860E-1
3.357478906E1;2.443899870E0;2.521199942E0;1.264299989E0
3.359464063E1;1.475799918E0;3.148000002E0;1.152599931E0
3.361449375E1;8.391000032E-1;1.490899920E0;4.574999809E-1
3.363434688E1;6.560999751E-1;-1.180999994E0;-1.100999936E-1
3.365419844E1;7.724999785E-1;-6.254000068E-1;-2.536000013E-1
3.367405156E1;1.371399999E0;1.181299925E0;-1.496999979E0
3.369390469E1;1.471099973E0;3.282799959E0;-1.863599896E0
3.371375625E1;1.138399959E0;3.072000027E0;-2.672999799E-1
3.373360938E1;5.985999703E-1;-4.255999923E-1;-1.525000036E-1
3.375346094E1;1.248299956E0;-2.100699902E0;-3.540000021E-1
3.377331562E1;1.061900020E0;-6.687999964E-1;4.314000010E-1
3.379316719E1;2.307199955E0;1.866400003E0;-2.170999944E-1
3.381301875E1;3.491899967E0;2.272300005E0;-1.149199963E0
3.383287188E1;2.747699976E0;1.713999957E-1;2.107999921E-1
3.385272500E1;2.357699871E0;-2.302199841E0;1.189100027E0
3.387257813E1;2.580399990E0;-3.425599813E0;1.667699933E0
3.389242969E1;1.640799999E0;-2.277299881E0;2.112799883E0
3.391228281E1;5.314999819E-1;-1.200899959E0;2.127099991E0
3.393213594E1;-4.228999913E-1;-1.768599987E0;1.932999939E-1
3.395198750E1;-6.288999915E-1;-3.309099913E0;-1.703699946E0
3.397184062E1;1.756599903E0;-4.820399761E0;-2.765799999E0
3.399169375E1;3.913399935E0;-3.140499830E0;-1.988199949E0
3.401154531E1;5.187900066E0;-1.811699986E0;-3.992299795E0
3.403139844E1;3.622799873E0;-2.955699921E0;-3.387399912E0
3.405125156E1;2.606999874E0;-2.759899855E0;-3.157799959E0
3.407110312E1;1.745399952E0;-2.824899912E0;-3.442299843E0
3.409095781E1;2.385299921E0;-2.155400038E0;-2.630599976E0
3.411080938E1;2.205899954E0;-7.721999884E-1;-1.915599942E0
3.413066250E1;1.941699982E0;8.238999844E-1;-9.965999722E-1
3.415051406E1;1.839699984E0;1.535799980E0;-5.142999887E-1
3.417036719E1;1.093500018E0;1.259400010E0;-1.695999950E-1
3.419022031E1;5.213999748E-1;-2.680799961E0;4.894999862E-1
3.421007188E1;-5.989999771E-1;-6.390899658E0;1.377399921E0
3.422992500E1;-2.318500042E0;-7.733500004E0;2.194900036E0
3.424977812E1;-3.364699841E0;-7.391599655E0;7.398999929E-1
3.426963125E1;-3.763000011E0;-4.619599819E0;-2.808499813E0
3.428948438E1;-4.446300030E0;-1.641600013E0;-9.984999895E-1
3.430933750E1;-4.583099842E0;1.085999981E-1;3.368700027E0
3.432918906E1;-3.891199827E0;2.034699917E0;4.469199657E0
3.434904219E1;-2.422399998E0;4.027899742E0;3.768599987E0
3.436889375E1;-9.519999623E-1;5.804299831E0;2.604499817E0
3.438874688E1;1.232999936E-1;7.481799603E0;7.888000011E-1
3.440859844E1;-4.078999758E-1;8.814399719E0;6.768000126E-1
3.442845156E1;-3.337000012E-1;9.861899376E0;-5.219999701E-2
3.444830469E1;1.323199987E0;1.007579994E1;-5.581399918E0
3.446815625E1;2.600399971E0;5.326999664E0;-1.046150017E1
3.448800938E1;1.189399958E0;-1.393999904E-1;-3.117199898E0
3.450786406E1;-2.533999979E-1;-3.217799902E0;3.473199844E0
3.452771406E1;-8.626999855E-1;-7.602999806E-1;3.277400017E0
3.454756719E1;-5.766999722E-1;-5.687999725E-1;4.729499817E0
3.456742031E1;-2.565700054E0;-4.112899780E0;6.449800014E0
3.458727344E1;-3.280999899E0;-1.990099907E0;8.124699593E0
3.460712500E1;-4.325399876E0;-1.648999900E-1;5.823699951E0
3.462697812E1;-4.114599705E0;-9.135999680E-1;3.145200014E0
3.464683125E1;-2.186599970E0;-2.870499849E0;6.926999688E-1
3.466668281E1;3.666999936E-1;-3.278699875E0;-4.944200039E0
3.468653594E1;3.955799818E0;-1.908999979E-1;-8.131899834E0
3.470638906E1;4.410299778E0;2.386299849E0;-3.601399899E0
3.472624219E1;3.240099907E0;2.118700027E0;5.685999990E-1
3.474609375E1;3.392199993E0;4.102999866E-1;1.276499987E0
3.476594688E1;3.862199783E0;-1.604399920E0;-1.563300014E0
3.478580000E1;2.643299818E0;-2.057299852E0;-4.552599907E0
3.480565156E1;-7.259999961E-2;-8.084999919E-1;-3.631799936E0
3.482550469E1;-2.598700047E0;-1.562999934E-1;-4.686500072E0
3.484535781E1;-3.368099928E0;6.402999759E-1;-2.995399952E0
3.486520938E1;-1.962999940E0;1.105199933E0;3.152899981E0
3.488506250E1;-1.598500013E0;1.117900014E0;1.458499908E0
3.490491562E1;-3.240799904E0;2.223999947E-1;-1.990999937E0
3.492476719E1;-4.589699745E0;-8.228999972E-1;-5.864999890E-1
3.494462031E1;-3.952999830E0;-2.451999933E-1;1.942899942E0
3.496447344E1;-1.059499979E0;1.216400027E0;2.764299870E0
3.498432813E1;1.616499901E0;9.830999970E-1;2.158799887E0
3.500417812E1;2.169299841E0;-5.058000088E-1;1.545099974E0
3.502403125E1;4.569999874E-1;-1.333899975E0;1.289999932E-1
3.504388438E1;-4.370999932E-1;1.587899923E0;1.843999922E-1
3.506373594E1;-3.465999961E-1;4.222000122E0;1.808599949E0
3.508358906E1;6.437000036E-1;4.204400063E0;3.141899824E0
3.510344219E1;7.337999940E-1;2.328399897E0;1.393399954E0
3.512329375E1;-9.018999934E-1;1.098199964E0;-1.368899941E0
3.514314688E1;-1.478899956E0;1.574599981E0;2.469099998E0
3.516300000E1;-5.415999889E-1;2.145099878E0;9.413999915E-1
3.518285156E1;5.611000061E-1;1.348899961E0;-4.252299786E0
3.520270469E1;8.339999616E-2;2.709999867E-2;-4.217999935E0
3.522255781E1;1.045699954E0;7.048999667E-1;-3.883899927E0
3.524240938E1;2.154700041E0;1.732199907E0;-3.936999798E0
3.526226250E1;1.202999949E0;9.904999733E-1;-3.751299858E0
3.528211562E1;9.673999548E-1;9.677999616E-1;-4.628099918E0
3.530196719E1;1.369899988E0;1.869099975E0;-4.321499825E0
3.532182031E1;1.683000028E-1;1.770599961E0;-2.639999986E-2
3.534167344E1;-2.493599892E0;7.902999520E-1;-9.935999513E-1
3.536152500E1;-3.170699835E0;1.176499963E0;-1.651600003E0
3.538137813E1;-3.260699987E0;1.779299974E0;-8.892999887E-1
3.540123125E1;-3.660199881E0;2.153199911E0;-6.410999894E-1
3.542108438E1;-3.449599981E0;1.941499949E0;-5.837999582E-1
3.544093594E1;-5.575699806E0;-7.315999866E-1;-7.275799751E0
3.546078906E1;-1.070949936E1;-1.132129955E1;-1.850939941E1
3.548064219E1;-1.039359951E1;-1.362209988E1;-2.800799847E0
3.550049375E1;-1.591499925E0;1.943599939E0;1.089509964E1
3.552034688E1;-7.360999584E-1;1.143509960E1;-5.584499836E0
3.554020000E1;1.814519882E1;1.097749996E1;6.232699871E0
3.556005312E1;4.302199841E0;-1.434399962E0;-4.973399639E0
3.557990469E1;-2.909999900E-2;-3.577299833E0;3.021899939E0
3.559975781E1;-2.524600029E0;-5.861899853E0;6.510200024E0
3.561961094E1;1.049499989E0;-3.991699934E0;5.772799969E0
3.563946250E1;3.076599836E0;-2.396100044E0;6.559999585E-1
3.565931563E1;1.350799918E0;-1.862199903E0;3.653800011E0
3.567916875E1;2.811300039E0;-2.615299940E0;4.502599716E0
3.569902031E1;2.999199867E0;-2.949599981E0;2.337800026E0
3.571887344E1;2.651499987E0;-2.946499825E0;2.352900028E0
3.573872656E1;8.385999799E-1;-3.137300014E0;1.921499968E0
3.575857812E1;9.587999582E-1;-2.203399897E0;3.983899832E0
3.577843125E1;3.276499987E0;-7.191999555E-1;3.786899805E0
3.579828438E1;4.797299862E0;-4.919999838E-2;2.275399923E0
3.581813750E1;4.895199776E0;-2.159100056E0;-2.562399864E0
3.583798906E1;3.871999979E0;-3.731400013E0;6.849999726E-2
3.585784219E1;4.108900070E0;-4.366099834E0;-3.355000019E-1
3.587769531E1;3.702699900E0;-2.717099905E0;-2.439000010E-1
3.589754688E1;1.828599930E0;7.204999924E-1;3.853199959E0
3.591740000E1;1.184000015E0;2.860399961E0;4.158400059E0
3.593725313E1;7.651999593E-1;2.741199970E0;1.514199972E0
3.595710625E1;-1.767999977E-1;2.923499823E0;-9.631999731E-1
3.597695781E1;-1.534099936E0;3.517499924E0;-3.827899933E0
3.599681094E1;-1.330299973E0;3.748099804E0;-3.345299959E0
3.601666250E1;-4.019999802E-1;2.905599833E0;4.565999806E-1
3.603651562E1;-3.801999986E-1;1.070299983E0;1.771899939E0
3.605636875E1;-8.410999775E-1;-2.610000074E-1;1.069999933E0
3.607622188E1;-8.003000021E-1;-2.805999815E-1;1.129899979E0
3.609607344E1;-4.980999827E-1;-1.045499921E0;9.733999968E-1
3.611592656E1;9.844999909E-1;-1.838299990E0;2.635999918E-1
3.613577969E1;2.627399921E0;-1.671399951E0;-5.052999854E-1
3.615563125E1;3.230599880E0;-5.525999665E-1;-6.685000062E-1
3.617548438E1;2.993099928E0;5.015000105E-1;-4.277999997E-1
3.619533750E1;3.352299929E0;1.124300003E0;5.519999936E-2
3.621518906E1;3.142400026E0;-6.159999967E-2;-2.797600031E0
3.623504219E1;2.419999838E0;-4.824000001E-1;-5.223799706E0
3.625489531E1;2.469199896E0;1.739300013E0;-2.340600014E0
3.627474844E1;1.793299913E0;3.183300018E0;8.851999640E-1
3.629460000E1;4.466999769E-1;1.182099938E0;2.660099983E0
3.631445312E1;-1.140999943E-1;-2.533999979E-1;2.781199932E0
3.633430625E1;-4.608999789E-1;1.054999948E0;2.663599968E0
3.635415781E1;-2.678000033E-1;2.879400015E0;1.946199894E0
3.637401094E1;-4.699999839E-2;4.074399948E0;9.402999878E-1
3.639386406E1;1.469999924E-2;4.083899975E0;6.360999942E-1
3.641371562E1;-8.338999748E-1;1.644899964E0;6.728000045E-1
3.643356875E1;-7.663999796E-1;-1.026499987E0;-8.169499397E0
3.645342031E1;-4.439999759E-1;-1.757599950E0;-5.592099667E0
3.647327344E1;9.136999846E-1;-5.299999844E-3;1.500599980E0
3.649313281E1;3.077999830E0;3.966300011E0;1.582700014E0
3.651297813E1;3.848799944E0;3.389599800E0;2.197299957E0
3.653283281E1;9.077199936E0;-3.100399971E0;-2.152400017E0
3.655268438E1;1.173819923E1;-1.042549992E1;-7.405399799E0
3.657253750E1;1.588899970E0;-7.187500000E0;-1.326970005E1
3.659239062E1;-7.220000029E-1;1.429299951E0;-4.063699722E0
3.661224375E1;1.970699906E0;4.707499981E0;6.638399601E0
3.663209531E1;2.941200018E0;3.798199892E0;3.077299833E0
3.665194688E1;9.874999523E-1;3.195999861E-1;3.139799833E0
3.667180000E1;5.891000032E-1;-8.831999898E-1;5.313899994E0
3.669165312E1;1.920999885E-1;-2.798999846E-1;1.323199987E0
3.671150469E1;-1.633999944E-1;9.767999649E-1;1.279600024E0
3.673135781E1;4.778999984E-1;1.098299980E0;1.240899920E0
3.675121094E1;1.394799948E0;-4.535000026E-1;9.167000055E-1
3.677106406E1;1.676699996E0;-9.075999856E-1;-4.616999924E-1
3.679091563E1;2.566999912E0;-4.023999870E-1;-1.561399937E0
3.681076875E1;2.758699894E0;-6.675999761E-1;-2.608299971E0
3.683062188E1;1.383099914E0;-1.298099995E0;-8.642999530E-1
3.685047344E1;4.988999963E-1;-1.067299962E0;9.907999635E-1
3.687032656E1;1.377200007E0;-1.166999936E0;2.422799826E0
3.689017969E1;2.998899937E0;-1.391299963E0;3.611199856E0
3.691003125E1;3.960199833E0;-1.503499985E0;2.583899975E0
3.692988438E1;4.025599957E0;-2.065099955E0;1.160699964E0
3.694973750E1;3.368199825E0;-2.192699909E0;1.211699963E0
3.696959062E1;1.741899967E0;-3.156800032E0;3.330699921E0
3.698944219E1;1.426800013E0;-4.197199821E0;1.939099908E0
3.700929531E1;2.704499960E0;-5.830599785E0;-5.907999873E-1
3.702914844E1;4.445899963E0;-6.045199871E0;-2.746899843E0
3.704900000E1;5.826900005E0;-4.990799904E0;-2.930099964E0
3.706885313E1;5.848599911E0;-4.115699768E0;-2.280099869E0
3.708870625E1;4.288099766E0;-1.788299918E0;-1.525599957E0
3.710855938E1;1.591399908E0;5.569999814E-1;-7.707999945E-1
3.712841094E1;-8.289999515E-2;2.626199961E0;-1.556599975E0
3.714826406E1;-4.095699787E0;3.015199900E0;-6.144599915E0
3.716811563E1;-1.548900008E0;2.433099985E0;-8.971999884E-1
3.718796875E1;6.516000032E-1;3.083899975E0;4.408699989E0
3.720782188E1;-8.306999803E-1;2.928400040E0;4.608099937E0
3.722767500E1;-2.900799990E0;1.642499924E0;2.578999996E0
3.724752656E1;-3.905900002E0;1.018899918E0;1.328400016E0
3.726737969E1;-3.573099852E0;3.285199881E0;-3.422999859E0
3.728723281E1;-4.399199963E0;4.474400043E0;-6.523699760E0
3.730708438E1;-6.022899628E0;1.422500014E0;-1.495899916E0
3.732693750E1;-5.336400032E0;3.358999789E-1;2.931299925E0
3.734679063E1;-4.149300098E0;1.400699973E0;2.671099901E0
3.736664531E1;-2.856099844E0;2.770400047E0;-1.270499945E0
3.738650625E1;-4.353899956E0;6.646999717E-1;-3.970299959E0
3.740634844E1;-4.104399681E0;-2.124199867E0;-1.100799918E0
3.742620156E1;-2.976899862E0;-3.886799812E0;6.600999832E-1
3.744605312E1;-2.903699875E0;-2.429399967E0;3.212499857E0
3.746590625E1;-3.420699835E0;3.139999807E-1;3.807499886E0
3.748575938E1;-3.142299891E0;6.790000200E-2;1.711399913E0
3.750561094E1;-8.495000005E-1;-4.029999971E-1;-5.585799694E0
3.752546406E1;6.466000080E-1;-1.919999905E-2;-4.954899788E0
3.754531719E1;-5.945000052E-1;-1.185500026E0;-1.324199915E0
3.756517031E1;-5.457000136E-1;-1.860000007E-2;-7.321000099E-1
3.758502188E1;-1.156899929E0;8.331999779E-1;-2.053299904E0
3.760487500E1;-1.306599975E0;7.797999978E-1;-2.352799892E0
3.762472656E1;-7.518999577E-1;4.060999751E-1;-1.525900006E0
3.764458125E1;3.939999938E-1;4.599999785E-1;-5.040000081E-1
3.766443281E1;8.507999778E-1;2.955999970E-1;5.252999663E-1
3.768428906E1;7.718999982E-1;4.620999992E-1;1.202999949E0
3.770413906E1;7.523999810E-1;3.919000030E-1;9.928999543E-1
3.772398906E1;6.416999698E-1;3.301999867E-1;-9.529999644E-2
3.774384219E1;-3.506000042E-1;6.236000061E-1;-1.534999967E0
3.776369688E1;-4.903999865E-1;8.603999615E-1;-2.099599838E0
3.778354844E1;-2.630000003E-2;5.749999881E-1;-1.113999963E0
3.780340156E1;9.664999843E-1;1.502999961E-1;-6.439999938E-1
3.782325469E1;1.770699978E0;-5.116999745E-1;-1.342999935E0
3.784310625E1;2.160899878E0;-7.407000065E-1;-1.949000001E0
3.786295938E1;1.568300009E0;1.762000024E-1;-1.378799915E0
3.788281250E1;6.610999703E-1;1.146600008E0;-6.757000089E-1
3.790266563E1;-3.543999791E-1;1.220000029E0;2.136999965E-1
3.792251719E1;-7.601999640E-1;1.144599915E0;1.081799984E0
3.794237031E1;-1.231499910E0;1.240299940E0;-4.542999864E-1
3.796222188E1;-9.217999578E-1;1.381500006E0;-1.401600003E0
3.798207500E1;-1.366000026E-1;1.905699968E0;-3.876999915E-1
3.800192656E1;1.683999896E-1;2.146499872E0;-1.870999932E-1
3.802177969E1;6.567999721E-1;1.798999906E0;-1.000599980E0
3.804163281E1;1.223199964E0;1.740499973E0;-1.362999916E0
3.806148438E1;8.750000000E-1;1.439899921E0;-1.514099956E0
3.808134062E1;7.928999662E-1;1.418999910E0;-5.289999843E-1
3.810119062E1;1.600600004E0;1.763099909E0;-1.349999942E-2
3.812104375E1;1.723999977E0;2.116199970E0;-8.191999793E-1
3.814089531E1;1.070799947E0;1.667199969E0;-9.399999976E-1
3.816075000E1;-1.802999973E-1;1.078999996E0;-1.383700013E0
3.818060156E1;-1.822699904E0;5.256000161E-1;-3.668799877E0
3.820045312E1;-2.917399883E0;8.061999679E-1;-4.202399731E0
3.822030625E1;-3.802500010E0;1.513599992E0;-3.265899897E0
3.824015938E1;-3.032099962E0;9.792999625E-1;-6.351999760E0
3.826001094E1;4.623000026E-1;-5.812000036E-1;-1.633580017E1
3.827986406E1;4.619800091E0;-5.741999626E0;-1.021379948E1
3.829971719E1;5.124599934E0;-9.343099594E0;8.582999706E-1
3.831957031E1;1.636299968E0;9.321999550E-1;1.983269882E1
3.833942188E1;-2.284499884E0;9.645899773E0;3.138899803E0
3.835927500E1;4.724100113E0;4.634299755E0;1.581900001E0
3.837912812E1;8.724999428E0;-6.641299725E0;5.319299698E0
3.839897969E1;2.619199991E0;-8.995699883E0;8.481900215E0
3.841883281E1;1.016099930E0;-4.959499836E0;2.369299889E0
3.843868594E1;2.950099945E0;9.042999744E-1;4.623699665E0
3.845853906E1;1.399099946E0;6.728000045E-1;3.925699949E0
3.847839062E1;1.195699930E0;-2.196599960E0;3.850999832E0
3.849824375E1;2.886299849E0;-3.625599861E0;2.953799963E0
3.851809688E1;4.866399765E0;-4.367099762E0;3.810999990E-1
3.853794844E1;6.007099628E0;-4.931499958E0;-1.212199926E0
3.855780156E1;4.918600082E0;-4.069299698E0;-7.233999968E-1
3.857765469E1;2.582299948E0;1.298999935E-1;6.653000116E-1
3.859750625E1;6.937999725E-1;2.176800013E0;2.827999890E-1
3.861735938E1;-3.904999793E-1;2.126299858E0;-7.484999895E-1
3.863721250E1;-4.968999922E-1;1.790399909E0;-3.987999856E-1
3.865706406E1;-9.962999821E-1;1.681899905E0;-4.887999892E-1
3.867691719E1;-2.026000023E0;1.852599978E0;-9.433999658E-1
3.869677031E1;-2.186399937E0;1.687500000E0;-5.184799671E0
3.871662344E1;7.673000097E-1;1.865499973E0;-8.546899796E0
3.873647500E1;3.037299871E0;6.552999616E-1;-6.271699905E0
3.875632812E1;4.710499763E0;-2.556999922E-1;-3.845799923E0
3.877617969E1;4.671999931E0;-1.406999975E-1;-5.934000015E-1
3.879603281E1;2.299599886E0;-1.195999980E-1;1.470299959E0
3.881588594E1;-8.012999892E-1;-2.205699921E0;8.762100220E0
3.883573906E1;-1.479499936E0;-3.216300011E0;8.554900169E0
3.885559219E1;-3.861899853E0;-3.046299934E0;1.727800012E0
3.887544531E1;-5.448299885E0;-1.950699925E0;-2.407899857E0
3.889529688E1;-4.340799809E0;-1.606999934E-1;-9.140999913E-1
3.891514844E1;-1.667599916E0;2.000200033E0;2.517599821E0
3.893500156E1;7.759000063E-1;3.229899883E0;3.006700039E0
3.895485312E1;2.092999935E0;3.439599991E0;2.158099890E0
3.897470625E1;3.153199911E0;3.381699800E0;6.758999825E-1
3.899455938E1;3.959299803E0;4.220699787E0;-1.622999907E0
3.901441094E1;3.100399971E0;6.664399624E0;-7.064799786E0
3.903426406E1;2.397799969E0;8.693300247E0;-6.252699852E0
3.905411875E1;2.401599884E0;5.458600044E0;1.644199967E0
3.907397031E1;3.088399887E0;2.378200054E0;-6.499999762E-1
3.909382188E1;-2.081799984E0;-1.436000019E-1;8.301300049E0
3.911367500E1;-3.263700008E0;-3.598999977E0;-4.356400013E0
3.913352813E1;6.855299950E0;-3.472199917E0;2.313499928E0
3.915337969E1;6.458699703E0;-4.043999910E-1;7.694299698E0
3.917323281E1;9.184599876E0;2.790400028E0;5.569099903E0
3.919308594E1;9.457799911E0;1.243999973E-1;3.385200024E0
3.921293750E1;6.897099972E0;-7.008499622E0;-7.135999680E0
3.923279062E1;1.524500012E0;-6.498600006E0;-1.513609982E1
3.925264375E1;8.704999685E-1;-1.254699945E0;6.722199917E0
3.927249688E1;-3.840000033E-1;1.433499932E0;8.451099396E0
3.929234844E1;-8.421999812E-1;2.721899986E0;2.239899874E0
3.931220156E1;1.085699916E0;3.434999883E-1;4.001599789E0
3.933205469E1;9.123999476E-1;-2.153699875E0;-1.349999942E-2
3.935190625E1;-1.331999898E-1;-1.462999940E0;-8.407999873E-1
3.937175938E1;-1.151999980E-1;1.078099966E0;7.324000001E-1
3.939161250E1;5.927000046E-1;1.722099900E0;-3.106999993E-1
3.941146406E1;1.521600008E0;-5.889999866E-1;1.611899972E0
3.943131719E1;1.603799939E0;-1.220299959E0;3.741499901E0
3.945117031E1;3.259299994E0;-7.630999684E-1;2.449399948E0
3.947102344E1;6.029500008E0;-1.668799996E0;3.467199802E0
3.949087500E1;8.138699532E0;-3.483500004E0;1.438199997E0
3.951072812E1;7.170599937E0;-4.591700077E0;-7.185999751E-1
3.953058125E1;5.013000011E0;-3.285499811E0;2.056200027E0
3.955043281E1;3.802699804E0;-3.010200024E0;3.417599916E0
3.957028594E1;3.899999857E0;-4.943699837E0;2.476199865E0
3.959013906E1;4.328799725E0;-6.136499882E0;3.692999780E-1
3.960999219E1;4.389100075E0;-5.701799870E0;-8.055999875E-1
3.962984375E1;4.461899757E0;-3.923199892E0;-1.735700011E0
3.964969688E1;3.357999802E0;-1.695899963E0;-1.893000007E0
3.966954844E1;1.538999915E0;1.289999932E-1;-8.165999651E-1
3.968940156E1;1.718000025E-1;2.615499973E0;-3.563799858E0
3.970925469E1;1.113099933E0;3.479899883E0;-6.903499603E0
3.972910781E1;2.345000029E0;2.938999832E-1;-2.641899824E0
3.974895938E1;3.300400019E0;-1.757399917E0;3.679600000E0
3.976881250E1;3.059799910E0;-4.427899837E0;1.683399916E0
3.978866562E1;8.942999840E-1;-3.549599886E0;1.838899970E0
3.980851719E1;-2.208899975E0;-2.095799923E0;1.686399937E0
3.982837031E1;-4.271599770E0;-2.779700041E0;1.380299926E0
3.984822344E1;-6.930599689E0;-3.818099976E0;-4.096699715E0
3.986807656E1;-9.291999817E0;-3.029500008E0;-8.550399780E0
3.988792812E1;-5.934799671E0;8.089999557E-1;5.025599957E0
3.990778125E1;-2.840399981E0;4.232899666E0;7.489899635E0
3.992763438E1;-2.028399944E0;4.065899849E0;4.257299900E0
3.994748594E1;-1.291299939E0;4.960999966E0;1.940499902E0
3.996735469E1;-9.522999525E-1;7.320199966E0;3.652999997E-1
3.998719219E1;-1.499199986E0;9.391200066E0;-2.172999859E0
4.000704375E1;-2.898900032E0;1.171669960E1;-9.833499908E0
4.002689688E1;-4.569299698E0;9.133199692E0;3.335999846E-1
4.004675000E1;-2.624199867E0;5.772699833E0;4.084700108E0
4.006660312E1;-1.141899943E0;3.808399916E0;6.600999832E0
4.008645469E1;-1.108999997E-1;-1.421899915E0;6.501599789E0
4.010630781E1;-1.836999953E-1;-8.586299896E0;2.895099878E0
4.012615938E1;-9.839999676E-2;-5.230899811E0;8.368999958E-1
4.014601250E1;1.478699923E0;-9.652999640E-1;5.450999737E-1
4.016586562E1;2.543799877E0;-1.718999892E-1;8.027999997E-1
4.018571719E1;3.562799931E0;-1.732800007E0;1.658899903E0
4.020557188E1;4.144799709E0;-2.687000036E0;8.179000020E-1
4.022542344E1;2.656999826E0;-1.663899899E0;-3.753499985E0
4.024527656E1;1.713999987E0;-1.633999944E-1;-2.589299917E0
4.026512813E1;1.821999907E0;6.053000093E-1;1.093599916E0
4.028498125E1;1.315999985E0;3.502999842E-1;2.859099865E0
4.030483281E1;2.911999822E-1;5.153999925E-1;2.845799923E0
4.032468594E1;7.469999790E-2;1.286199927E0;2.289599895E0
4.034453906E1;3.425999880E-1;1.702399969E0;5.898999572E-1
4.036439219E1;1.221799970E0;4.029999971E-1;-7.606999874E-1
4.038424531E1;2.876499891E0;-3.655999899E-1;-1.796799898E0
4.040409688E1;4.944399834E0;1.066999957E-1;-6.597099781E0
4.042394844E1;4.907000065E0;2.071399927E0;-1.493659973E1
4.044380156E1;3.406199932E0;-8.335999846E-1;-1.497970009E1
4.046365469E1;2.013200045E0;-7.650199890E0;-8.532799721E0
4.048350781E1;-3.080699921E0;-5.837399960E0;5.372900009E0
4.050335938E1;-3.334899902E0;-9.220999479E-1;7.765499592E0
4.052321250E1;-5.622000098E-1;1.741699934E0;9.918399811E0
4.054306563E1;1.794899940E0;-4.601999819E-1;8.352799416E0
4.056291719E1;4.670300007E0;-5.990999699E0;9.782999754E-1
4.058277031E1;-3.164599895E0;-7.678299904E0;5.004999638E-1
4.060262344E1;-5.866799831E0;-4.299999714E0;-1.866400003E0
4.062247656E1;-2.120699883E0;5.231999755E-1;1.837599993E0
4.064232813E1;2.947399855E0;2.297799826E0;-1.163699985E0
