"Time (s)";"Acceleration x (m/s^2)";"Acceleration y (m/s^2)";"Acceleration z (m/s^2)"
0.000000000E0;3.677407742E0;4.570463657E0;8.622957230E0
1.191093700E-2;3.628374338E0;4.637511253E0;8.566424370E0
2.382343700E-2;3.453722239E0;4.658216476E0;8.125709534E0
3.573593700E-2;3.434501410E0;4.733107090E0;7.333392143E0
4.764531200E-2;3.479206085E0;4.849196911E0;6.589628220E0
5.955781200E-2;3.625568390E0;4.958563805E0;6.300495148E0
7.146875000E-2;3.517455816E0;4.927898884E0;7.207140923E0
8.338125000E-2;3.577981234E0;4.842110157E0;8.920728683E0
9.529218700E-2;4.311133862E0;4.561969280E0;8.221228600E0
1.072031250E-1;3.846792459E0;4.631679058E0;8.834106445E0
1.191218750E-1;3.590795040E0;4.433477402E0;9.189205170E0
1.310265620E-1;3.620732069E0;4.262588978E0;9.156662941E0
1.429390620E-1;3.989602089E0;4.397583485E0;8.802875519E0
1.548593750E-1;4.123255730E0;4.611807346E0;8.424113274E0
1.667687500E-1;4.049811363E0;4.605984211E0;8.113404274E0
1.786765620E-1;4.039343834E0;4.479341030E0;7.819855690E0
1.905859370E-1;4.105433464E0;4.463596344E0;7.727525234E0
2.024968750E-1;3.944073677E0;4.428123951E0;7.804561138E0
2.144171870E-1;3.723644495E0;4.246767998E0;7.628980160E0
2.263187500E-1;3.655189514E0;4.099859715E0;7.609845638E0
2.382312500E-1;3.883605957E0;4.095454216E0;7.804877281E0
2.501421870E-1;4.160260677E0;4.084699631E0;7.957579613E0
2.620546870E-1;4.010527134E0;3.961886644E0;8.204593658E0
2.739656250E-1;3.839466333E0;3.808063984E0;8.473241806E0
2.858765620E-1;3.575835943E0;3.617275000E0;8.666923523E0
2.977890620E-1;3.316658974E0;3.545793533E0;8.473366737E0
3.097000000E-1;2.907958984E0;3.549193382E0;7.988598824E0
3.216125000E-1;2.617925644E0;3.634015083E0;7.428307533E0
3.335234370E-1;2.506710052E0;3.706118822E0;7.103155613E0
3.454343750E-1;2.487594843E0;3.830789804E0;6.910872459E0
3.573515620E-1;2.864442110E0;3.788680315E0;6.999965668E0
3.692593750E-1;3.356546402E0;3.830042839E0;7.147247791E0
3.811718750E-1;3.673184395E0;3.761712074E0;7.286513805E0
3.930937500E-1;3.720177650E0;3.464620590E0;7.547385693E0
4.049937500E-1;3.883375883E0;3.257483959E0;7.671520233E0
4.169046870E-1;4.038175583E0;3.215709686E0;7.550536633E0
4.288171870E-1;3.986029863E0;3.089276791E0;7.200504303E0
4.407281250E-1;3.931911469E0;2.942943096E0;6.609174728E0
4.526390620E-1;4.176953316E0;3.078569889E0;5.831538200E0
4.645609370E-1;4.667515278E0;3.491828442E0;5.010432243E0
4.764625000E-1;4.989602566E0;3.938404322E0;4.661558628E0
4.883750000E-1;4.945788383E0;3.809883595E0;5.015986919E0
5.002859370E-1;4.863878250E0;3.280209541E0;5.782715321E0
5.121984370E-1;4.992887020E0;2.946869612E0;6.719863415E0
5.241203120E-1;4.966771603E0;2.559583426E0;7.134242058E0
5.360218750E-1;5.356461525E0;2.312540293E0;7.143742085E0
5.479328120E-1;6.029356480E0;2.306545258E0;6.778913975E0
5.598437500E-1;6.354661465E0;2.555235624E0;6.177615166E0
5.717562500E-1;6.162608147E0;2.762544870E0;6.187584400E0
5.836671870E-1;6.080171108E0;2.652938128E0;6.620858192E0
5.955781250E-1;5.829986095E0;2.160479784E0;7.084366322E0
6.074906250E-1;5.505246639E0;1.562484741E0;7.531200886E0
6.194015620E-1;4.926204205E0;1.008409023E0;7.834144115E0
6.313140620E-1;4.166945457E0;5.647921562E-1;7.575618267E0
6.432250000E-1;3.881652117E0;7.871369123E-1;7.089221478E0
6.551375000E-1;4.147255421E0;1.481618166E0;6.599866390E0
6.670484370E-1;4.864740372E0;1.950297594E0;6.520340443E0
6.789593750E-1;5.635558128E0;1.798524261E0;6.804158211E0
6.908718750E-1;6.034412861E0;1.598733068E0;7.692742825E0
7.027828120E-1;6.213757992E0;1.127783895E0;8.250859261E0
7.146937500E-1;6.453264236E0;6.212857962E-1;8.247948647E0
7.266062500E-1;7.180211067E0;6.384091377E-1;8.218413353E0
7.385171870E-1;7.695299149E0;9.625744224E-1;8.172147751E0
7.504328120E-1;7.805279255E0;1.362655163E0;8.681318283E0
7.623406250E-1;7.386486053E0;1.348232388E0;9.133065224E0
7.742515620E-1;6.756312370E0;8.908345699E-1;9.331353188E0
7.861640620E-1;6.312504292E0;5.799522996E-1;9.331909180E0
7.980750000E-1;5.725982189E0;-7.929596119E-3;9.100255013E0
8.099906250E-1;5.320165157E0;-5.757288933E-1;8.416585922E0
8.218984370E-1;5.236895084E0;-5.087295771E-1;7.311182976E0
8.338125000E-1;5.701216698E0;-1.580556184E-1;6.273200989E0
8.457218750E-1;6.395621777E0;4.549078941E-1;5.665513992E0
8.576343750E-1;7.064408302E0;9.154278040E-1;6.075526237E0
8.695453120E-1;7.321066380E0;1.030675054E0;6.921924114E0
8.814562500E-1;7.140390396E0;5.505322814E-1;7.836011410E0
8.933687500E-1;6.239892960E0;-3.561997414E-1;8.294319153E0
9.052796870E-1;5.841775417E0;-1.292236805E0;8.374428749E0
9.171921870E-1;6.575991154E0;-1.625002146E0;8.541448593E0
9.291109370E-1;6.870688438E0;-1.766892076E0;8.698249817E0
9.410250000E-1;7.054477215E0;-1.521045923E0;7.936989307E0
9.529265620E-1;7.410016060E0;-1.338148117E0;6.568731785E0
9.648390620E-1;7.342489719E0;-1.328801155E0;5.650114536E0
9.767500000E-1;6.819931507E0;-1.638495803E0;5.023868084E0
9.886625000E-1;6.493534565E0;-1.550111532E0;5.110519409E0
1.000575000E0;7.079395771E0;-1.182611108E0;5.876989365E0
1.012484375E0;8.451637268E0;-7.906228900E-1;6.808065891E0
1.024396875E0;9.683454514E0;-7.574295998E-1;7.719931126E0
1.036307812E0;1.045258713E1;-5.069865584E-1;8.213146210E0
1.048220312E0;1.144479179E1;2.294028252E-1;8.808478355E0
1.060131250E0;1.171467590E1;6.821655035E-1;8.647138596E0
1.072042187E0;1.130215454E1;6.838223338E-1;7.698163033E0
1.083954687E0;1.120985317E1;6.823378801E-1;7.109840393E0
1.095865625E0;1.116746712E1;4.797022343E-1;7.297392368E0
1.107778125E0;1.096611404E1;1.288942397E-1;7.164380550E0
1.119690625E0;1.124951077E1;1.791054308E-1;6.662345409E0
1.131601562E0;1.107135391E1;6.404968351E-2;5.818542004E0
1.143512500E0;1.013072968E1;-5.136712193E-1;4.621038914E0
1.155423437E0;8.628463745E0;-1.070361376E0;3.797903061E0
1.167340625E0;7.598305702E0;-1.510348678E0;2.926557064E0
1.179246875E0;6.780809879E0;-1.769458771E0;2.162222624E0
1.191160937E0;6.641285419E0;-2.161581039E0;1.944398165E0
1.203070312E0;7.655096054E0;-1.931172609E0;2.130657434E0
1.214981250E0;9.043646812E0;-1.498444676E0;2.257923841E0
1.226893750E0;1.208714676E1;-1.964710712E0;-1.894675493E-1
1.238804687E0;1.532571602E1;-1.217298388E0;-4.950577259E0
1.250717187E0;1.422931576E1;-5.465101004E-1;-2.025398910E-1
1.262628125E0;1.231877136E1;-1.550734043E0;3.152435780E0
1.274539062E0;1.073843575E1;-2.924163103E0;3.971281528E0
1.286451562E0;7.817346096E0;-3.297457218E0;2.511574984E0
1.298362500E0;6.390114784E0;-2.793573618E0;1.232908607E0
1.310273437E0;5.728242874E0;-3.350177765E0;1.386501312E0
1.322185937E0;7.230680466E0;-4.603283882E0;3.093959808E0
1.334096875E0;9.467937469E0;-5.050587177E0;4.245206833E0
1.346029687E0;1.114521027E1;-4.505389690E0;4.310022831E0
1.357920312E0;1.109809208E1;-3.684829473E0;3.542039633E0
1.369834375E0;9.497731209E0;-3.299573898E0;3.964836359E0
1.381743750E0;8.252526283E0;-3.150510788E0;4.028684616E0
1.393656250E0;6.992735386E0;-2.980819225E0;3.496233702E0
1.405567187E0;7.094058037E0;-2.409936190E0;3.252800703E0
1.417478125E0;9.471404076E0;-1.713999391E0;1.778345942E0
1.429412500E0;1.021651840E1;-1.430228949E0;1.729226589E0
1.441301562E0;1.007841110E1;-4.999093339E-2;3.013351917E0
1.453214062E0;1.166972160E1;1.287295222E0;5.142400265E0
1.465142187E0;2.310838509E1;5.264092922E0;-1.358288050E0
1.477037500E0;1.115004635E1;2.746254683E0;1.969048977E0
1.488948437E0;9.219755173E0;3.094256639E0;-6.829795241E-1
1.500864062E0;7.246664524E0;2.176865816E0;-2.137370825E0
1.512771875E0;7.574382782E0;1.840556860E0;9.431622028E-1
1.524682812E0;6.860556126E0;1.735374928E0;-4.865199566E0
1.536606250E0;6.930418968E0;2.649902552E-2;-2.898210049E0
1.548506250E0;9.415542603E0;-6.350859404E-1;2.901772559E-1
1.560418750E0;1.245390892E1;-1.347744018E-1;3.303289652E0
1.572329687E0;1.158230495E1;-3.582252502E0;5.663790703E0
1.584240625E0;1.117761803E1;-5.086126804E0;7.621922016E0
1.596154687E0;1.088201046E1;-5.703400612E0;6.187823772E0
1.608064062E0;9.447720528E0;-3.594654560E0;2.901628971E0
1.619976562E0;7.051603794E0;-4.376696110E0;1.367060423E0
1.631887500E0;5.342441082E0;-5.644934177E0;-5.853057504E-1
1.643798437E0;4.652642727E0;-6.397143841E0;1.848036349E-1
1.655710937E0;4.067441940E0;-5.592433453E0;-2.628517389E0
1.667621875E0;3.096986055E0;-6.895483017E0;6.114120483E-1
1.679532812E0;2.815926075E0;-7.680311680E0;1.798524335E-2
1.691445312E0;4.233542442E0;-7.161967278E0;1.537087083E0
1.703357812E0;4.776001453E0;-7.630837917E0;1.560215116E0
1.715268750E0;4.356786251E0;-8.792331696E0;5.659509897E-1
1.727179687E0;4.296758652E0;-9.263731003E0;1.403787494E0
1.739090625E0;3.107692957E0;-8.594580650E0;4.742195129E0
1.751003125E0;2.198356092E-1;-8.867012024E0;9.631711006E0
1.762917187E0;3.338091671E-1;-9.295890808E0;1.459064841E0
1.774826562E0;1.367836237E0;-9.201281548E0;-2.515559196E0
1.786739062E0;2.812679529E0;-8.487091064E0;-7.541984558E0
1.798648437E0;3.102310896E0;-6.514239788E0;-5.623500824E0
1.810560937E0;2.913542271E0;-6.126311779E0;-3.067470551E0
1.822485937E0;5.755852699E0;-9.409260750E0;-1.056082368E0
1.834387500E0;5.253606319E0;-1.574138737E1;8.263156414E-1
1.846295312E0;4.857375622E0;-2.234701920E1;2.167738914E0
1.858206250E0;4.129240990E0;-2.806238174E1;1.520701170E0
1.870118750E0;5.100128651E0;-2.726201820E1;-1.830214024E0
1.882032812E0;8.022615433E0;-1.576920795E1;-3.500964642E0
1.893951562E0;7.317590237E0;-1.012007046E1;-1.911118746E0
1.905853125E0;4.942168236E0;-8.521797180E0;-9.942353368E-1
1.917765625E0;2.433792353E0;-7.941796780E0;-3.032112718E-1
1.929676562E0;3.010564744E-1;-7.826013088E0;5.924116969E-1
1.941595312E0;-1.189717174E0;-8.267858505E0;1.367855310E0
1.953500000E0;-1.639884472E0;-8.692006111E0;2.022803545E0
1.965412500E0;-8.876646757E-1;-8.662001610E0;2.581572056E0
1.977323437E0;-6.839755177E-2;-8.689898491E0;2.732301235E0
1.989235937E0;5.718024373E-1;-8.963632584E0;2.389968634E0
2.001146875E0;1.159617186E0;-9.571395874E0;1.924181700E0
2.013057812E0;1.872236967E0;-1.003246212E1;1.596779346E0
2.024970312E0;2.450675964E0;-1.002052975E1;1.325975895E0
2.036881250E0;2.806990623E0;-9.757722855E0;1.293692470E0
2.048793750E0;2.973483562E0;-9.347480774E0;1.259091496E0
2.060706250E0;3.298989773E0;-8.868611336E0;1.160163045E0
2.072620312E0;3.691380024E0;-8.063345909E0;7.398179173E-1
2.084528125E0;3.782053471E0;-7.708295345E0;2.087360770E-1
2.096439062E0;3.185217381E0;-8.014466286E0;1.134755835E-1
2.108351562E0;2.099992752E0;-9.076992989E0;8.814780116E-1
2.120262500E0;1.371666908E0;-1.022670841E1;1.503520370E0
2.132175000E0;1.113638997E0;-1.085346222E1;1.733459473E0
2.144085937E0;1.397648811E0;-1.083512306E1;1.371216774E0
2.155996875E0;1.905296087E0;-1.032101059E1;1.135522008E0
2.167909375E0;2.599404097E0;-9.552511215E0;1.003965378E0
2.179820312E0;3.114990473E0;-8.963613510E0;9.386323690E-1
2.191732812E0;3.122402906E0;-8.910538673E0;1.106906533E0
2.203642187E0;3.118208170E0;-8.976312637E0;9.169026613E-1
2.215554687E0;3.086758137E0;-9.169505119E0;6.515676379E-1
2.227467187E0;2.926078320E0;-9.347490311E0;4.564784765E-1
2.239378125E0;2.743237972E0;-9.407929420E0;5.353530645E-1
2.251289062E0;2.727972746E0;-9.292031288E0;9.677554965E-1
2.263200000E0;2.601070404E0;-9.267255783E0;1.460472703E0
2.275112500E0;2.419359922E0;-9.250812531E0;1.917382121E0
2.287025000E0;2.331770420E0;-9.246186256E0;2.178627729E0
2.298942187E0;2.228800774E0;-9.184933662E0;2.274079800E0
2.310848437E0;2.122325659E0;-9.156366348E0;2.095615864E0
2.322757812E0;2.069730043E0;-9.170903206E0;1.670271754E0
2.334670312E0;1.903055191E0;-9.286610603E0;1.323907375E0
2.346581250E0;1.764402151E0;-9.392606735E0;1.086967587E0
2.358493750E0;1.594308496E0;-9.446178436E0;1.148057938E0
2.370406250E0;1.424827814E0;-9.426997185E0;1.275937080E0
2.382317187E0;1.348931551E0;-9.306597710E0;1.393348813E0
2.394229687E0;1.445283771E0;-9.229034424E0;1.489375353E0
2.406139062E0;1.665770650E0;-9.182855606E0;1.541693449E0
2.418051562E0;1.959989309E0;-9.149250031E0;1.558778524E0
2.429964062E0;2.198509216E0;-9.264784813E0;1.529942751E0
2.441875000E0;2.369915009E0;-9.342328072E0;1.425842881E0
2.453785937E0;2.464964867E0;-9.331343651E0;1.288808346E0
2.465698437E0;2.390332699E0;-9.376842499E0;1.038317442E0
2.477612500E0;2.254016399E0;-9.470647812E0;8.260857463E-1
2.489532812E0;2.097502708E0;-9.446284294E0;5.573605895E-1
2.501432812E0;2.002797604E0;-9.440796852E0;4.446511567E-1
2.513343750E0;1.898640275E0;-9.330251694E0;3.772974610E-1
2.525256250E0;1.872639298E0;-9.216000557E0;4.999284744E-1
2.537167187E0;1.891677856E0;-9.301636696E0;6.781911850E-1
2.549078125E0;1.917899132E0;-9.425588608E0;9.542138577E-1
2.560990625E0;1.969365001E0;-9.400362968E0;1.121530294E0
2.572901562E0;1.967736959E0;-9.303264618E0;1.212356687E0
2.584814062E0;1.944187522E0;-9.219850540E0;1.091918826E0
2.596726562E0;1.861070395E0;-9.173144341E0;9.219687581E-1
2.608637500E0;1.698159456E0;-9.205006599E0;8.085027337E-1
2.620557812E0;1.743505597E0;-9.157850266E0;8.133103251E-1
2.632459375E0;1.846532822E0;-9.180269241E0;7.098712325E-1
2.644371875E0;2.040731430E0;-9.150658607E0;6.927191615E-1
2.656284375E0;2.224385738E0;-9.008950233E0;8.114141226E-1
2.668196875E0;2.474033833E0;-8.802866936E0;1.053736091E0
2.680106250E0;2.621717930E0;-8.655068398E0;1.352293015E0
2.692018750E0;2.816031218E0;-8.607480049E0;1.581063747E0
2.703929687E0;3.081404448E0;-8.886874199E0;1.581772447E0
2.715842187E0;3.306593657E0;-9.166125298E0;1.413105726E0
2.727751562E0;3.591532469E0;-9.134559631E0;1.028261662E0
2.739664062E0;3.817075729E0;-9.070404053E0;5.722237825E-1
2.751576562E0;4.023407936E0;-9.117742538E0;1.675941199E-1
2.763487500E0;4.251968384E0;-9.179484367E0;8.011956513E-2
2.775417187E0;4.718770504E0;-9.405899048E0;2.210135460E-1
2.787310937E0;5.349010944E0;-9.938896179E0;4.745595157E-1
2.799223437E0;6.052264214E0;-1.058250618E1;8.352507949E-1
2.811134375E0;6.447259903E0;-1.129292297E1;9.950110316E-1
2.823045312E0;6.353818893E0;-1.212245560E1;6.497288942E-1
2.834960937E0;5.695949554E0;-1.276901436E1;-3.107290566E-1
2.846868750E0;4.037754059E0;-1.252115822E1;-1.385304213E0
2.858781250E0;2.379204273E0;-1.151862907E1;-2.501327991E0
2.870692187E0;1.684445381E0;-1.006922626E1;-3.250061750E0
2.882603125E0;1.272872567E0;-9.774079323E0;-3.097330809E0
2.894515625E0;5.215815902E-1;-1.032384586E1;-1.607016921E0
2.906426562E0;5.191970468E-1;-1.076999092E1;2.289431393E-1
2.918339062E0;1.179029465E0;-1.063955498E1;1.521342754E0
2.930250000E0;1.673671484E0;-1.038885212E1;2.524360180E0
2.942162500E0;1.501135707E0;-1.020715237E1;3.344852924E0
2.954073437E0;8.040687442E-1;-1.007954121E1;3.701589108E0
2.965984375E0;-6.895300746E-2;-1.023095036E1;3.355119467E0
2.977896875E0;-6.639887691E-1;-1.041626167E1;2.688784122E0
2.989807812E0;-1.087628365E0;-1.077729797E1;2.036594152E0
3.001718750E0;-1.960525632E0;-1.149415016E1;1.222364545E0
3.013639062E0;-2.521362543E0;-1.244014740E1;2.574820220E-1
3.025543750E0;-2.484003305E0;-1.323702431E1;-3.808983564E-1
3.037457812E0;-1.893995523E0;-1.336070919E1;-3.222212493E-1
3.049365625E0;-8.670553565E-1;-1.251391792E1;4.000040591E-1
3.061281250E0;1.473104358E-1;-1.140809345E1;1.180906534E0
3.073195312E0;9.588873386E-1;-1.066396618E1;1.466822028E0
3.085101562E0;1.291528225E0;-9.979770660E0;1.480411530E0
3.097012500E0;1.058763862E0;-9.456694603E0;1.368669271E0
3.108923437E0;6.849332452E-1;-9.398764610E0;1.037292719E0
3.120835937E0;1.364024729E-1;-9.495269775E0;4.319810271E-1
3.132748437E0;-5.740242600E-1;-9.493938446E0;-2.943718731E-1
3.144657812E0;-1.118992448E0;-9.478146553E0;-8.512727618E-1
3.156571875E0;-1.509774089E0;-9.412324905E0;-9.781559110E-1
3.168481250E0;-1.746349812E0;-9.146894455E0;-6.652241945E-1
3.180393750E0;-1.792921901E0;-8.726366997E0;-1.714248443E-3
3.192304687E0;-1.704882383E0;-8.406847000E0;6.461663246E-1
3.204215625E0;-1.412329912E0;-8.266153336E0;1.141526580E0
3.216128125E0;-9.723523855E-1;-8.456300735E0;1.324462771E0
3.228039062E0;-4.176445305E-1;-9.039202690E0;1.224730015E0
3.239953125E0;4.304104447E-1;-9.319909096E0;8.490892649E-1
3.251865625E0;1.233866215E0;-9.473434448E0;5.497278571E-1
3.263781250E0;1.771699667E0;-9.728743553E0;4.474188089E-1
3.275685937E0;1.772973418E0;-9.961660385E0;4.597442150E-1
3.287596875E0;1.735882401E0;-1.016272545E1;4.414141774E-1
3.299509375E0;1.713156581E0;-1.021653748E1;2.827647924E-1
3.311426562E0;1.576131701E0;-9.932144165E0;-1.368525624E-1
3.323332812E0;1.240694404E0;-9.355342865E0;-7.487338781E-1
3.335243750E0;9.432388544E-1;-8.882938385E0;-5.178754330E-1
3.347154687E0;5.936949849E-1;-8.641401291E0;1.170668900E-1
3.359067187E0;3.487585783E-1;-8.621616364E0;3.889715970E-1
3.370979687E0;4.240418375E-1;-8.555516243E0;2.358863205E-1
3.382889062E0;5.741583109E-1;-8.411166191E0;-2.434998900E-1
3.394801562E0;5.104246736E-1;-8.104544640E0;-4.553771615E-1
3.406712500E0;6.891087294E-1;-7.575340271E0;-5.153950453E-1
3.418625000E0;8.132432699E-1;-7.722545624E0;-3.913753629E-1
3.430535937E0;7.606091499E-1;-8.759752274E0;-2.377442271E-1
3.442470312E0;1.149207234E0;-9.487847328E0;-1.283761382E0
3.454359375E0;1.815753102E0;-8.877019882E0;-2.257358551E0
3.466270312E0;2.179604530E0;-7.492826462E0;-1.312616348E0
3.478182812E0;2.050097466E0;-6.708936214E0;6.303262711E-1
3.490095312E0;1.756798267E0;-7.359028816E0;1.836065412E0
3.502006250E0;1.348625064E0;-8.651400566E0;2.169510841E0
3.513917187E0;1.045365930E0;-9.597856522E0;2.254246235E0
3.525829687E0;9.664147496E-1;-1.033665943E1;2.489682436E0
3.537740625E0;1.337506413E0;-1.055203247E1;2.539989471E0
3.549657812E0;2.054531574E0;-9.804198265E0;2.037350655E0
3.561564062E0;3.250827789E0;-8.708094597E0;2.979344428E-1
3.573476562E0;4.016196728E0;-7.892705917E0;-2.196201086E0
3.585387500E0;4.558646202E0;-7.480300426E0;-4.231512070E0
3.597298437E0;4.796706676E0;-7.757902622E0;-2.867114067E0
3.609210937E0;4.488036633E0;-8.678099632E0;-4.891449809E-1
3.621121875E0;3.368402243E0;-1.009650230E1;1.308919668E0
3.633032812E0;3.112740040E0;-1.082938576E1;2.230754375E0
3.644945312E0;3.367195845E0;-1.062138748E1;2.442995548E0
3.656856250E0;4.377673149E0;-9.783885956E0;1.908494711E0
3.668782812E0;5.257973671E0;-8.884537697E0;3.790212572E-1
3.680690625E0;5.578835011E0;-8.027748108E0;-2.559248209E0
3.692592187E0;5.451511383E0;-7.432463646E0;-4.378669262E0
3.704503125E0;4.661242485E0;-7.669509411E0;-4.209140778E0
3.716414062E0;3.765265226E0;-9.279523849E0;-2.214368343E0
3.728343750E0;3.344316721E0;-1.140763378E1;3.064674139E-1
3.740237500E0;3.225075960E0;-1.246522903E1;1.818836689E0
3.752153125E0;3.341185093E0;-1.169862461E1;1.785509348E0
3.764060937E0;3.675070763E0;-9.365342140E0;1.424358487E-1
3.775971875E0;3.381436586E0;-7.702759743E0;-1.258852005E0
3.787890625E0;2.125361681E0;-7.082699776E0;-2.589989901E0
3.799795312E0;1.501432657E0;-7.298120499E0;-3.695210934E0
3.811707812E0;1.629522443E0;-7.839373112E0;-1.889446497E0
3.823618750E0;1.995998025E0;-8.328738213E0;1.422184587E0
3.835529687E0;2.010190964E0;-8.919157982E0;3.445888519E0
3.847443750E0;2.291078568E0;-9.459596634E0;4.080974579E0
3.859357812E0;3.198232174E0;-9.952571869E0;3.722677231E0
3.871265625E0;4.556702137E0;-9.924224854E0;2.323821783E0
3.883176562E0;5.628643513E0;-9.432790756E0;-5.516240373E-3
3.895089062E0;5.580175400E0;-9.355888367E0;-3.135886908E0
3.907004687E0;4.150827408E0;-9.602635384E0;-5.929681301E0
3.918923437E0;2.375804663E0;-9.870077133E0;-4.909990788E0
3.930832812E0;2.003353119E0;-9.730179787E0;-1.431579351E0
3.942734375E0;1.791810989E0;-1.013144684E1;2.403041124E0
3.954646875E0;3.306890726E0;-9.505517006E0;1.310134983E1
3.966557812E0;7.744792461E0;-8.605440140E0;9.347605705E0
3.978470312E0;6.615370750E0;-9.447241783E0;-6.135659218E0
3.990381250E0;4.460139275E0;-1.028721428E1;-8.755978346E-1
4.002293750E0;3.201306105E0;-1.159141350E1;-1.590142608E0
4.014204687E0;4.266764164E0;-1.258685493E1;-5.508005023E-1
4.026117187E0;4.659815311E0;-1.171387100E1;2.458107710E0
4.038028125E0;3.261697531E0;-9.399971008E0;2.639923334E0
4.049939062E0;2.964146137E0;-8.061142921E0;1.839139581E0
4.061851562E0;3.627809286E0;-8.565812111E0;1.189056277E0
4.073762500E0;4.188827991E0;-9.806515694E0;8.727726936E-1
4.085678125E0;5.495861530E0;-1.056404209E1;1.570941091E0
4.097584375E0;5.799110889E0;-1.041370487E1;1.721067190E0
4.109496875E0;4.304966450E0;-1.013253880E1;2.093097448E0
4.121409375E0;4.755842313E-2;-1.035260487E1;1.165717602E0
4.133320312E0;-1.084343553E0;-1.063916206E1;-1.735288739E0
4.145231250E0;-5.112961531E-1;-1.210047722E1;-1.986172199E0
4.157143750E0;4.363671839E-1;-1.425117016E1;-1.203584313E0
4.169054687E0;1.833872318E0;-1.637754631E1;3.658244312E-1
4.180967187E0;3.570817947E0;-1.665429688E1;6.638517857E0
4.192878125E0;5.557947636E0;-1.476749325E1;5.187219620E0
4.204796875E0;5.971445084E0;-1.201702499E1;2.768070459E0
4.216701562E0;5.203203678E0;-9.421422958E0;8.219485879E-1
4.228612500E0;3.741007090E0;-7.821771145E0;-6.218029261E-1
4.240523437E0;1.501700759E0;-7.647970676E0;-1.532432795E0
4.252435937E0;-3.953784704E-1;-8.113767624E0;-1.158630848E0
4.264346875E0;-3.588238060E-1;-8.156604767E0;-4.892790690E-2
4.276268750E0;-1.430870593E-1;-8.108874321E0;4.089583755E-1
4.288170312E0;-5.308519602E-1;-8.842399597E0;3.159771860E-1
4.300082812E0;-1.451326728E0;-1.026043797E1;-1.504248142E0
4.311993750E0;-1.461602688E0;-1.080822182E1;-3.809385538E0
4.323907812E0;-9.986598492E-1;-1.026197910E1;-2.498033524E0
4.335817187E0;-9.104574323E-1;-9.498439789E0;3.707565069E-1
4.347728125E0;-9.257228971E-1;-8.873409271E0;2.476964474E0
4.359640625E0;-5.724632144E-1;-8.249432564E0;3.813541889E0
4.371551562E0;-3.529723883E-1;-7.882468700E0;4.542356014E0
4.383464062E0;-6.385335922E-1;-7.895349503E0;4.549203396E0
4.395375000E0;-1.031843543E0;-8.537148476E0;3.869681120E0
4.407287500E0;-1.272901297E0;-9.267322540E0;2.675127745E0
4.419198437E0;-1.664659619E0;-9.833139420E0;1.405109167E0
4.431109375E0;-2.417664766E0;-1.003075695E1;-6.356126815E-2
4.443023437E0;-3.499642849E0;-1.028575897E1;-5.678864479E0
4.454940625E0;-3.594022512E0;-1.010672092E1;-7.984327793E0
4.466853125E0;-2.500810862E0;-9.412459373E0;-4.302274704E0
4.478756250E0;-1.330199361E0;-9.060606956E0;4.200387746E-2
4.490668750E0;-1.039562374E-1;-8.700375557E0;2.954301357E0
4.502585937E0;7.542501092E-1;-8.598622322E0;3.605667830E0
4.514496875E0;8.217762113E-1;-8.683578491E0;2.983338118E0
4.526403125E0;5.315127373E-1;-8.884298325E0;1.873242497E0
4.538314062E0;-5.151364580E-2;-9.308933258E0;1.273906827E-1
4.550226562E0;-4.638718069E-1;-9.417142868E0;-2.175926924E0
4.562137500E0;-6.749254465E-1;-9.089117050E0;-4.195781231E0
4.574048437E0;-5.745509863E-1;-8.856736183E0;-4.155999184E0
4.585960937E0;3.751043677E-1;-8.676931381E0;-2.740719318E0
4.597871875E0;1.460281134E0;-8.505343437E0;-7.065576911E-1
4.609782812E0;2.258546114E0;-8.836089134E0;7.557058334E-1
4.621704687E0;3.302638531E0;-9.021448135E0;8.797637820E-1
4.633606250E0;4.487423420E0;-9.065587044E0;6.090753078E-1
4.645517187E0;5.000759125E0;-9.026523590E0;6.728377342E-1
4.657429687E0;4.559929848E0;-9.024608612E0;1.382393003E0
4.669342187E0;3.895088434E0;-9.355342865E0;1.994542360E0
4.681259375E0;3.703734398E0;-9.946011543E0;2.273198843E0
4.693164062E0;4.100338459E0;-9.983562469E0;1.752603531E0
4.705079687E0;4.385651112E0;-9.203943253E0;8.332779408E-1
4.716987500E0;4.426294804E0;-7.743020535E0;-4.863198102E-1
4.728898437E0;1.921097875E0;-6.845616341E0;-3.743344069E0
4.740810937E0;1.207348034E-1;-6.466547489E0;-5.233236313E0
4.752721875E0;-1.582596064E0;-6.029624462E0;-3.945874214E0
4.764634375E0;-2.360022068E0;-5.390688896E0;-2.003017902E0
4.776545312E0;-1.009366751E0;-4.170584679E0;3.631046414E-1
4.788457812E0;-2.103641331E-1;-2.928405523E0;1.393013597E0
4.800368750E0;4.020247757E-1;-4.397564411E0;2.269310474E0
4.812290625E0;9.915442467E-1;-6.704032898E0;2.917516947E0
4.824192187E0;1.464542747E0;-9.299777985E0;4.475079060E0
4.836103125E0;2.103919268E0;-1.291924572E1;5.729133129E0
4.848015625E0;2.686141014E0;-1.495883751E1;5.656589031E0
4.859926562E0;3.207885504E0;-1.425744247E1;5.329713345E0
4.871850000E0;2.989285469E0;-1.164287758E1;4.249430180E0
4.883750000E0;2.745363951E0;-1.049147892E1;3.771997690E0
4.895662500E0;4.640987873E0;-1.045131207E1;3.257780790E0
4.907573437E0;7.933713913E0;-1.093259525E1;-2.733364344E0
4.919484375E0;8.937832832E0;-1.066410923E1;-7.973994255E0
4.931395312E0;7.356998444E0;-9.978382111E0;-1.371707153E1
4.943307812E0;4.286300659E0;-9.733675003E0;-1.471478367E1
4.955220312E0;2.038404226E0;-9.837670326E0;-6.770735264E0
4.967131250E0;2.144342661E0;-9.935228348E0;-3.123762906E-1
4.979043750E0;3.168505669E0;-1.015703678E1;3.421735525E0
4.990954687E0;4.900480747E0;-1.045129395E1;5.525118828E0
5.002867187E0;6.129156113E0;-1.072617722E1;7.024300098E0
5.014776562E0;6.572504997E0;-1.085757065E1;7.868782997E0
5.026689062E0;6.053690910E0;-1.094609833E1;6.471412182E0
5.038601562E0;4.378304958E0;-1.124272060E1;3.936805010E0
5.050512500E0;3.109493494E0;-1.112213993E1;2.443407297E0
5.062423437E0;2.086671352E0;-1.190581894E1;1.579320788E0
5.074334375E0;1.464475751E0;-1.247133923E1;5.561156273E-1
5.086246875E0;6.671873927E-1;-1.204300690E1;2.990262210E-1
5.098165625E0;-3.243951797E-1;-1.116511059E1;1.283100545E-1
5.110070312E0;-5.516719222E-1;-1.001491737E1;-2.120305002E-1
5.121981250E0;-2.362119406E-1;-9.011833191E0;-3.512676954E-1
5.133892187E0;2.273629755E-1;-8.601255417E0;2.996582724E-2
5.145804687E0;7.496436834E-1;-9.136954308E0;8.110501766E-1
5.157740625E0;8.582734466E-1;-1.053809738E1;1.966032267E0
5.169628125E0;5.272319317E-1;-1.208285618E1;2.868100405E0
5.181539062E0;2.552123368E-1;-1.248194981E1;3.076357603E0
5.193450000E0;3.371706307E-1;-1.135112095E1;1.415413737E0
5.205362500E0;8.245438933E-1;-1.020669270E1;-5.049659014E-1
5.217275000E0;1.730471611E0;-9.547951698E0;-9.060041904E-1
5.229185937E0;3.038059950E0;-9.325559616E0;-1.887301356E-1
5.241096875E0;4.329865932E0;-9.322820663E0;6.706446409E-1
5.253009375E0;5.245830059E0;-9.364479065E0;1.289143562E0
5.264920312E0;5.499002457E0;-9.349195480E0;1.182314157E0
5.276832812E0;5.196241379E0;-9.252966881E0;6.277979612E-1
5.288743750E0;4.583047867E0;-9.226821899E0;4.525041208E-2
5.300654687E0;4.288781166E0;-9.175902367E0;-6.050339341E-1
5.312567187E0;3.436790228E0;-9.381669998E0;-1.311189294E0
5.324478125E0;2.494595528E0;-9.820076942E0;-1.403557658E0
5.336393750E0;1.681447864E0;-1.039675426E1;-9.053338766E-1
5.348301562E0;1.089974761E0;-1.093603325E1;6.857950985E-2
5.360212500E0;9.232329130E-1;-1.107452297E1;9.992248416E-1
5.372125000E0;9.358838797E-1;-1.072442341E1;1.633563876E0
5.384035937E0;7.720246911E-1;-1.005303192E1;1.734656572E0
5.395954687E0;5.359659791E-1;-9.484860420E0;2.126951456E0
5.407859375E0;-6.239864230E-1;-1.126764011E1;1.424886131E1
5.419773437E0;4.858793020E-1;-1.222812653E1;1.603715897E1
5.431682812E0;1.958619714E0;-1.153044605E1;-9.253522873E0
5.443595312E0;4.226244450E0;-9.907320976E0;-5.890157700E0
5.455506250E0;6.116792679E0;-8.729814529E0;-2.797691584E0
5.467418750E0;6.498466969E0;-7.406414986E0;-1.411726713E0
5.479329687E0;5.639771938E0;-6.954935551E0;-1.181500196E0
5.491242187E0;4.325067997E0;-6.995024204E0;-1.398223400E0
5.503153125E0;2.210815430E0;-7.593507767E0;-1.270526290E0
5.515065625E0;6.780379266E-2;-8.348321915E0;-5.177796483E-1
5.526979687E0;-8.050263524E-1;-8.712117195E0;-1.572224498E-1
5.538887500E0;-1.468019128E0;-8.887842178E0;-4.994687736E-1
5.550804687E0;-1.538255453E0;-8.783847809E0;-9.713180661E-1
5.562709375E0;-1.544346333E0;-8.801459312E0;-1.139544249E0
5.574634375E0;-2.060900211E0;-8.760824203E0;-1.220362902E0
5.586534375E0;-2.438379288E0;-8.712623596E0;-1.166828632E0
5.598445312E0;-1.856894851E0;-8.587292671E0;-1.101208210E0
5.610356250E0;-1.105575323E0;-8.504961014E0;-1.156523943E0
5.622267187E0;-2.201420665E-1;-8.411328316E0;-1.064806938E0
5.634179687E0;9.258377552E-1;-8.200313568E0;-1.063887477E0
5.646090625E0;1.859614730E0;-8.146022797E0;-1.086776018E0
5.658003125E0;2.444671392E0;-8.285872459E0;-9.933159947E-1
5.669914062E0;2.792098761E0;-8.476411819E0;-6.643430591E-1
5.681825000E0;2.553942919E0;-8.696381569E0;-2.940079570E-1
5.693737500E0;2.178886175E0;-9.115615845E0;-3.422271907E-1
5.705657812E0;9.496170282E-1;-9.007043839E0;-5.898163915E-1
5.717559375E0;3.933769166E-1;-9.182931900E0;-8.672277331E-1
5.729473437E0;3.578661084E-1;-9.428979874E0;-1.123196602E0
5.741382812E0;2.712439001E-1;-9.388996124E0;-1.427863598E0
5.753295312E0;1.462857276E-1;-9.307200432E0;-1.515146613E0
5.765206250E0;1.028223395E0;-9.087365150E0;-1.642364860E0
5.777118750E0;1.890145659E0;-9.068459511E0;-1.441261649E0
5.789029687E0;1.996745110E0;-9.249959946E0;-1.312625885E0
5.800940625E0;1.115889549E0;-9.612949371E0;-1.343980312E0
5.812854687E0;-1.481244713E-1;-1.010426903E1;-1.291834593E0
5.824764062E0;-1.072717309E0;-1.065392971E1;-1.282889843E0
5.836679687E0;-1.520624518E0;-1.104558182E1;-1.301641226E0
5.848587500E0;-1.716824532E0;-1.119687653E1;-1.228752255E0
5.860500000E0;-1.633056283E0;-1.106724548E1;-1.420661807E0
5.872410937E0;-1.601175070E0;-1.107747364E1;-1.533131838E0
5.884323437E0;-1.428160548E0;-1.082019234E1;-1.279968977E0
5.896234375E0;-8.305964470E-1;-1.047502518E1;-7.792073488E-1
5.908145312E0;-2.697116137E-1;-1.045560360E1;-2.374665141E-1
5.920057812E0;1.787223667E-1;-1.049526119E1;2.267117500E-1
5.931968750E0;5.195226669E-1;-1.045249081E1;5.458300710E-1
5.943881250E0;7.059543133E-1;-1.039520168E1;6.412342787E-1
5.955793750E0;8.930180669E-1;-1.023318195E1;6.113067269E-1
5.967704687E0;1.237007499E0;-9.808441162E0;4.630098939E-1
5.979615625E0;1.818108916E0;-8.970719337E0;5.436753109E-2
5.991526562E0;2.330630779E0;-7.983494282E0;-5.143798590E-1
6.003439062E0;2.620290995E0;-7.167090893E0;-1.192590237E0
6.015350000E0;2.817573309E0;-6.673406124E0;-1.939954638E0
6.027262500E0;3.079470158E0;-6.608283997E0;-2.305865288E0
6.039173437E0;3.050442934E0;-7.061525345E0;-1.519168854E0
6.051085937E0;2.813483953E0;-8.020307541E0;-4.713895917E-1
6.062998437E0;2.947185755E0;-9.277281761E0;5.640739202E-1
6.074907812E0;3.294488430E0;-1.047003555E1;1.007403493E0
6.086820312E0;3.868847847E0;-1.153370285E1;3.510857224E-1
6.098731250E0;4.439529896E0;-1.270230293E1;-1.897644281E0
6.110642187E0;4.499921322E0;-1.297451496E1;-4.557995319E0
6.122554687E0;3.909444094E0;-1.143536854E1;-6.187967300E0
6.134473437E0;3.520529985E0;-9.434534073E0;-5.803133488E0
6.146378125E0;3.708934546E0;-7.894592762E0;-4.169951916E0
6.158289062E0;3.902903080E0;-7.315425873E0;-3.081308842E0
6.170200000E0;3.520625830E0;-7.306414127E0;-1.894052982E0
6.182112500E0;2.557476521E0;-7.501158237E0;-5.053106546E-1
6.194023437E0;1.410117745E0;-7.395296574E0;-1.202463806E-1
6.205935937E0;7.974702716E-1;-6.911112309E0;-4.486542344E-1
6.217846875E0;4.686697721E-1;-5.832121849E0;3.289537430E-1
6.229765625E0;-3.773261979E-2;-4.944065094E0;1.464399099E0
6.241670312E0;-2.737913132E-1;-4.547431469E0;2.205739737E0
6.253581250E0;6.228755042E-2;-4.152800083E0;2.096899509E0
6.265493750E0;1.539146066E0;-4.421305180E0;1.366361380E0
6.277404687E0;2.992129564E0;-5.685271263E0;1.372595787E0
6.289320312E0;4.358558178E0;-8.142756462E0;1.734867334E0
6.301228125E0;5.775293350E0;-1.229699326E1;7.752425224E-2
6.313145312E0;9.616119385E0;-1.990094948E1;-1.355914974E1
6.325051562E0;1.018835258E1;-2.166524696E1;-1.397150803E1
6.336962500E0;5.290582657E0;-1.564673996E1;-3.072565079E0
6.348895312E0;3.075064659E0;-9.811199188E0;4.529637992E-1
6.360787500E0;2.362502337E0;-7.385921001E0;1.469235301E0
6.372698437E0;2.165143490E0;-7.029078960E0;1.601740122E0
6.384609375E0;3.160604715E0;-7.475780010E0;1.829112649E0
6.396521875E0;3.739359856E0;-8.423089027E0;2.829218388E0
6.408437500E0;4.256842613E0;-9.239368439E0;3.594481945E0
6.420343750E0;5.256536961E0;-9.881999969E0;4.062845230E0
6.432254687E0;5.142074585E0;-1.080514717E1;3.432844639E0
6.444167187E0;3.564037323E0;-1.132795525E1;1.864221245E-1
6.456078125E0;2.473162413E0;-1.081010818E1;-1.011425734E0
6.467990625E0;2.520337820E0;-9.768965721E0;-1.275439143E0
6.479901562E0;1.679800630E0;-9.129530907E0;-8.918880224E-1
6.491814062E0;4.147140384E-1;-8.970116615E0;-9.068278223E-2
6.503725000E0;2.181404978E-1;-8.771186829E0;1.149006128E0
6.515637500E0;1.298806548E0;-8.638002396E0;2.091114998E0
6.527548437E0;2.199275494E0;-9.284713745E0;1.238654613E0
6.539462500E0;2.813052893E0;-9.458858490E0;-4.465856552E-1
6.551371875E0;3.224798203E0;-9.296062469E0;-1.669965267E0
6.563284375E0;3.268152237E0;-9.062474251E0;-1.702583909E0
6.575195312E0;3.269675016E0;-8.816140175E0;-7.960050106E-1
6.587107812E0;3.317434549E0;-8.717259407E0;3.420643806E-1
6.599017187E0;3.529876947E0;-8.433461189E0;1.140645623E0
6.610929687E0;3.783796310E0;-8.118556023E0;1.312702537E0
6.622840625E0;4.233561516E0;-8.121304512E0;1.233971596E0
6.634753125E0;5.155894279E0;-8.616330147E0;1.164032102E0
6.646664062E0;5.979241371E0;-9.064725876E0;1.270516634E0
6.658584375E0;6.148329258E0;-9.112188339E0;1.850775361E0
6.670487500E0;6.153979301E0;-8.803049088E0;2.416678429E0
6.682400000E0;6.326103687E0;-8.658495903E0;2.493177891E0
6.694310937E0;6.664950371E0;-9.249854088E0;2.195109367E0
6.706228125E0;6.645624161E0;-1.058739948E1;2.226013899E0
6.718134375E0;6.088435650E0;-1.241600513E1;2.898822784E0
6.730045312E0;4.904282570E0;-1.372368813E1;2.938346148E0
6.741956250E0;3.742606401E0;-1.509820938E1;-1.000019670E0
6.753868750E0;2.939974308E0;-1.577585411E1;-8.058489799E0
6.765800000E0;1.679474950E0;-1.605649376E1;-1.226056385E1
6.777690625E0;9.441677928E-1;-1.557185936E1;-6.882506371E0
6.789603125E0;1.797269821E0;-1.379094601E1;-1.384633899E0
6.801514062E0;2.673260212E0;-1.155024242E1;1.113303781E0
6.813426562E0;3.138942242E0;-9.543930054E0;1.931143880E0
6.825339062E0;2.511153460E0;-7.989901543E0;2.165612698E0
6.837250000E0;1.163543701E0;-6.924395084E0;1.778968453E0
6.849167187E0;8.487924188E-2;-7.019933701E0;1.115583181E0
6.861073437E0;2.182554305E-1;-9.239607811E0;-5.549855232E-1
6.872985937E0;7.465887070E-1;-1.143503284E1;-2.204648018E0
6.884901562E0;1.490553379E0;-1.190499496E1;-1.456709027E0
6.896807812E0;1.492593288E0;-1.101810646E1;1.811836064E-1
6.908718750E0;9.359126091E-1;-9.693854332E0;1.302953243E0
6.920631250E0;1.463336051E-1;-8.446455956E0;1.966740966E0
6.932542187E0;-2.909433842E-1;-8.063182831E0;2.246192217E0
6.944460937E0;-1.571362466E-1;-8.277454376E0;2.028597593E0
6.956365625E0;-3.337517008E-2;-8.662030220E0;1.460022449E0
6.968276562E0;-2.982504964E-1;-9.404030800E0;5.538458824E-1
6.980189062E0;-8.996931314E-1;-1.052965164E1;-1.562034726E0
6.992100000E0;-1.072420359E0;-1.131224918E1;-4.313432217E0
7.004015625E0;-9.454127550E-1;-1.132166290E1;-3.233512878E0
7.015923437E0;-9.349548817E-1;-1.106294537E1;-9.040409327E-1
7.027835937E0;-8.589150906E-1;-1.092742348E1;5.579831004E-1
7.039746875E0;-7.169868350E-1;-1.109705734E1;1.486722708E0
7.051659375E0;-1.713578105E-1;-1.118819046E1;1.904405475E0
7.063585937E0;1.378198266E-1;-1.103899384E1;1.594595790E0
7.075481250E0;1.558242142E-1;-1.072868538E1;9.454319477E-1
7.087392187E0;1.154867113E-1;-1.023635197E1;4.329578578E-1
7.099304687E0;2.800928652E-1;-9.071448326E0;3.113611341E-1
7.111215625E0;4.563061297E-1;-7.902235031E0;2.084200382E-1
7.123146875E0;8.868793249E-1;-6.858736992E0;1.408652514E-1
7.135039062E0;1.362645507E0;-6.016973495E0;1.600571722E-1
7.146950000E0;1.632510424E0;-5.695547581E0;9.995312989E-2
7.158864062E0;1.941869974E0;-6.099430084E0;-2.757258415E-1
7.170775000E0;2.354496241E0;-6.565293789E0;-7.344644666E-1
7.182685937E0;2.618844986E0;-6.604740620E0;-1.175993562E0
7.194598437E0;2.724754810E0;-5.903182030E0;-1.508940816E0
7.206507812E0;2.701856613E0;-5.486389637E0;-2.074901342E0
7.218420312E0;1.589874387E0;-6.385815144E0;-3.069692135E0
7.230331250E0;3.493236005E-1;-8.137316704E0;-3.503377914E0
7.242250000E0;2.439021170E-1;-9.367035866E0;-2.061331034E0
7.254165625E0;6.465015411E-1;-9.921628952E0;3.370557129E-1
7.266065625E0;1.350942612E0;-1.005547428E1;1.941802979E0
7.277978125E0;1.796829224E0;-1.046341801E1;3.022478580E0
7.289889062E0;2.659766674E0;-1.073223972E1;3.319924593E0
7.301801562E0;3.837531805E0;-1.086662960E1;3.178063154E0
7.313715625E0;4.949944973E0;-1.108105469E1;2.839858294E0
7.325623437E0;5.523595810E0;-1.125496960E1;2.567599297E0
7.337535937E0;6.009925365E0;-1.109865761E1;1.757765412E0
7.349446875E0;6.260339260E0;-1.030481625E1;-1.775061190E-1
7.361359375E0;5.630626202E0;-9.000771523E0;-2.675213814E0
7.373270312E0;3.901629448E0;-7.678108692E0;-4.863025665E0
7.385189062E0;2.375536680E0;-6.501119614E0;-5.151823997E0
7.397093750E0;2.024019718E0;-5.812058449E0;-3.034641027E0
7.409006250E0;1.842654347E0;-6.967413902E0;-2.151621282E-1
7.420945312E0;1.580134749E0;-8.840044022E0;2.072909355E0
7.432828125E0;1.863608241E0;-9.903519630E0;3.455321550E0
7.444740625E0;2.498656034E0;-9.689420700E0;3.800459862E0
7.456651562E0;2.876566410E0;-8.550316811E0;3.589789391E0
7.468564062E0;2.936909676E0;-7.635837078E0;2.389336586E0
7.480476562E0;2.651204824E0;-7.124646664E0;1.099455714E0
7.492387500E0;2.302369595E0;-6.698306084E0;5.832467079E-1
7.504300000E0;2.480833530E0;-6.476229668E0;8.484954834E-1
7.516210937E0;3.171560764E0;-7.000751019E0;1.211638451E0
7.528121875E0;3.807901144E0;-8.157983780E0;1.498176455E0
7.540051562E0;3.959434986E0;-9.613668442E0;1.871461272E0
7.551943750E0;3.879880428E0;-1.078934574E1;2.130111456E0
7.563856250E0;3.694262743E0;-1.133019543E1;2.243175507E0
7.575768750E0;3.308911085E0;-1.027457333E1;2.079048157E0
7.587679687E0;2.679839611E0;-8.428221703E0;1.332363605E0
7.599612500E0;1.886401176E0;-6.987305164E0;4.472847581E-1
7.611503125E0;1.530871749E0;-6.316890717E0;-1.317481399E-1
7.623414062E0;2.095012665E0;-6.861398697E0;-5.812068582E-1
7.635325000E0;2.964509964E0;-8.442568779E0;-6.599760652E-1
7.647237500E0;3.784016609E0;-9.897773743E0;-2.100385278E-1
7.659148437E0;4.457792759E0;-1.065458107E1;1.765771657E-1
7.671059375E0;4.830579758E0;-1.017554855E1;2.496481985E-1
7.682971875E0;5.012300014E0;-9.158175468E0;-8.925583959E-2
7.694882812E0;4.659949780E0;-8.878456116E0;-5.480902195E-1
7.706795312E0;4.193884850E0;-9.499742508E0;-6.035878062E-1
7.718706250E0;4.039094925E0;-1.033821106E1;3.187065423E-1
7.730618750E0;4.071129322E0;-1.096266747E1;1.521993995E0
7.742529687E0;4.276551723E0;-1.094444180E1;2.145559072E0
7.754440625E0;4.779381752E0;-1.052228737E1;1.810610175E0
7.766353125E0;5.496139050E0;-1.068440247E1;3.237152100E-1
7.778264062E0;5.757767677E0;-1.150308609E1;-1.025474906E0
7.790176562E0;5.542797565E0;-1.223626614E1;-1.472031832E0
7.802093750E0;5.214638233E0;-1.224060535E1;-9.065501094E-1
7.813998437E0;5.051209927E0;-1.172217464E1;2.884534299E-1
7.825910937E0;4.944945812E0;-1.108336353E1;1.158381820E0
7.837823437E0;4.826998234E0;-1.081185055E1;1.524005175E0
7.849734375E0;4.883941174E0;-1.108635998E1;1.824151874E0
7.861645312E0;4.866847038E0;-1.138914108E1;2.205414057E0
7.873557812E0;4.811895370E0;-1.140328598E1;2.840097904E0
7.885471875E0;4.584599495E0;-1.111273575E1;3.508310080E0
7.897381250E0;4.415712357E0;-1.082898331E1;4.045252800E0
7.909292187E0;4.407026291E0;-1.094116688E1;4.137975693E0
7.921203125E0;4.248673916E0;-1.136326504E1;3.202503443E0
7.933115625E0;3.611930847E0;-1.158309937E1;6.468941569E-1
7.945026562E0;2.648963928E0;-1.139916801E1;-2.312760592E0
7.956954687E0;1.881852150E0;-1.099364758E1;-5.082287312E0
7.968854687E0;1.099905849E0;-1.064952469E1;-6.176714897E0
7.980767187E0;3.062088192E-1;-1.000548363E1;-3.549854279E0
7.992673437E0;7.707222104E-1;-9.075777054E0;7.269083858E-1
8.004584375E0;6.344347000E-1;-8.541027069E0;3.512437582E0
8.016503125E0;-1.556326896E-1;-8.228172302E0;5.697146416E0
8.028407812E0;-8.744869232E-1;-8.144949913E0;6.599731922E0
8.040320312E0;-1.164865375E0;-8.517535210E0;4.681746483E0
8.052239062E0;-1.209952831E0;-9.069657326E0;1.192159176E0
8.064142187E0;-8.236340880E-1;-9.287214279E0;-1.506383777E0
8.076054687E0;2.898037434E-1;-8.946528435E0;-1.834600091E0
8.087965625E0;5.540661812E-1;-9.439216614E0;-7.248876095E-1
8.099876562E0;1.198192596E0;-1.001164150E1;-4.468633831E-1
8.111790625E0;2.206620932E0;-1.041093731E1;1.220755503E-1
8.123700000E0;2.793200254E0;-1.040129280E1;7.195916772E-1
8.135612500E0;2.631610870E0;-1.009720135E1;1.243902683E0
8.147523437E0;1.852125764E0;-9.872826576E0;1.335370779E0
8.159437500E0;7.325969934E-1;-1.000123119E1;9.842945933E-1
8.171346875E0;-1.915073991E-1;-1.042214203E1;1.201601923E-1
8.183259375E0;-7.353742719E-1;-1.056406021E1;-8.801564574E-1
8.195192187E0;-7.920210361E-1;-1.041787148E1;-1.545485973E0
8.207082812E0;-2.406843156E-1;-1.006163311E1;-1.574293017E0
8.219009375E0;1.066952050E-1;-9.658306122E0;-1.202042460E0
8.230904687E0;4.654327929E-1;-9.195477486E0;-6.327012777E-1
8.242817187E0;9.343898892E-1;-8.896767616E0;5.063257739E-2
8.254734375E0;1.419608355E0;-8.862942696E0;5.756906271E-1
8.266640625E0;1.573555589E0;-8.797015190E0;8.342835307E-1
8.278553125E0;1.538207531E0;-8.832507133E0;6.932841539E-1
8.290462500E0;1.658530474E0;-8.972098351E0;2.084870934E-1
8.302375000E0;1.691206694E0;-9.035564423E0;-4.877371788E-1
8.314295312E0;1.756865263E0;-9.020375252E0;-8.735197186E-1
8.326196875E0;1.711394548E0;-8.875593185E0;-8.757032156E-1
8.338109375E0;1.546338201E0;-8.775276184E0;-5.686420202E-1
8.350020312E0;1.398510575E0;-8.670639992E0;-2.851494253E-1
8.361932812E0;1.470595360E0;-8.955310822E0;-2.925906181E-1
8.373851562E0;1.669543862E0;-9.588538170E0;-6.066619754E-1
8.385756250E0;1.908150077E0;-9.907580376E0;-9.777153134E-1
8.397667187E0;1.916204095E0;-9.721024513E0;-1.137092471E0
8.409579687E0;1.769822598E0;-9.229561806E0;-1.006464958E0
8.421490625E0;1.452792048E0;-8.964217186E0;-7.906516194E-1
8.433403125E0;8.916294575E-1;-8.965384483E0;-4.247026443E-1
8.445314062E0;2.186768055E-1;-9.265924454E0;5.509537086E-2
8.457225000E0;-3.359543681E-1;-9.845512390E0;5.734591931E-2
8.469137500E0;-7.013382912E-1;-1.022230244E1;-5.296453238E-1
8.481048437E0;-6.957646012E-1;-1.015179825E1;-1.426781416E0
8.492978125E0;-4.781891108E-1;-9.701975822E0;-2.098297596E0
8.504871875E0;1.346116066E-1;-9.208779335E0;-1.583888888E0
8.516782812E0;7.545278668E-1;-8.728216171E0;-6.069875956E-1
8.528695312E0;1.339776158E0;-8.284723282E0;1.383561194E-1
8.540606250E0;1.919048429E0;-8.057312965E0;4.824508131E-1
8.552518750E0;2.439356327E0;-8.154507637E0;6.744657755E-1
8.564429687E0;2.980742931E0;-8.385375023E0;7.196491957E-1
8.576350000E0;3.784687042E0;-8.390068054E0;6.798288226E-1
8.588253125E0;4.498005867E0;-8.167780876E0;6.467983723E-1
8.600164062E0;4.867469788E0;-8.111363411E0;7.616817355E-1
8.612079687E0;4.567935467E0;-8.022328377E0;8.521059752E-1
8.623987500E0;3.641178370E0;-8.033255577E0;1.007901430E0
8.635898437E0;3.207933426E0;-7.695136547E0;1.067383051E0
8.647810937E0;3.281665325E0;-6.609941006E0;1.144562483E0
8.659721875E0;2.730539083E0;-5.304698944E0;4.910028875E-1
8.671632812E0;1.053621054E0;-5.039717674E0;-1.714037776E0
8.683545312E0;3.492086828E-1;-5.756915569E0;-3.491061926E0
8.695456250E0;3.345082700E-1;-6.857549191E0;-3.217960119E0
8.707367187E0;7.334780097E-1;-7.977288723E0;-1.639223814E0
8.719279687E0;1.191278219E0;-9.198916435E0;8.265167475E-1
8.731192187E0;2.136595249E0;-1.046679878E1;2.390294552E0
8.743103125E0;3.509047270E0;-1.173206711E1;2.934237719E0
8.755017187E0;5.176513195E0;-1.287385273E1;2.843258142E0
8.766926562E0;6.705881119E0;-1.346952915E1;2.170497179E0
8.778837500E0;6.868122101E0;-1.292992496E1;2.760418653E-1
8.790748437E0;5.908487797E0;-1.116557980E1;-1.012402534E0
8.802660937E0;3.665292978E0;-9.016802788E0;-7.913794518E-1
8.814571875E0;2.817553997E0;-7.070642471E0;1.868626624E-1
8.826484375E0;3.570434570E0;-5.786047935E0;1.566574097E0
8.838395312E0;4.874058723E0;-6.391762257E0;2.992167950E0
8.850307812E0;5.691007614E0;-8.706073761E0;3.549911737E0
8.862218750E0;5.712938786E0;-1.055415821E1;3.074097395E0
8.874129687E0;4.740873337E0;-1.122837543E1;1.982494712E0
8.886042187E0;3.415663719E0;-1.056427193E1;1.342352271E0
8.897953125E0;2.115698576E0;-9.360821724E0;9.742198586E-1
8.909871875E0;8.769769073E-1;-8.516989708E0;5.881116986E-1
8.921776562E0;2.111207098E-1;-7.593229771E0;2.407609224E-1
8.933703125E0;5.401319265E-2;-6.694571018E0;2.168572098E-1
8.945600000E0;4.265414178E-1;-6.145618439E0;2.705735266E-1
8.957512500E0;1.433925629E0;-7.251682758E0;2.927151024E-1
8.969429687E0;3.006217003E0;-9.528213501E0;-1.684560440E-2
8.981335937E0;3.905996323E0;-1.084635639E1;-2.559114397E-1
8.993246875E0;4.430508614E0;-1.091881466E1;-2.224979550E-1
9.005159375E0;4.880302429E0;-1.040508556E1;-7.497107387E-1
9.017070312E0;5.277079105E0;-9.535923958E0;-6.154534817E-1
9.028982812E0;6.075506687E0;-8.490758896E0;-6.578786969E-1
9.040901562E0;6.685358047E0;-8.176447868E0;-1.206294522E-1
9.052810937E0;6.855116844E0;-8.566137314E0;7.209228277E-1
9.064715625E0;7.490317345E0;-9.354194641E0;1.710829496E0
9.076628125E0;8.556953430E0;-1.059620953E1;2.404707432E0
9.088545312E0;8.936127663E0;-1.173709488E1;2.861013651E0
9.100451562E0;7.738155842E0;-1.231915474E1;3.021942139E0
9.112362500E0;6.243005276E0;-1.196457291E1;2.680730343E0
9.124273437E0;4.655697823E0;-1.132337666E1;2.109435320E0
9.136185937E0;2.569687128E0;-1.159885311E1;9.777919650E-1
9.148100000E0;2.073378675E-2;-1.249389267E1;-1.404898405E0
9.160009375E0;-1.895039439E0;-1.407315636E1;-4.882658005E0
9.171921875E0;-2.454181194E0;-1.525940609E1;-3.686275721E0
9.183831250E0;-2.931000948E0;-1.528630733E1;1.594251096E-1
9.195743750E0;-5.217913628E0;-1.496687317E1;3.921980143E0
9.207657812E0;-6.646725178E0;-1.317350101E1;4.697787762E0
9.219565625E0;-5.629869461E0;-1.072944260E1;2.781669617E0
9.231478125E0;-3.081739664E0;-8.383651733E0;9.521165490E-1
9.243389062E0;-1.255787492E0;-7.227826595E0;8.537914753E-1
9.255301562E0;2.250262350E-1;-7.926109791E0;1.832349658E0
9.267218750E0;4.419696331E-1;-1.008524895E1;1.852805614E0
9.279125000E0;-2.353979088E-2;-1.116866398E1;1.779265404E0
9.291035937E0;-3.528957665E-1;-1.134618855E1;1.831449389E0
9.302946875E0;-8.508801460E-1;-1.116840553E1;1.172421336E0
9.314859375E0;-1.455923557E0;-1.057718086E1;4.258805886E-2
9.326770312E0;-2.046649694E0;-1.009998703E1;-7.284693718E-1
9.338684375E0;-2.505043745E0;-1.004073620E1;-7.414938211E-1
9.350593750E0;-2.053822756E0;-1.004180813E1;-4.090445936E-1
9.362506250E0;-1.364771605E0;-1.003278732E1;-2.970725484E-2
9.374417187E0;-1.257176161E0;-9.916199684E0;2.290006131E-1
9.386328125E0;-1.464944959E0;-9.603468895E0;6.525444388E-1
9.398240625E0;-1.548607945E0;-9.149144173E0;1.162863731E0
9.410151562E0;-1.433580875E0;-8.777172089E0;1.773375630E0
9.422064062E0;-1.235762477E0;-8.483307838E0;2.274932146E0
9.433975000E0;-1.060095072E0;-8.273719788E0;2.012068033E0
9.445887500E0;-8.895129561E-1;-8.159324646E0;1.331674218E0
9.457798437E0;-7.829231024E-1;-8.083189011E0;5.831413865E-1
9.469710937E0;-9.042037725E-1;-8.072472572E0;1.313458979E-1
9.481621875E0;-8.553524613E-1;-8.107590675E0;-3.256593049E-1
9.493534375E0;-7.370406389E-1;-8.319908142E0;-7.247440219E-1
9.505451562E0;-2.652296722E-1;-8.372407913E0;-1.062498808E0
9.517356250E0;5.027823448E-1;-8.116592407E0;-1.031039119E0
9.529268750E0;1.411784172E0;-7.886826038E0;-4.970745742E-1
9.541179687E0;2.213219166E0;-7.938368320E0;2.015343159E-1
9.553090625E0;2.721642256E0;-8.312084198E0;4.997369349E-1
9.565007812E0;2.830348730E0;-8.948864937E0;5.022268891E-1
9.576914062E0;2.705955505E0;-9.642609596E0;1.510453969E-1
9.588826562E0;2.343684196E0;-1.033387184E1;-6.736996174E-1
9.600737500E0;2.031939745E0;-1.086850739E1;-1.958294153E0
9.612650000E0;1.894857407E0;-1.091476345E1;-3.934774637E0
9.624560937E0;2.157137394E0;-1.030383968E1;-5.804358959E0
9.636482812E0;2.406527042E0;-9.598833084E0;-5.096316814E0
9.648387500E0;2.031001329E0;-9.495068550E0;-3.508348227E0
9.660295312E0;1.235446453E0;-9.627554893E0;-2.216666698E0
9.672207812E0;6.737666726E-1;-9.793951035E0;-1.720597863E0
9.684121875E0;3.043892086E-1;-1.015498734E1;-1.795680046E0
9.696031250E0;-6.481582671E-2;-1.066963577E1;-2.434060335E0
9.707940625E0;-4.292516410E-1;-1.067841721E1;-2.933653593E0
9.719853125E0;-2.399756312E-1;-9.860596657E0;-2.903898478E0
9.731767187E0;3.392296433E-1;-8.626317978E0;-2.202406883E0
9.743676562E0;1.229211926E0;-7.535682678E0;-7.769280672E-1
9.755587500E0;2.137868881E0;-6.852032661E0;5.342804790E-1
9.767498437E0;2.639157295E0;-6.848154068E0;1.010937333E0
9.779410937E0;2.829927206E0;-7.427139282E0;1.183003783E0
9.791321875E0;3.048834085E0;-8.210033417E0;1.021241903E0
9.803234375E0;3.160154819E0;-8.960807800E0;3.863092363E-1
9.815145312E0;2.955402613E0;-9.465208054E0;-9.947908521E-1
9.827056250E0;2.593140602E0;-9.627324104E0;-2.849961996E0
9.838968750E0;2.134478807E0;-9.428356171E0;-4.221054077E0
9.850881250E0;1.143805861E0;-9.440681458E0;-4.125075817E0
9.862792187E0;-1.915361281E-5;-9.705729485E0;-2.738296270E0
9.874703125E0;-9.404041171E-1;-1.026517773E1;-1.036239266E0
9.886615625E0;-1.471428514E0;-1.063404751E1;5.950070173E-2
9.898526562E0;-1.458145499E0;-1.052927780E1;2.207741290E-1
9.910439062E0;-1.014270067E0;-9.977902412E0;-6.931788325E-1
9.922376562E0;-2.032294124E-1;-9.489791870E0;-1.684138894E0
9.934262500E0;8.899534941E-1;-9.288869858E0;-1.421064138E0
9.946173437E0;2.068829536E0;-9.039260864E0;-7.723790407E-1
9.958084375E0;2.966348886E0;-8.877901077E0;-8.314583451E-2
9.969996875E0;3.516162872E0;-8.872940063E0;3.894217014E-1
9.981909375E0;3.667256117E0;-9.057427406E0;6.742358804E-1
9.993820312E0;3.573882341E0;-9.372811317E0;1.014040112E0
1.000573125E1;3.449900866E0;-9.698987007E0;1.342361808E0
1.001764375E1;3.510254145E0;-9.861955643E0;1.449871063E0
1.002955469E1;3.510052919E0;-9.937009811E0;1.028568268E0
1.004146719E1;3.137400150E0;-9.808076859E0;2.807728350E-1
1.005337812E1;2.517445564E0;-9.528626442E0;-4.534522295E-1
1.006528906E1;1.960496783E0;-9.398870468E0;-5.807471275E-1
1.007720156E1;1.550858498E0;-9.430167198E0;6.862739474E-2
1.008911250E1;1.545935988E0;-9.393630981E0;9.984874129E-1
1.010102500E1;2.120238066E0;-9.297183990E0;1.732789040E0
1.011293594E1;2.863618374E0;-9.258482933E0;1.913896084E0
1.012484844E1;2.930349588E0;-9.286993027E0;1.889389038E0
1.013675938E1;3.093969584E0;-9.134301186E0;2.049130201E0
1.014867031E1;3.550811768E0;-8.931895256E0;2.228858232E0
1.016058281E1;4.397372723E0;-9.055560112E0;2.193567514E0
1.017249375E1;5.248693466E0;-9.590013504E0;2.142322063E0
1.018440469E1;5.972010612E0;-1.012845993E1;2.088940859E0
1.019631875E1;6.208739758E0;-1.040570831E1;1.720071197E0
1.020822812E1;5.444261074E0;-1.013402367E1;1.213821888E0
1.022013906E1;4.268401623E0;-9.644045830E0;1.250740647E0
1.023205156E1;3.485201120E0;-9.173690796E0;2.216532707E0
1.024396406E1;3.052932978E0;-9.070519447E0;2.841572762E0
1.025587344E1;2.457044601E0;-9.178172112E0;2.911588669E0
1.026778594E1;2.138184786E0;-9.348898888E0;2.520308971E0
1.027969688E1;1.954444289E0;-9.422217369E0;2.088510036E0
1.029161094E1;1.855276465E0;-9.185881615E0;1.745641232E0
1.030352031E1;1.920609474E0;-8.796450615E0;1.684761524E0
1.031543125E1;2.181012392E0;-8.565888405E0;1.750199676E0
1.032734375E1;2.397563219E0;-8.728014946E0;1.886573434E0
1.033925469E1;2.508615732E0;-8.851009369E0;1.832292080E0
1.035116719E1;2.700707436E0;-8.781692505E0;1.564476728E0
1.036308438E1;2.807402611E0;-8.582505226E0;1.169366479E0
1.037499062E1;2.850804806E0;-8.501992226E0;9.428749681E-1
1.038690156E1;2.987963676E0;-8.737112045E0;1.138395071E0
1.039882188E1;3.017929554E0;-8.996931076E0;1.550494671E0
1.041072500E1;3.064147234E0;-8.947591782E0;1.718012094E0
1.042263594E1;3.078646421E0;-8.802158356E0;1.592709064E0
1.043454844E1;3.238138676E0;-8.753871918E0;1.404448271E0
1.044646094E1;3.531782627E0;-9.017655373E0;1.293108344E0
1.045837344E1;3.714565754E0;-9.466156006E0;1.496404767E0
1.047028281E1;3.658838034E0;-9.812099457E0;1.958284616E0
1.048219531E1;3.464773655E0;-9.773955345E0;2.412675381E0
1.049410625E1;3.262703180E0;-9.436391830E0;2.600093603E0
1.050601875E1;3.010919333E0;-9.237596512E0;2.449019194E0
1.051793281E1;2.876240730E0;-9.363311768E0;1.936861277E0
1.052984219E1;2.805774689E0;-9.723839760E0;1.412052274E0
1.054175313E1;2.687970161E0;-1.008234787E1;1.155135274E0
1.055366406E1;2.670885324E0;-1.005713177E1;1.037350059E0
1.056557500E1;2.891324282E0;-9.779719353E0;9.829730392E-1
1.057748750E1;3.047885656E0;-9.295229912E0;1.025292993E0
1.058939844E1;3.005747795E0;-8.955818176E0;1.281012774E0
1.060131094E1;2.883337259E0;-8.925832748E0;1.540170789E0
1.061322188E1;2.739828587E0;-9.138371468E0;1.762678385E0
1.062513438E1;2.641235352E0;-9.422266006E0;1.845239997E0
1.063704531E1;2.572952986E0;-9.538068771E0;1.789713621E0
1.064896250E1;2.589262247E0;-9.428701401E0;1.484816909E0
1.066086875E1;2.609373331E0;-9.224743843E0;1.001973391E0
1.067277969E1;2.710868359E0;-8.992966652E0;5.505418777E-1
1.068469219E1;2.786496401E0;-8.844507217E0;2.012374401E-1
1.069660313E1;3.055604696E0;-8.993282318E0;-1.381933223E-2
1.070851406E1;3.444633722E0;-9.733865738E0;-1.008150503E-1
1.072043125E1;3.845442295E0;-1.033563519E1;-1.688008010E-1
1.073233750E1;4.093357086E0;-1.029832363E1;3.230256960E-2
1.074425000E1;3.794982195E0;-9.834949493E0;6.462812424E-1
1.075616094E1;3.039237976E0;-9.559329033E0;1.182007790E0
1.076807500E1;2.468488932E0;-9.285987854E0;1.693265676E0
1.077998281E1;2.183770418E0;-8.914705276E0;2.089237690E0
1.079189531E1;2.006695271E0;-8.605834007E0;2.374559641E0
1.080380781E1;1.876326323E0;-8.595873833E0;2.632654428E0
1.081572500E1;1.825971484E0;-8.978763580E0;2.564257145E0
1.082762969E1;1.768951178E0;-9.275759697E0;2.297945261E0
1.083954219E1;1.860304356E0;-9.280663490E0;1.984199405E0
1.085145469E1;1.814555883E0;-9.193763733E0;1.744099379E0
1.086336562E1;1.747039437E0;-8.865853310E0;1.610215545E0
1.087529688E1;2.017727852E0;-8.163624763E0;1.272106409E0
1.088718906E1;2.241652727E0;-7.512803555E0;8.692963123E-1
1.089910000E1;1.858599663E0;-7.951210976E0;4.238311648E-1
1.091101250E1;1.067708611E0;-9.691871643E0;3.407906890E-1
1.092292344E1;4.593898356E-1;-1.135245228E1;3.874297142E-1
1.093484219E1;3.450427949E-1;-1.183802509E1;4.336473942E-1
1.094674688E1;2.001935691E-1;-1.109121609E1;4.577809572E-1
1.095865781E1;2.905124128E-1;-9.918909073E0;5.251058936E-1
1.097057031E1;1.055737495E0;-8.876014709E0;7.872135043E-1
1.098248281E1;2.124154806E0;-8.155273438E0;1.155336380E0
1.099441875E1;3.274530411E0;-7.860087395E0;1.271905303E0
1.100630469E1;4.625904083E0;-7.803096294E0;1.159521461E0
1.101821562E1;5.525960922E0;-8.322072029E0;6.914741993E-1
1.103012813E1;5.628758907E0;-9.077874184E0;2.435190380E-1
1.104203906E1;5.769767761E0;-9.459260941E0;2.632281184E-1
1.105395156E1;6.176226616E0;-9.387808800E0;5.263987184E-1
1.106586250E1;6.199948311E0;-8.872662544E0;5.333610773E-1
1.107777344E1;5.686573505E0;-8.202927589E0;1.257434785E-1
1.108968594E1;4.714231014E0;-7.918257236E0;-2.054608166E-1
1.110159844E1;4.117567539E0;-8.198464394E0;5.138914585E-1
1.111350938E1;3.283676386E0;-8.993578911E0;1.365010977E0
1.112542188E1;2.483869314E0;-9.899181366E0;1.927945256E0
1.113733594E1;2.111628532E0;-1.039646721E1;2.003084898E0
1.114924375E1;1.776239157E0;-1.047764969E1;1.851235151E0
1.116115625E1;1.664496899E0;-1.001733017E1;1.355893970E0
1.117307031E1;1.810026050E0;-9.422285080E0;6.941173673E-1
1.118497812E1;2.161408663E0;-9.298026085E0;9.207142144E-2
1.119688906E1;2.663405657E0;-9.149154663E0;4.176924229E-1
1.120880156E1;3.114109278E0;-9.146147728E0;9.969168901E-1
1.122071250E1;3.309275150E0;-9.275529861E0;1.687366366E0
1.123262500E1;3.339001417E0;-9.176314354E0;2.115507126E0
1.124453594E1;3.248998880E0;-8.730945587E0;2.092484474E0
1.125644688E1;3.284509420E0;-8.254249573E0;1.765953660E0
1.126835938E1;3.445486069E0;-8.296521187E0;1.301784873E0
1.128027031E1;3.565263271E0;-8.993435860E0;1.059300184E0
1.129218125E1;3.180179834E0;-9.689947128E0;1.048545361E0
1.130409375E1;2.690392971E0;-1.016533947E1;1.155901313E0
1.131600469E1;2.241154671E0;-1.015312958E1;1.062450886E0
1.132791719E1;1.922524810E0;-9.642129898E0;7.991175056E-1
1.133982812E1;1.929764867E0;-9.168576241E0;6.044880152E-1
1.135174688E1;2.233550787E0;-8.963680267E0;8.569518328E-1
1.136365156E1;2.505877018E0;-9.000723839E0;1.460415125E0
1.137556406E1;2.777551651E0;-8.910155296E0;1.853543043E0
1.138747500E1;3.160959244E0;-8.813957214E0;1.849281430E0
1.139938594E1;3.913705826E0;-8.835178375E0;1.400828242E0
1.141129844E1;4.230296135E0;-8.850406647E0;8.723896742E-1
1.142320938E1;2.772169352E0;-8.810777664E0;1.501537919E0
1.143512188E1;2.045213223E0;-9.076427460E0;2.491406202E0
1.144703281E1;1.297724366E0;-9.237155914E0;3.047311306E0
1.145894531E1;1.183731556E0;-8.999871254E0;3.099801779E0
1.147085625E1;1.609679341E0;-8.968956947E0;2.762707710E0
1.148278281E1;2.215575218E0;-9.515151024E0;2.192868471E0
1.149467969E1;2.695459127E0;-1.034459877E1;2.010717630E0
1.150659063E1;2.575720549E0;-1.114554501E1;2.049714327E0
1.151850312E1;2.263095140E0;-1.128946590E1;1.882838488E0
1.153041406E1;2.329615831E0;-1.054913044E1;7.708563209E-1
1.154232500E1;2.091162920E0;-9.603267670E0;5.104437936E-3
1.155423750E1;1.630336404E0;-9.118460655E0;-1.083136797E-1
1.156614844E1;1.384806275E0;-8.767040253E0;-3.793372959E-2
1.157806094E1;1.390887618E0;-8.483249664E0;9.469546378E-2
1.158997188E1;2.191297770E0;-8.683041573E0;3.581247032E-1
1.160188281E1;3.191940069E0;-9.217944145E0;6.188340783E-1
1.161379531E1;3.734159708E0;-9.763429642E0;9.420608878E-1
1.162570625E1;3.805478334E0;-9.998645782E0;1.228742719E0
1.163761875E1;3.596952915E0;-9.592043877E0;1.220516086E0
1.164954688E1;3.646129847E0;-8.746420860E0;7.217560410E-1
1.166144219E1;3.907624483E0;-8.232664108E0;5.362053961E-2
1.167335312E1;3.975035667E0;-8.293562889E0;-1.991592646E-1
1.168526406E1;3.871883869E0;-8.537693977E0;-2.344402298E-2
1.169717656E1;3.835645199E0;-8.674068451E0;4.711022973E-1
1.170908750E1;3.909108877E0;-8.785082817E0;9.374544621E-1
1.172099844E1;3.978923798E0;-8.876579285E0;1.129479051E0
1.173291094E1;3.784294367E0;-9.018363953E0;7.964455485E-1
1.174482344E1;3.235485792E0;-8.890072823E0;2.543504238E-1
1.175673438E1;2.619151354E0;-8.671789169E0;-3.180266023E-1
1.176864531E1;2.297341824E0;-8.342816353E0;-5.304306149E-1
1.178055781E1;2.437508106E0;-8.269495964E0;-2.543695569E-1
1.179246875E1;3.088491440E0;-8.266221046E0;1.867285818E-1
1.180437969E1;4.033789158E0;-8.468511581E0;7.857291102E-1
1.181629219E1;4.977411270E0;-8.906602859E0;1.362798691E0
1.182822188E1;5.797684193E0;-9.330520630E0;1.235341072E0
1.184011406E1;5.930227280E0;-9.665123940E0;7.607336640E-1
1.185202812E1;5.559719086E0;-9.940552711E0;5.645431876E-1
1.186393906E1;5.064990997E0;-1.022177601E1;2.797481120E-1
1.187585000E1;4.349335670E0;-1.017512703E1;2.625002861E-1
1.188776406E1;3.773415089E0;-9.982212067E0;4.869423211E-1
1.189967344E1;3.015477896E0;-9.865039825E0;6.031472683E-1
1.191158594E1;2.203661680E0;-9.864953995E0;7.212101221E-1
1.192349688E1;1.523765802E0;-9.727190971E0;9.525858164E-1
1.193540781E1;9.660986662E-1;-9.492186546E0;1.040769100E0
1.194732031E1;6.606177092E-1;-9.205044746E0;1.589587212E0
1.195923125E1;8.099201322E-1;-8.978055954E0;1.900344968E0
1.197114375E1;1.289919257E0;-8.995322227E0;1.213218570E0
1.198305781E1;1.915945530E0;-9.196894646E0;-1.803504229E-1
1.199496562E1;2.681017637E0;-9.230586052E0;-7.730398774E-1
1.200688438E1;3.314226389E0;-8.890868187E0;-4.047158360E-1
1.201880000E1;3.410904408E0;-8.534916878E0;1.620682925E-1
1.203070156E1;3.312186480E0;-8.329437256E0;-4.590833783E-1
1.204261250E1;3.148834944E0;-8.373059273E0;-9.469163418E-1
1.205452344E1;3.475768089E0;-8.705777168E0;-6.563464403E-1
1.206643594E1;4.002741337E0;-9.297460556E0;1.679484546E-1
1.207834688E1;4.503100395E0;-9.776521683E0;-1.143374965E-1
1.209025781E1;4.813446999E0;-9.675390244E0;-8.460438251E-1
1.210217031E1;4.663186550E0;-9.409825325E0;-1.216857791E0
1.211408125E1;3.942752123E0;-9.279666901E0;-1.378140688E0
1.212600000E1;3.038031340E0;-9.382034302E0;-1.981537104E0
1.213790469E1;2.801704407E0;-9.526902199E0;-2.442928553E0
1.214981562E1;3.340677500E0;-9.814540863E0;-1.405587912E0
1.216172813E1;3.793660402E0;-1.066462708E1;-3.010564744E-1
1.217363906E1;4.112625599E0;-1.142234421E1;-8.057925105E-2
1.218555156E1;4.077430725E0;-1.130047894E1;-6.294069290E-1
1.219746250E1;3.729160547E0;-1.044100761E1;-1.554200768E0
1.220937344E1;3.283772230E0;-9.784901619E0;-2.481283665E0
1.222128594E1;3.162778854E0;-9.472438812E0;-2.917306185E0
1.223319688E1;3.491454840E0;-9.143025398E0;-2.727665901E0
1.224510938E1;3.842358589E0;-8.650940895E0;-2.293290854E0
1.225702031E1;3.894753218E0;-8.178028107E0;-1.662955046E0
1.226893125E1;3.824421167E0;-7.865708828E0;-1.352197289E0
1.228084375E1;3.830531359E0;-7.648363113E0;-1.240263581E0
1.229275469E1;3.846227646E0;-7.465590477E0;-1.300616622E0
1.230467500E1;3.834783316E0;-7.335566044E0;-1.268783212E0
1.231657969E1;3.635652781E0;-7.436399937E0;-1.280773401E0
1.232849062E1;3.346280098E0;-7.707519531E0;-1.380831957E0
1.234040156E1;3.071971416E0;-8.069887161E0;-1.608472586E0
1.235231406E1;2.988164902E0;-8.695960999E0;-2.121569157E0
1.236422812E1;3.131931782E0;-9.526978493E0;-2.920380116E0
1.237613750E1;3.643237591E0;-1.037502480E1;-3.923876286E0
1.238805625E1;4.829315662E0;-1.082010651E1;-4.835846901E0
1.239995938E1;6.270854950E0;-1.085651779E1;-6.705335617E0
1.241187188E1;6.287460804E0;-1.068618488E1;-6.191865444E0
1.242378906E1;5.039268017E0;-1.057918262E1;-3.795537710E0
1.243569531E1;4.156908512E0;-1.015919113E1;-2.666834116E0
1.244760625E1;3.900930166E0;-9.642887115E0;-2.828912020E0
1.245951719E1;3.948632240E0;-9.127663612E0;-3.356488705E0
1.247142969E1;4.118984222E0;-8.498985291E0;-3.659796000E0
1.248334062E1;4.298626423E0;-8.077155113E0;-3.759528875E0
1.249525313E1;4.572810650E0;-7.674106121E0;-3.535498619E0
1.250716406E1;4.800020218E0;-7.319275856E0;-2.869374037E0
1.251907656E1;4.787416935E0;-7.118900299E0;-2.048794985E0
1.253098750E1;4.507573128E0;-7.179703236E0;-1.424942613E0
1.254290000E1;4.083789825E0;-7.409019947E0;-6.523720622E-1
1.255481094E1;3.434903860E0;-7.563522339E0;3.856867254E-1
1.256672500E1;2.643811464E0;-7.678492069E0;1.069767594E0
1.257863438E1;1.980416656E0;-7.793509960E0;8.343409896E-1
1.259054531E1;1.499536395E0;-7.875946999E0;3.747404516E-1
1.260246094E1;1.141612768E0;-7.832573414E0;-8.848011494E-2
1.261436875E1;7.423366308E-1;-7.744687080E0;-7.428441644E-1
1.262628594E1;4.142830670E-1;-7.657250881E0;-1.029525876E0
1.263819219E1;2.198739052E-1;-7.482617855E0;-7.056670189E-1
1.265010313E1;1.864029765E-1;-7.608064651E0;-4.317415953E-1
1.266203438E1;4.507036805E-1;-7.962176323E0;-8.236150146E-1
1.267392813E1;9.445413351E-1;-8.512556076E0;-1.215172291E0
1.268583906E1;1.667781711E0;-9.137490273E0;-9.847064018E-1
1.269775000E1;2.356191397E0;-9.622085571E0;-2.173743546E-1
1.270966094E1;2.932839632E0;-9.926369667E0;8.505449295E-1
1.272157344E1;3.175343513E0;-9.987192154E0;1.653253794E0
1.273348438E1;3.081778049E0;-9.809082985E0;1.649011254E0
1.274539531E1;2.715972900E0;-9.410544395E0;8.574880958E-1
1.275730781E1;2.015975237E0;-8.976561546E0;-3.682665527E-1
1.276921875E1;1.388349771E0;-8.868238449E0;-1.253019810E0
1.278114688E1;8.988216519E-1;-8.820670128E0;-1.581868172E0
1.279304219E1;7.908527255E-1;-9.561407089E0;-1.336759448E0
1.280495312E1;7.256921530E-1;-1.081343079E1;-8.533126116E-1
1.281686562E1;9.640684128E-1;-1.208342075E1;-6.977565885E-1
1.282877656E1;1.177487493E0;-1.321379089E1;-9.977021217E-1
1.284068906E1;1.444824100E0;-1.340843964E1;-1.769947171E0
1.285260000E1;1.999608517E0;-1.188350487E1;-2.555398464E0
1.286451250E1;2.612907171E0;-9.785543442E0;-2.071664333E0
1.287642344E1;3.403645039E0;-8.461874962E0;-9.518867135E-1
1.288833438E1;4.206755638E0;-8.584084511E0;2.853888553E-3
1.290024688E1;4.838289261E0;-9.383115768E0;7.511472702E-1
1.291215781E1;5.687397480E0;-1.010486221E1;1.354323268E0
1.292407031E1;6.333889008E0;-1.074929523E1;1.487833500E0
1.293598125E1;6.699723244E0;-1.080548286E1;1.078185678E0
1.294789375E1;6.657240868E0;-9.968862534E0;7.628884166E-2
1.295981094E1;6.115538120E0;-8.555296898E0;-5.338973999E-1
1.297171719E1;5.507583618E0;-7.486764431E0;-4.058172107E-1
1.298362813E1;4.898086548E0;-7.395009041E0;1.370441020E-1
1.299553906E1;4.346864700E0;-7.848365784E0;1.069384575E0
1.300745156E1;3.511939526E0;-8.621156693E0;1.670635581E0
1.301936406E1;2.640651464E0;-9.411319733E0;1.833134890E0
1.303127344E1;1.642039299E0;-1.001109600E1;1.588725209E0
1.304318594E1;1.059376836E0;-1.026703644E1;1.184181809E0
1.305509688E1;1.165746331E0;-9.966746330E0;5.347114205E-1
1.306700938E1;1.325075626E0;-9.305418968E0;3.206315041E-1
1.307892656E1;1.717581153E0;-8.952360153E0;3.769622743E-1
1.309083281E1;2.345225811E0;-9.180403709E0;1.166838169E0
1.310275000E1;3.090425968E0;-9.204451561E0;1.433897018E0
1.311465469E1;3.641082764E0;-9.341150284E0;1.433322430E0
1.312656719E1;4.063276291E0;-9.608294487E0;4.688900411E-1
1.313847812E1;4.093519688E0;-9.758163452E0;-1.244917870E0
1.315038906E1;3.630596161E0;-1.025549603E1;-2.797960043E0
1.316230156E1;2.676133394E0;-1.068559074E1;-3.457504988E0
1.317421250E1;1.215191364E0;-1.088384914E1;-3.879526138E0
1.318612500E1;-6.722918153E-1;-1.088134003E1;-4.745451450E0
1.319804062E1;-2.346786976E0;-9.920317650E0;-5.404508114E0
1.320994688E1;-2.020131588E0;-8.392557144E0;-4.783049583E0
1.322185938E1;4.153844416E-1;-8.561080933E0;-3.615483999E0
1.323377031E1;2.120812416E0;-9.835954666E0;-1.558060288E0
1.324568281E1;2.224050522E0;-1.203050900E1;1.177822709E0
1.325760469E1;2.399631739E0;-1.506750584E1;2.337966681E0
1.326951406E1;1.601481557E0;-1.722786140E1;-4.477157295E-1
1.328142188E1;1.867477316E-3;-1.641216660E1;-4.194880962E0
1.329332812E1;-1.183511376E0;-1.342217255E1;-6.847435951E0
1.330524063E1;-1.822562099E0;-1.072465420E1;-6.731307507E0
1.331715156E1;-1.348510146E0;-9.175117493E0;-4.268124104E0
1.332906250E1;3.394020349E-2;-7.977595329E0;-1.125839829E0
1.334097500E1;1.665310860E0;-7.584074020E0;6.656360030E-1
1.335288594E1;2.979536057E0;-7.800615788E0;5.349317193E-1
1.336479844E1;4.254630566E0;-8.156240463E0;-1.120486498E0
1.337672969E1;5.035983086E0;-8.154813766E0;-3.058209658E0
1.338862031E1;5.016350746E0;-8.215885162E0;-3.670157909E0
1.340053281E1;4.386742592E0;-8.173747063E0;-3.392755985E0
1.341244531E1;4.034048080E0;-7.574804306E0;-3.024738789E0
1.342435625E1;3.413777351E0;-6.841575146E0;-3.149898052E0
1.343626875E1;2.181481600E0;-6.392298222E0;-3.496798515E0
1.344817969E1;7.114992738E-1;-5.929728985E0;-2.377624273E0
1.346009063E1;-1.800631285E-1;-5.474926472E0;-1.039284706E0
1.347200312E1;-4.215231538E-1;-5.338562012E0;-5.835627317E-1
1.348391406E1;-1.329165101E-1;-5.736258507E0;-1.030435681E0
1.349582500E1;2.191460729E-1;-6.847857475E0;-1.276090384E0
1.350773750E1;2.828509808E-1;-8.256385803E0;-1.560042739E0
1.351964844E1;5.858132616E-2;-9.451503754E0;-2.767965317E0
1.353156094E1;-4.840405583E-1;-1.032086754E1;-5.482166290E0
1.354347188E1;-8.352220654E-1;-1.044588280E1;-7.104650021E0
1.355538438E1;-5.413768813E-2;-9.823227882E0;-7.642579079E0
1.356729531E1;1.344880581E0;-8.278565407E0;-7.315751553E0
1.357920625E1;2.479128838E0;-6.753314972E0;-6.965029716E0
1.359111875E1;3.436349869E0;-5.975812435E0;-6.089374542E0
1.360302969E1;4.204332829E0;-5.383065224E0;-5.529561996E0
1.361494219E1;4.106486797E0;-5.541724682E0;-4.216055393E0
1.362685781E1;3.163257599E0;-6.111630917E0;-1.900105476E0
1.363876406E1;1.235743284E0;-6.664700985E0;-3.503483236E-1
1.365067656E1;-9.933447242E-1;-6.873590469E0;-6.975075603E-1
1.366258750E1;-2.577090025E0;-7.462697983E0;-3.454737186E0
1.367449844E1;-3.618443012E0;-8.400172234E0;-5.121494293E0
1.368641094E1;-4.262904644E0;-9.042372704E0;-4.536696434E0
1.369832188E1;-4.768464565E0;-9.149700165E0;-5.219742775E0
1.371023438E1;-4.548379898E0;-8.240372658E0;-6.481266499E0
1.372214531E1;-2.605015755E0;-6.581679821E0;-6.639350891E0
1.373406406E1;-6.744753122E-1;-5.378449917E0;-5.267349243E0
1.374596875E1;-7.456789017E-1;-6.025094509E0;-4.226771355E0
1.375788125E1;-1.050968409E0;-7.313989162E0;-4.902654648E0
1.376979219E1;-1.044456124E0;-8.430654526E0;-6.192085266E0
1.378170313E1;-1.308191776E0;-9.413291931E0;-6.085419178E0
1.379361406E1;-2.334317923E0;-1.069783878E1;-5.743986607E0
1.380552656E1;-3.777236223E0;-1.242106056E1;-6.841919899E0
1.381743750E1;-5.385852337E0;-1.409206009E1;-8.688501358E0
1.382935000E1;-6.399806499E0;-1.517019844E1;-1.170059776E1
1.384126094E1;-6.981894493E0;-1.596610737E1;-1.459470940E1
1.385317344E1;-7.169350624E0;-1.739655685E1;-1.542595577E1
1.386508594E1;-6.116380692E0;-1.834465981E1;-9.737314224E0
1.387699688E1;-3.871998787E0;-1.758726883E1;-5.713685513E0
1.388890781E1;-1.485075474E0;-1.315779495E1;-1.623795509E0
1.390082031E1;9.613773227E-1;-5.983789921E0;2.838642120E0
1.391273125E1;2.556432962E0;-8.108394742E-1;6.981492043E0
1.392464375E1;4.038932323E0;1.134401441E0;3.218333721E0
1.393655469E1;8.072836876E0;9.891979098E-1;7.491170168E-1
1.394846562E1;1.163556194E1;-1.337410688E0;1.308613181E0
1.396037812E1;1.522945976E1;-5.621719837E0;4.741764367E-1
1.397229063E1;1.261874485E1;-1.173799515E1;1.747776866E0
1.398421563E1;5.508071899E0;-1.655014801E1;2.576161027E-1
1.399611250E1;-1.258938193E0;-1.918067741E1;1.846293449E0
1.400802344E1;-3.526936769E0;-1.719285774E1;3.216820478E0
1.401993594E1;-3.485383034E0;-1.276981926E1;8.570188880E-1
1.403186719E1;-2.740786314E0;-9.669365883E0;-1.508270502E0
1.404375938E1;-1.311189294E0;-8.020671844E0;-3.601932824E-1
1.405567031E1;5.069961399E-2;-7.558734417E0;8.126207590E-1
1.406758125E1;7.305092216E-1;-8.302612305E0;1.243902683E0
1.407949375E1;1.039140940E0;-8.305351257E0;7.961582541E-1
1.409140469E1;1.885702014E0;-8.086387634E0;9.661178589E-1
1.410332188E1;2.727895975E0;-7.887879372E0;1.031527519E0
1.411522813E1;3.324952364E0;-7.843701839E0;1.001801014E0
1.412713906E1;3.681085110E0;-7.874184608E0;8.872720003E-1
1.413905156E1;3.725147963E0;-8.207610130E0;6.700317264E-1
1.415096719E1;3.191183567E0;-9.103731155E0;4.754309952E-1
1.416287344E1;2.194132566E0;-9.979846954E0;3.181510866E-1
1.417478594E1;1.379050612E0;-1.012419796E1;-2.380698323E-1
1.418669688E1;1.143183470E0;-9.259144783E0;-8.961305618E-1
1.419860938E1;1.607064843E0;-8.394003868E0;-1.810351729E0
1.421053750E1;2.453290462E0;-8.132001877E0;-1.901111126E0
1.422243125E1;3.396998882E0;-8.463474274E0;-1.116224766E0
1.423434531E1;3.895337343E0;-8.790637016E0;-3.820187971E-2
1.424625469E1;4.204102993E0;-9.268395424E0;6.495277882E-1
1.425816719E1;4.191615105E0;-1.002118111E1;1.074527383E0
1.427008438E1;2.682655096E0;-1.075009918E1;9.226199985E-1
1.428199062E1;9.134645462E-1;-1.078002739E1;4.552813992E-2
1.429390156E1;1.635622829E-1;-1.052624226E1;-1.676898748E-1
1.430581250E1;1.836352646E-1;-1.017769432E1;2.049245089E-1
1.431772500E1;4.379377961E-1;-9.838933945E0;3.768856525E-1
1.432963594E1;1.772379577E-1;-9.587303162E0;6.555037498E-1
1.434154844E1;1.802067757E-1;-9.354242325E0;9.684258699E-1
1.435345938E1;4.187267125E-1;-9.388766289E0;8.971648812E-1
1.436537188E1;1.279873133E0;-9.560181618E0;-7.422025315E-3
1.437728281E1;2.924795151E0;-9.367956161E0;-5.528594851E-1
1.438919375E1;4.167347431E0;-9.080545425E0;-3.369311988E-1
1.440111719E1;4.718837261E0;-8.667766571E0;4.871625900E-1
1.441301719E1;4.681095123E0;-8.286121368E0;1.244946480E0
1.442492969E1;4.534388065E0;-8.017099380E0;1.736006975E0
1.443684062E1;4.487279892E0;-8.097601891E0;1.892070532E0
1.444875781E1;4.903727531E0;-8.730093002E0;1.538082957E0
1.446066875E1;5.432194710E0;-9.315302849E0;5.800096989E-1
1.447257656E1;5.324637890E0;-9.974244118E0;-5.075707659E-2
1.448448750E1;4.287584305E0;-1.032867146E1;-3.722983599E-1
1.449639844E1;2.902950525E0;-1.028421688E1;-2.308680862E-1
1.450831719E1;1.531676173E0;-1.004785156E1;1.284537017E-1
1.452022188E1;6.418855190E-1;-9.902925491E0;4.327950478E-1
1.453214531E1;6.656264067E-1;-1.010875988E1;5.363490582E-1
1.454404531E1;1.031728506E0;-1.038126850E1;7.790828347E-1
1.455595625E1;1.691120505E0;-1.058006382E1;7.281054854E-1
1.456786875E1;2.702938795E0;-1.056114960E1;8.247258663E-1
1.457977969E1;4.057578087E0;-1.042564774E1;5.521316528E-1
1.459169062E1;4.996947765E0;-9.976312637E0;-3.906858265E-1
1.460360313E1;6.143330097E0;-8.935936928E0;-3.343320847E0
1.461551406E1;7.515475750E0;-7.367973804E0;-8.103693008E0
1.462744844E1;6.997140408E0;-6.363089085E0;-8.010740280E0
1.463933750E1;6.031539917E0;-6.364496708E0;-6.338189602E0
1.465125000E1;5.270135880E0;-7.802875519E0;-4.343867302E0
1.466316094E1;4.742751122E0;-1.026024628E1;-2.005795240E0
1.467507344E1;5.114359379E0;-1.264228535E1;-1.047032326E-1
1.468698438E1;5.153978825E0;-1.410004807E1;4.028866887E-1
1.469889531E1;2.818732023E0;-1.440348816E1;8.516175747E-1
1.471080625E1;1.657237649E0;-1.259519672E1;9.454798698E-1
1.472271875E1;1.725683093E0;-1.040239429E1;1.402283907E0
1.473463125E1;1.899214864E0;-8.432024002E0;2.566028833E0
1.474654219E1;2.677646399E0;-6.609988689E0;2.944341421E0
1.475845312E1;3.074470997E0;-5.691074848E0;1.944886565E0
1.477036562E1;3.454095602E0;-4.964338779E0;2.649040520E-1
1.478227656E1;3.158794880E0;-4.789131165E0;-9.625744224E-1
1.479418750E1;2.438350916E0;-5.109647751E0;-1.218792319E0
1.480611562E1;3.362684965E0;-5.698927879E0;-1.049177527E0
1.481801406E1;4.072115898E0;-6.958527088E0;-1.279279470E0
1.482992188E1;3.231070995E0;-9.087116241E0;-2.754567385E0
1.484183438E1;1.477184057E0;-1.084399033E1;-5.047187805E0
1.485374688E1;2.456929833E-1;-1.081951237E1;-5.381063938E0
1.486566094E1;2.340188473E-1;-1.018725204E1;-3.801570892E0
1.487756875E1;1.410596609E0;-1.000364590E1;-5.519592762E-1
1.488948438E1;2.841687441E0;-1.000292683E1;1.588907242E0
1.490139219E1;4.132123947E0;-9.770267487E0;3.221417427E0
1.491330469E1;4.045463562E0;-9.771685600E0;3.127114773E0
1.492523750E1;2.967411757E0;-9.501724243E0;2.802853584E0
1.493712813E1;2.093260050E0;-8.164649010E0;2.473095417E0
1.494904219E1;1.090817451E0;-6.541170120E0;1.178828239E0
1.496095156E1;1.191737771E0;-4.744177818E0;-2.202665491E-4
1.497286250E1;2.421131611E0;-2.721029282E0;-2.165670395E0
1.498478125E1;3.643601656E0;-2.146430731E0;-3.891075611E0
1.499668594E1;9.578434825E-1;-5.504040241E0;-3.055240631E0
1.500859688E1;-7.558398843E-1;-8.427599907E0;2.310031176E0
1.502050938E1;6.494320035E-1;-1.074545479E1;3.072211027E0
1.503242031E1;3.248146534E0;-1.285735130E1;7.148702741E-1
1.504433125E1;6.198578835E0;-1.393523026E1;-1.909883380E0
1.505624375E1;7.160147667E0;-1.356021309E1;-1.558711529E0
1.506815469E1;6.843662739E0;-1.129565239E1;7.145063877E-1
1.508006719E1;6.955203533E0;-8.442385674E0;4.817133769E-2
1.509197812E1;6.870152473E0;-6.750164509E0;-3.119204283E0
1.510389063E1;4.823856831E0;-7.048692226E0;-2.673135757E0
1.511580313E1;3.730271578E0;-8.053462029E0;-1.532116652E0
1.512771406E1;4.801188469E0;-8.043694496E0;-2.232363224E0
1.513962344E1;4.918313026E0;-8.456626892E0;-3.117078066E0
1.515153594E1;5.041307449E0;-9.285394669E0;-2.052711964E0
1.516345469E1;5.634006977E0;-9.483261108E0;-3.507601321E-1
1.517535938E1;5.916349888E0;-9.456636429E0;8.957187533E-1
1.518727031E1;6.102293491E0;-8.850769997E0;9.383738637E-1
1.519918281E1;6.917892456E0;-7.874769211E0;-9.375694208E-3
1.521109375E1;7.547778130E0;-7.223536015E0;-1.095988870E0
1.522301094E1;6.546427250E0;-7.641947269E0;-1.341969252E0
1.523491719E1;4.308758736E0;-8.598717690E0;-1.399401426E0
1.524682969E1;2.412263632E0;-9.367438316E0;-2.163065434E0
1.525874063E1;7.882478237E-1;-9.979942322E0;-1.998555064E0
1.527065156E1;-2.972449362E-1;-1.024451160E1;-1.496548414E0
1.528256406E1;-8.785092235E-1;-1.033837414E1;-1.303796053E0
1.529447500E1;-2.871126831E-1;-9.979779243E0;5.600804090E-1
1.530638594E1;6.513665318E-1;-1.059794331E1;1.317510009E0
1.531829844E1;2.676085472E0;-1.133795357E1;1.925665975E0
1.533020938E1;3.865103483E0;-1.190913296E1;1.629129767E0
1.534213438E1;3.516794920E0;-1.152308178E1;1.161858201E0
1.535404375E1;3.181003332E0;-1.058404827E1;8.470302820E-1
1.536594531E1;2.820886612E0;-1.018210793E1;3.251230121E-1
1.537785625E1;2.586456060E0;-1.044573879E1;5.599654317E-1
1.538976719E1;2.190244436E0;-1.090978336E1;7.821856737E-1
1.540167969E1;1.520241499E0;-1.126359844E1;7.417620420E-1
1.541359531E1;1.322710156E0;-1.114435768E1;5.844054818E-1
1.542550312E1;1.834475756E0;-1.089125156E1;5.840607285E-1
1.543741406E1;2.773337841E0;-1.042754269E1;6.069492698E-1
1.544932656E1;3.348032475E0;-9.929788589E0;5.194747448E-1
1.546123906E1;3.649998665E0;-9.654570580E0;3.779295385E-1
1.547315000E1;3.727551699E0;-9.604215622E0;4.351030588E-1
1.548506094E1;3.543035507E0;-9.902810097E0;3.457418680E-1
1.549697188E1;3.620004177E0;-1.016480350E1;5.419323444E-1
1.550888438E1;3.862853050E0;-1.060182190E1;1.061426282E0
1.552080156E1;4.017269135E0;-1.102458954E1;1.530364156E0
1.553270625E1;4.059464931E0;-1.127386570E1;1.690277696E0
1.554461875E1;4.186577797E0;-1.121463203E1;1.613624930E0
1.555652969E1;4.490909576E0;-1.100103092E1;1.470892191E0
1.556844219E1;5.070076466E0;-1.094018936E1;9.591650963E-1
1.558035625E1;5.752251625E0;-1.131855965E1;4.880723953E-1
1.559226406E1;6.206642151E0;-1.214659023E1;-2.202090919E-1
1.560417656E1;6.542826653E0;-1.290215111E1;-8.296962380E-1
1.561608750E1;7.051919937E0;-1.322665215E1;-1.453835964E0
1.562800000E1;7.403110981E0;-1.324972248E1;-2.180916786E0
1.563993438E1;7.063862324E0;-1.283467388E1;-2.929286718E0
1.565182188E1;5.940359592E0;-1.173546696E1;-3.254697084E0
1.566373438E1;4.719632149E0;-1.060965633E1;-2.982667685E0
1.567564531E1;3.638621569E0;-9.608832359E0;-1.819870949E0
1.568755781E1;3.103641987E0;-9.072712898E0;-6.118238568E-1
1.569946875E1;2.586494446E0;-8.878207207E0;4.059320986E-1
1.571137969E1;1.945480466E0;-8.939594269E0;1.567483902E0
1.572329219E1;1.497812629E0;-9.123479843E0;2.711730242E0
1.573520313E1;7.194001675E-1;-9.746631622E0;4.173667908E0
1.574711563E1;-2.495141327E-1;-1.033423615E1;5.533258915E0
1.575903281E1;-1.537326574E0;-1.084614563E1;6.053241253E0
1.577093750E1;-2.097837925E0;-1.125506496E1;4.551597595E0
1.578285000E1;-1.988652706E0;-1.163065815E1;2.160843849E0
1.579476094E1;-1.979190826E0;-1.194978619E1;-1.433456421E0
1.580667344E1;-1.448568583E0;-1.141156101E1;-6.031903744E0
1.581858438E1;-1.170620918E0;-1.018741417E1;-5.376036167E0
1.583049531E1;-1.502102971E0;-9.265311241E0;-2.012728691E0
1.584241406E1;-1.300741076E0;-8.453696251E0;7.473740727E-2
1.585432031E1;-1.042224765E0;-7.738471508E0;1.836994410E0
1.586623125E1;-1.170304894E0;-7.133245945E0;2.818004131E0
1.587814219E1;-1.241997004E0;-6.802530289E0;3.203614235E0
1.589005625E1;-8.447414041E-1;-6.463061333E0;3.102761030E0
1.590196562E1;-5.826529264E-1;-6.220423222E0;2.811961174E0
1.591387813E1;-4.260242581E-1;-5.891727924E0;2.308853388E0
1.592578906E1;-9.070193768E-2;-5.650268078E0;1.839838624E0
1.593771563E1;3.177680373E-1;-5.609250546E0;1.740613461E0
1.594961250E1;9.707913399E-1;-5.838050365E0;1.068446040E0
1.596152344E1;1.463910699E0;-6.104553699E0;5.476209521E-1
1.597343594E1;1.756415009E0;-6.232633591E0;8.255494833E-1
1.598534688E1;1.990117908E0;-6.531736851E0;1.354457378E0
1.599726406E1;1.962460041E0;-7.305714607E0;1.000211358E0
1.600917031E1;2.118169546E0;-8.112340927E0;2.462580055E-1
1.602108281E1;2.472540140E0;-8.593230247E0;-2.904645503E-1
1.603299375E1;2.652555227E0;-8.969416618E0;-2.796523571E-1
1.604490469E1;2.712601900E0;-9.381727219E0;-2.109291703E-1
1.605682344E1;2.314302444E0;-9.689027786E0;-1.072305441E0
1.606872812E1;1.892980337E0;-9.723724365E0;-2.615100384E0
1.608064219E1;1.391079068E0;-9.866025925E0;-3.647183180E0
1.609255156E1;8.022394776E-1;-1.025999737E1;-3.753658295E0
1.610446250E1;7.750222087E-1;-1.056591892E1;-2.813541174E0
1.611637656E1;7.550833225E-1;-1.094925880E1;-6.896545887E-1
1.612828750E1;6.485413015E-2;-1.085694790E1;1.958523989E0
1.614019688E1;-7.396167517E-1;-1.004340839E1;3.926749229E0
1.615210938E1;-6.588938832E-1;-9.315705299E0;4.551578522E0
1.616402031E1;1.398405284E-1;-9.308693886E0;4.132104874E0
1.617593125E1;5.920382142E-1;-9.940046310E0;3.514094353E0
1.618785312E1;8.621137142E-1;-1.061021137E1;3.151190996E0
1.619975469E1;1.084745765E0;-1.050263500E1;2.744569063E0
1.621166719E1;1.416428804E0;-1.009379196E1;2.058994293E0
1.622357812E1;2.224356890E0;-9.844334602E0;4.409161583E-2
1.623549062E1;3.124548197E0;-9.729661942E0;-2.630653143E0
1.624740312E1;3.909759998E0;-9.409777641E0;-4.102368832E0
1.625931250E1;4.096105576E0;-9.218633652E0;-3.979278088E0
1.627122500E1;3.747222662E0;-9.269343376E0;-2.258421659E0
1.628313594E1;3.310807467E0;-9.417669296E0;-9.519346058E-3
1.629504844E1;3.163228750E0;-9.672248840E0;1.409169674E0
1.630695938E1;3.174960375E0;-9.691202164E0;1.615214586E0
1.631887031E1;2.686016560E0;-9.496170044E0;9.825133681E-1
1.633078281E1;2.295139074E0;-9.518713951E0;5.790616274E-1
1.634269531E1;2.464342356E0;-9.591899872E0;4.287249148E-1
1.635460781E1;2.957020998E0;-9.677295685E0;6.924031377E-1
1.636651719E1;3.393120050E0;-9.635905266E0;1.281913042E0
1.637842969E1;3.780090094E0;-9.490989685E0;1.944896221E0
1.639034062E1;4.060748100E0;-9.462603569E0;2.412014723E0
1.640225312E1;4.241107941E0;-9.409806252E0;2.705869436E0
1.641417031E1;4.210921764E0;-9.227837563E0;2.698935747E0
1.642607656E1;4.327893257E0;-9.245372772E0;2.462388754E0
1.643799688E1;4.535116196E0;-9.240047455E0;1.956637502E0
1.644990625E1;4.748755455E0;-9.285442352E0;1.151362062E0
1.646181094E1;4.135868549E0;-9.178287506E0;-6.130018234E-1
1.647372812E1;3.135465860E0;-8.895742416E0;-3.236960649E0
1.648563438E1;2.160096645E0;-8.511559486E0;-4.897214890E0
1.649754531E1;1.546156287E0;-8.599877357E0;-3.878300190E0
1.650945625E1;1.389096737E0;-8.993339539E0;-1.417942047E0
1.652136875E1;1.685364723E0;-9.547137260E0;4.353137612E-1
1.653327969E1;2.219434500E0;-9.830238342E0;1.850162506E0
1.654519219E1;2.971826792E0;-9.463761330E0;2.333839178E0
1.655710312E1;3.706214666E0;-8.694629669E0;2.486617804E0
1.656901406E1;3.623499870E0;-8.156709671E0;2.364724398E0
1.658092656E1;3.304247379E0;-8.019196510E0;2.258469820E0
1.659286875E1;3.462571144E0;-8.199632645E0;1.949713349E0
1.660475000E1;4.226484299E0;-8.601897240E0;1.102539420E0
1.661666875E1;5.036365986E0;-8.999114037E0;9.296206385E-2
1.662857188E1;4.691017151E0;-9.402662277E0;-3.410396874E-1
1.664048438E1;3.505513430E0;-9.968153000E0;-6.146394610E-1
1.665241719E1;1.948257685E0;-9.984500885E0;-1.129986525E0
1.666430781E1;5.691208839E-1;-9.574537277E0;-1.983471513E0
1.667622031E1;-3.166762590E-1;-9.273269653E0;-2.101007700E0
1.668812969E1;-6.959082484E-1;-9.268395424E0;-1.500053644E0
1.670004219E1;-4.203835130E-1;-9.210302353E0;-2.600677907E-1
1.671195312E1;2.627875805E-1;-9.237750053E0;9.089347720E-1
1.672388906E1;1.339938998E0;-9.282904625E0;8.280107379E-1
1.673577656E1;2.387009621E0;-9.221507072E0;-3.922564387E-1
1.674768750E1;2.950240612E0;-8.969512939E0;-1.870110989E0
1.675960000E1;2.676305771E0;-8.412199974E0;-2.854185343E0
1.677151250E1;1.916807532E0;-8.312677383E0;-4.400906563E0
1.678343438E1;1.824946761E0;-8.594063759E0;-3.450801373E0
1.679533438E1;2.452811718E0;-8.834547043E0;-7.943961024E-2
1.680724531E1;3.293578863E0;-9.176639557E0;1.281501174E0
1.681915781E1;4.164876461E0;-9.115041733E0;1.922735423E-1
1.683107031E1;4.645699024E0;-8.455391884E0;-4.190714955E-1
1.684298125E1;4.368144512E0;-7.714117527E0;-5.222520232E-1
1.685489219E1;3.789140224E0;-7.916830063E0;-1.417195082E0
1.686680469E1;2.895537853E0;-8.931243896E0;-2.236500502E0
1.687871562E1;2.513854265E0;-9.949478149E0;-1.597420931E0
1.689063438E1;2.766174555E0;-1.070497322E1;-1.046524644E0
1.690253906E1;4.098824978E0;-1.063040924E1;8.341877460E-1
1.691445156E1;5.635749340E0;-9.985995293E0;8.112034202E-1
1.692636250E1;7.024472713E0;-8.696315765E0;8.003912568E-1
1.693827344E1;7.970814228E0;-7.578088760E0;1.276540399E0
1.695020312E1;8.075498581E0;-7.335910797E0;8.945982456E-1
1.696209688E1;7.425942421E0;-7.894353390E0;-5.698199868E-1
1.697400938E1;6.388649464E0;-8.818237305E0;-2.078875780E0
1.698592031E1;5.304142952E0;-9.558017731E0;-3.206123352E0
1.699783281E1;4.847290993E0;-9.780524254E0;-2.420777321E0
1.700975000E1;4.769479275E0;-9.675457001E0;-1.598771214E0
1.702166094E1;4.735731125E0;-1.000385571E1;-4.246068954E0
1.703356719E1;4.461709976E0;-1.035666466E1;-5.089613438E0
1.704547813E1;3.225554705E0;-1.086950302E1;-1.885414720E0
1.705738906E1;1.419962764E0;-1.172181988E1;-7.795233130E-1
1.706930781E1;-1.363153100E0;-1.215259457E1;-1.771680593E0
1.708121563E1;-2.642470837E0;-1.282732773E1;-4.592893124E0
1.709312500E1;-2.222901344E0;-1.345670605E1;-4.866214752E0
1.710503594E1;-1.601337910E0;-1.349141312E1;-4.119846821E0
1.711694688E1;-2.483582020E0;-1.232614517E1;-3.542633295E0
1.712885938E1;-3.129690886E0;-1.081278038E1;-2.663875103E0
1.714077031E1;-2.744368076E0;-1.008395576E1;-2.957883120E0
1.715268281E1;-1.551931143E0;-1.010870266E1;-4.103709698E0
1.716459375E1;-4.284375906E-1;-1.065704155E1;-4.039784431E0
1.717650625E1;-4.332930744E-1;-1.168726635E1;-4.796916962E0
1.718841719E1;5.905154943E-1;-1.199646378E1;-6.124885082E0
1.720032813E1;2.676650286E0;-1.140364075E1;-7.290296555E0
1.721224062E1;3.270967960E0;-1.052709389E1;-7.126561642E0
1.722415156E1;2.395829916E0;-9.443008423E0;-5.794629097E0
1.723606250E1;1.444852829E0;-8.243571281E0;-4.302840233E0
1.724799531E1;1.388637000E-3;-7.474697590E0;-3.742232800E0
1.725988594E1;-1.560176730E0;-7.029730320E0;-3.048431635E0
1.727180469E1;-2.113227844E0;-6.850873947E0;-2.751244068E0
1.728370938E1;-1.850986123E0;-7.245218277E0;-3.544749737E0
1.729562031E1;-7.659051418E-1;-8.597520828E0;-4.471477985E0
1.730753281E1;3.945069909E-1;-1.096737766E1;-5.118410587E0
1.731944375E1;9.641162753E-1;-1.316864586E1;-5.652968884E0
1.733135625E1;7.323384285E-1;-1.454536915E1;-5.899992943E0
1.734326719E1;-5.164005756E-1;-1.435284710E1;-5.348368645E0
1.735517969E1;-1.790719271E0;-1.220004749E1;-4.669536114E0
1.736709062E1;-2.349745989E0;-9.342884064E0;-4.016943932E0
1.737900312E1;-2.581380367E0;-6.625053406E0;-4.545286655E0
1.739091562E1;-2.233665705E0;-4.410904884E0;-5.286818981E0
1.740282656E1;-1.295617461E0;-2.691714764E0;-4.765792370E0
1.741473750E1;-2.937781513E-1;-2.588409662E0;-3.760313988E0
1.742664844E1;-4.266276062E-1;-4.470032215E0;-3.863236189E0
1.743857031E1;-1.223542333E0;-6.608772278E0;-3.756789684E0
1.745047656E1;-1.414120793E0;-8.075823784E0;-3.867440224E0
1.746238438E1;-1.095577121E0;-8.454471588E0;-4.112328529E0
1.747429531E1;-5.368853807E-1;-8.079147339E0;-4.243722439E0
1.748620781E1;3.168965504E-2;-7.367274761E0;-4.027506828E0
1.749811875E1;5.659222603E-1;-6.576364040E0;-3.339231491E0
1.751003438E1;1.037005424E0;-5.991738796E0;-2.438283682E0
1.752194219E1;9.598929286E-1;-5.801103115E0;-1.267567039E0
1.753385938E1;5.909464359E-1;-5.926032066E0;-8.093455434E-1
1.754576562E1;1.922735423E-1;-6.058517933E0;-9.823217988E-1
1.755767656E1;-1.218169853E-1;-5.820524216E0;-1.564390540E0
1.756958906E1;1.135905087E-1;-5.479034901E0;-1.654585004E0
1.758150000E1;8.769960999E-1;-5.609097481E0;-1.349850893E0
1.759341250E1;1.504698396E0;-6.337921619E0;-1.257626176E0
1.760534375E1;1.679321766E0;-7.444396496E0;-1.367213607E0
1.761723438E1;1.529310703E0;-8.762356758E0;-1.773662925E0
1.762914531E1;1.502782941E0;-9.955013275E0;-2.820216417E0
1.764105781E1;1.438235283E0;-1.028261757E1;-4.148442745E0
1.765296875E1;1.176261663E0;-9.306540489E0;-3.314963818E0
1.766488125E1;9.865068793E-1;-8.279436111E0;-1.153373122E0
1.767679219E1;8.480550051E-1;-7.994756699E0;-2.249591798E-2
1.768870312E1;6.821846962E-1;-8.100503922E0;3.932811618E-1
1.770061562E1;4.733336866E-1;-8.319065094E0;2.165124565E-1
1.771252656E1;3.904368281E-1;-8.603525162E0;-7.050924301E-1
1.772443750E1;2.869211324E-2;-9.309479713E0;-2.089343309E0
1.773635000E1;-6.471335292E-1;-1.067603207E1;-4.191691875E0
1.774826094E1;-1.327374101E0;-1.234902477E1;-6.420779705E0
1.776017344E1;-1.934016943E0;-1.435371780E1;-7.924989700E0
1.777208438E1;-1.355414987E0;-1.572573948E1;-7.560486794E0
1.778399531E1;4.545918703E-1;-1.541213703E1;-5.797204971E0
1.779590781E1;1.747681022E0;-1.353581047E1;-3.081912041E0
1.780782188E1;1.891352296E0;-1.159428596E1;3.052511215E-1
1.781973125E1;2.616872072E0;-1.020027637E1;2.509563923E0
1.783164375E1;3.818071842E0;-9.514001846E0;3.098479986E0
1.784355781E1;4.497776031E0;-8.865776062E0;3.481006384E0
1.785546719E1;4.746782780E0;-8.356731415E0;3.276934385E0
1.786738438E1;5.300245762E0;-8.280835152E0;2.156237364E0
1.787928906E1;5.390037537E0;-8.244423866E0;8.691717982E-1
1.789120000E1;4.955786705E0;-8.231092453E0;-7.025545835E-2
1.790311250E1;3.773941994E0;-8.371546745E0;-4.586045444E-1
1.791502500E1;2.637414217E0;-8.335777283E0;-1.492353827E-1
1.792693594E1;1.681218028E0;-8.732496262E0;5.036442280E-1
1.793884688E1;6.142372489E-1;-9.771349907E0;8.386026621E-1
1.795075938E1;6.604165584E-2;-1.084529305E1;1.241096735E0
1.796267031E1;8.981129527E-2;-1.126189327E1;1.624944687E0
1.797458125E1;-4.390008003E-2;-1.090136528E1;2.036852837E0
1.798649375E1;3.077889979E-1;-1.014568806E1;1.992311001E0
1.799841250E1;1.173225880E0;-9.743538857E0;1.885970116E0
1.801031719E1;1.869842768E0;-9.784173965E0;2.136633635E0
1.802222812E1;1.968493581E0;-1.000763893E1;2.606730223E0
1.803413906E1;2.126223326E0;-9.994604111E0;2.864882469E0
1.804605781E1;2.196852446E0;-9.807886124E0;2.646167517E0
1.805796250E1;2.055910587E0;-9.427867889E0;2.092120409E0
1.806987500E1;1.652755737E0;-9.011161804E0;1.438704610E0
1.808179688E1;1.265766621E0;-8.860509872E0;9.125930667E-1
1.809369844E1;1.109827399E0;-9.033954620E0;2.633621693E-1
1.810562656E1;9.642407894E-1;-9.416654587E0;-2.181883901E-1
1.811752031E1;7.392337322E-1;-9.909926414E0;-4.452544749E-1
1.812943281E1;7.246865034E-1;-1.016325188E1;-2.332622856E-1
1.814135000E1;1.089898109E0;-1.015996742E1;2.241547406E-1
1.815325469E1;1.688812375E0;-1.000829983E1;7.376439571E-1
1.816516719E1;2.176731586E0;-9.945551872E0;1.058945775E0
1.817707812E1;2.770838261E0;-9.964982986E0;1.155805707E0
1.818899063E1;3.218726635E0;-1.011113453E1;1.280160546E0
1.820090469E1;3.372740746E0;-1.032351971E1;1.368276715E0
1.821281250E1;3.037437439E0;-1.043677521E1;1.537613750E0
1.822472500E1;2.242351770E0;-1.067517090E1;1.636456013E0
1.823663750E1;1.256007791E0;-1.099352360E1;1.863502979E0
1.824854844E1;5.106640458E-1;-1.133712864E1;2.138989210E0
1.826046563E1;-3.960392773E-1;-1.184661484E1;2.195607424E0
1.827237031E1;-8.971073627E-1;-1.167991257E1;1.357703805E0
1.828428281E1;-4.750958085E-1;-1.026000690E1;-2.943144143E-1
1.829619375E1;3.098192811E-1;-8.848567009E0;-2.923607588E0
1.830810625E1;8.058978915E-1;-8.191483498E0;-4.885445118E0
1.832001719E1;3.037858903E-1;-8.375788689E0;-4.489932537E0
1.833192969E1;-8.040495515E-1;-8.587761879E0;-2.020792484E0
1.834384063E1;-8.172176480E-1;-8.472648621E0;-8.279820085E-1
1.835575312E1;5.833807588E-1;-7.636277676E0;-1.030809164E0
1.836766406E1;2.406096220E0;-7.136655807E0;-2.607180357E0
1.837957813E1;3.579168797E0;-6.676011086E0;-3.393819332E0
1.839148750E1;3.305396557E0;-6.416058064E0;-2.092177868E0
1.840339844E1;1.289545774E0;-6.942504883E0;6.848949194E-1
1.841531094E1;-1.148469806E0;-7.922422886E0;3.341022253E0
1.842722188E1;-1.757937908E0;-8.368156433E0;3.574054718E0
1.843913438E1;-9.227349162E-1;-8.213653564E0;3.522349596E0
1.845104531E1;-1.013379335E0;-8.170721054E0;3.947186232E0
1.846295625E1;-1.429625750E0;-8.117148399E0;4.437480450E0
1.847486875E1;-2.230802298E0;-8.321459770E0;5.013984680E0
1.848677969E1;-2.537585735E0;-8.720190048E0;5.325240612E0
1.849869375E1;-2.369110346E0;-8.940638542E0;4.938941479E0
1.851060312E1;-2.112576723E0;-8.952609062E0;4.163938046E0
1.852251406E1;-1.930531025E0;-8.769635201E0;3.570884705E0
1.853442656E1;-2.112471104E0;-9.269544601E0;3.144630671E0
1.854633750E1;-2.321848869E0;-1.004479694E1;2.550906897E0
1.855825000E1;-2.265297890E0;-1.051901150E1;1.633899093E0
1.857017031E1;-2.217241526E0;-1.062147331E1;2.467943169E-2
1.858207188E1;-1.856607676E0;-1.045768166E1;-1.858436823E0
1.859398438E1;-1.014614820E0;-9.833944321E0;-2.919432163E0
1.860589531E1;-1.482298076E-1;-9.204317093E0;-2.443503141E0
1.861780781E1;4.280545413E-1;-8.675514221E0;-1.219730854E0
1.862971875E1;3.030101657E-1;-8.385605812E0;-3.607678711E-1
1.864162969E1;2.698552608E-1;-8.155197144E0;1.749874055E-1
1.865354219E1;6.826826930E-1;-7.702491760E0;4.730750918E-1
1.866545313E1;1.462502956E0;-7.487731934E0;9.026523232E-1
1.867737031E1;1.706730604E0;-7.567113876E0;2.006896496E0
1.868927656E1;1.645764589E0;-8.073382378E0;2.677387953E0
1.870118750E1;1.555062771E0;-8.771962166E0;2.926346540E0
1.871310000E1;1.329318285E0;-9.334982872E0;3.400369883E0
1.872501094E1;8.496447206E-1;-8.986434937E0;3.888700724E0
1.873692188E1;4.682292342E-1;-8.193063736E0;4.157933712E0
1.874885938E1;1.193748936E-1;-8.248609543E0;4.223420143E0
1.876074531E1;3.268660009E-1;-9.243323326E0;3.663434982E0
1.877265781E1;1.035415649E0;-1.029682922E1;3.822122812E0
1.878456875E1;4.600410759E-1;-1.189100361E1;4.149333477E0
1.879648125E1;-3.977248073E-1;-1.359707355E1;4.449901581E0
1.880839219E1;-9.788166881E-1;-1.459524536E1;4.126100063E0
1.882030469E1;-1.424310565E0;-1.444777107E1;3.843574762E0
1.883221562E1;-1.721143723E0;-1.364791679E1;3.832034588E0
1.884412812E1;-1.494422317E0;-1.352634907E1;3.121359110E0
1.885603906E1;-1.585239291E0;-1.479324532E1;1.105355024E0
1.886795000E1;-1.147234321E0;-1.686947823E1;-6.286464691E0
1.887986250E1;7.818601131E-1;-1.793725395E1;-7.650384426E0
1.889177344E1;2.071022749E0;-1.686126137E1;8.591066003E-1
1.890368594E1;3.069797516E0;-1.559342575E1;4.756953239E0
1.891559688E1;3.803313971E0;-1.457377338E1;4.841698170E0
1.892750938E1;3.798659563E0;-1.312842274E1;4.411517620E0
1.893942031E1;2.833279133E0;-1.196643066E1;4.253376007E0
1.895133281E1;1.293740392E0;-1.038573074E1;4.339960098E0
1.896324375E1;2.222776785E-2;-8.548909187E0;4.870533943E0
1.897515469E1;-1.047721744E0;-6.868485928E0;5.033282280E0
1.898706719E1;-1.883662105E0;-5.252706051E0;4.518184185E0
1.899898281E1;-2.214435577E0;-3.891037464E0;3.490228891E0
1.901088906E1;-1.702248693E0;-3.060326099E0;2.173781872E0
1.902280469E1;1.151419431E-1;-3.714153767E0;4.853142798E-1
1.903471875E1;1.892434478E0;-5.408894539E0;-3.829477727E-1
1.904662500E1;3.409113169E0;-7.810824871E0;-5.664201975E-1
1.905853906E1;4.373459339E0;-1.085377789E1;-9.251195192E-2
1.907044688E1;5.510685921E0;-1.302684212E1;7.879700661E-1
1.908235938E1;6.111247540E0;-1.435987568E1;1.885117769E0
1.909427656E1;5.917527676E0;-1.395999622E1;3.550409555E0
1.910618438E1;4.986442566E0;-1.116848183E1;5.565800667E0
1.911809375E1;4.653303146E0;-8.136866570E0;4.378353119E0
1.913000625E1;4.609001160E0;-6.370338917E0;1.712332964E0
1.914191719E1;4.531084061E0;-5.565465450E0;-6.080314517E-2
1.915383438E1;4.351202965E0;-5.710602283E0;-6.527168751E-1
1.916574062E1;3.767199755E0;-6.617382050E0;4.304487407E-1
1.917765156E1;2.991047382E0;-7.727736473E0;1.300051570E0
1.918956250E1;2.397314310E0;-8.529381752E0;2.242294550E0
1.920147500E1;2.145568609E0;-9.032863617E0;2.795048475E0
1.921339219E1;2.196210623E0;-9.122654915E0;2.591953039E0
1.922529844E1;2.218888760E0;-9.430167198E0;1.700065136E0
1.923720938E1;2.114367485E0;-9.751506805E0;8.526996970E-1
1.924912031E1;1.862382412E0;-9.979051590E0;3.022248745E-1
1.926103281E1;1.720233917E0;-9.830343246E0;-1.662916690E-1
1.927294375E1;1.093259573E0;-9.828264236E0;-9.122770429E-1
1.928485625E1;8.798212409E-1;-9.551887512E0;-3.171091318E0
1.929676875E1;1.756108642E0;-9.318769455E0;-3.093433142E0
1.930867812E1;2.870944738E0;-9.098818779E0;-1.444728374E0
1.932059062E1;3.727513313E0;-9.115568161E0;-2.038327456E-1
1.933250313E1;4.331733227E0;-9.088877678E0;4.014214575E-1
1.934441406E1;4.728222847E0;-9.279897690E0;1.061378241E0
1.935632500E1;4.810085297E0;-9.694362640E0;1.906301737E0
1.936823750E1;4.354832649E0;-1.018673420E1;2.724544287E0
1.938014844E1;3.739101410E0;-1.027280045E1;2.978588104E0
1.939207969E1;3.080264807E0;-1.027366352E1;2.941382170E0
1.940397188E1;2.089975357E0;-1.027147961E1;3.000691414E0
1.941588438E1;1.243193984E0;-9.951154709E0;2.758656740E0
1.942779531E1;1.793161333E-1;-9.739219666E0;2.761558294E0
1.943970781E1;-6.838031411E-1;-9.367734909E0;2.515625954E0
1.945164531E1;-1.221560001E0;-9.038284302E0;1.989840269E0
1.946353281E1;-1.355367184E0;-8.699264526E0;9.070481062E-1
1.947544219E1;-1.133980155E0;-8.222875595E0;-9.258377552E-1
1.948735313E1;-2.014960200E-1;-7.792389393E0;-2.696541548E0
1.949926562E1;6.927766204E-1;-7.943079948E0;-2.942378283E0
1.951117656E1;1.055201292E0;-8.329351425E0;-1.550034881E0
1.952308750E1;1.531216383E0;-8.798500061E0;-2.355894540E-3
1.953500156E1;1.884246349E0;-9.195142746E0;9.121812582E-1
1.954691094E1;2.180830240E0;-9.524172783E0;1.240445375E0
1.955882344E1;2.446768761E0;-9.713697433E0;1.279078364E0
1.957073438E1;2.513251066E0;-9.745195389E0;1.348711252E0
1.958264531E1;2.653599024E0;-9.542100906E0;1.261859298E0
1.959455781E1;3.075227499E0;-9.350879669E0;1.121989965E0
1.960646875E1;3.462695599E0;-9.538259506E0;8.447126746E-1
1.961838125E1;3.608416319E0;-9.864675522E0;3.557592034E-1
1.963029375E1;3.517043829E0;-9.974714279E0;-3.195014298E-1
1.964220312E1;3.095281601E0;-1.009833145E1;-6.005232334E-1
1.965411563E1;2.699998856E0;-1.023122883E1;-1.988432407E-1
1.966602812E1;2.392468214E0;-1.011464977E1;6.522475481E-1
1.967793906E1;2.065765142E0;-9.785006523E0;1.289775610E0
1.968985000E1;1.914202571E0;-9.534976006E0;1.663931847E0
1.970176094E1;1.911913753E0;-9.648949623E0;1.587719560E0
1.971368281E1;2.066521645E0;-9.718620300E0;1.335562348E0
1.972558438E1;2.205203295E0;-9.531230927E0;1.078597426E0
1.973749531E1;2.201027870E0;-9.142192841E0;9.167781472E-1
1.974941094E1;2.180629492E0;-8.760269165E0;8.472217917E-1
1.976131875E1;2.204226494E0;-8.285920143E0;6.412438154E-1
1.977323125E1;2.349832296E0;-8.068421364E0;3.545621037E-1
1.978514219E1;2.549815178E0;-8.070873260E0;1.876671016E-1
1.979705469E1;2.590401888E0;-8.329188347E0;3.758322001E-1
1.980896875E1;2.341826200E0;-8.554837227E0;7.784890532E-1
1.982088281E1;2.067804813E0;-8.775707245E0;1.124815106E0
1.983278906E1;1.942626595E0;-9.212524414E0;1.345895767E0
1.984470156E1;1.797949672E0;-9.807540894E0;1.515596628E0
1.985661250E1;1.620864987E0;-1.029789257E1;1.776775360E0
1.986852344E1;1.381655574E0;-1.058585739E1;1.902758360E0
1.988043594E1;1.178368688E0;-1.056892586E1;1.792912364E0
1.989234688E1;1.125696182E0;-1.032896900E1;1.608683228E0
1.990425781E1;1.219750047E0;-1.003517151E1;1.146248102E0
1.991617031E1;1.452303648E0;-9.669078827E0;6.944717169E-1
1.992808906E1;1.765216231E0;-9.542694092E0;4.869519174E-1
1.993999375E1;1.997329235E0;-9.727066994E0;4.040454626E-1
1.995190469E1;2.018915415E0;-1.026191235E1;3.652785718E-1
1.996381719E1;1.832838058E0;-1.123115253E1;1.814134568E-1
1.997572812E1;1.435841084E0;-1.206337738E1;-4.474380016E-1
1.998763906E1;1.007949352E0;-1.253398132E1;-2.365145683E0
1.999955156E1;1.190962195E0;-1.219699192E1;-5.725848198E0
2.001146250E1;2.037293196E0;-1.147759151E1;-8.342844963E0
2.002337500E1;2.174864054E0;-1.035991192E1;-1.041767025E1
2.003528594E1;5.994027853E-1;-9.725074768E0;-9.456636429E0
2.004719688E1;-7.149756551E-1;-9.828399658E0;-3.931595325E0
2.005910938E1;-9.005741477E-1;-9.645261765E0;2.364781857E0
2.007102031E1;-9.498276711E-1;-9.489658356E0;3.969184160E0
2.008293281E1;-1.338607788E0;-9.649897575E0;3.318612576E0
2.009484375E1;-1.097502112E0;-9.680523872E0;3.147312164E0
2.010675625E1;-9.818046093E-1;-9.523128510E0;3.186462164E0
2.011866719E1;-4.803247452E-1;-9.698498726E0;2.996084929E0
2.013057812E1;-3.078943491E-1;-1.043853664E1;1.330007792E0
2.014249062E1;-7.979874015E-1;-1.106204510E1;-1.660551310E0
2.015440156E1;-1.667130470E0;-1.141648197E1;-4.740835667E0
2.016631406E1;-2.393809080E0;-1.143114471E1;-5.474102497E0
2.017823438E1;-1.860936403E0;-1.031564713E1;-3.733709812E0
2.019013594E1;-5.566423535E-1;-8.869942665E0;-2.196689606E0
2.020204844E1;8.013488650E-1;-7.295333385E0;-1.339527130E0
2.021396094E1;1.626304507E0;-5.875284672E0;-1.245147705E0
2.022587812E1;2.273715734E0;-4.826566696E0;-1.893497586E0
2.023778281E1;2.439835310E0;-4.557526112E0;-2.921874285E0
2.024969688E1;2.247063637E0;-4.926941395E0;-3.239977360E0
2.026160625E1;1.463297725E0;-5.494156837E0;-2.649528980E0
2.027351719E1;8.829624653E-1;-6.320031643E0;-2.142456293E0
2.028542969E1;7.727908492E-1;-7.286571026E0;-2.290341377E0
2.029734062E1;-1.362779643E-2;-8.176993370E0;-3.671996832E0
2.030925156E1;-1.523344398E0;-9.538211823E0;-6.246980190E0
2.032116406E1;-1.985645533E0;-1.071465588E1;-7.147247791E0
2.033307656E1;-1.787041783E0;-1.123361301E1;-7.110922813E0
2.034498750E1;-8.473749757E-1;-1.031656742E1;-7.583384991E0
2.035690000E1;9.381439686E-1;-8.133371353E0;-7.012061596E0
2.036881094E1;2.041813374E0;-6.386916161E0;-5.439185619E0
2.038072188E1;1.249428511E0;-5.847320080E0;-2.407599688E0
2.039263438E1;-5.653955340E-1;-6.425481796E0;2.027984619E0
2.040455938E1;-1.458815813E0;-7.003432751E0;5.194498539E0
2.041646875E1;-2.373190165E0;-7.770362377E0;2.734235764E0
2.042836875E1;-3.906389236E0;-9.006336212E0;-2.045452833E0
2.044027969E1;-4.206028461E0;-9.497989655E0;-4.783519268E0
2.045219219E1;-3.749913692E0;-8.960769653E0;-5.000482082E0
2.046410312E1;-3.779553890E0;-8.187202454E0;-4.493811131E0
2.047601563E1;-3.394087315E0;-7.546475887E0;-4.279692650E0
2.048792656E1;-2.754414082E0;-7.492223263E0;-4.305176735E0
2.049983750E1;-2.442966700E0;-8.295582771E0;-4.266726017E0
2.051175000E1;-2.286146402E0;-9.040860176E0;-4.764825344E0
2.052366719E1;-2.165565014E0;-9.206864357E0;-5.789696693E0
2.053557344E1;-2.083443880E0;-9.057639122E0;-6.937630177E0
2.054748438E1;-3.115028858E0;-9.203110695E0;-7.438095093E0
2.055939531E1;-4.421142578E0;-9.459347725E0;-7.335862637E0
2.057130781E1;-5.034192562E0;-9.803949356E0;-6.770955563E0
2.058321875E1;-5.546915054E0;-1.043970585E1;-6.614365101E0
2.059513125E1;-6.513597965E0;-1.142253494E1;-6.839516163E0
2.060704219E1;-7.501848221E0;-1.283170509E1;-8.816772461E0
2.061895312E1;-8.101738930E0;-1.526839828E1;-1.487561512E1
2.063086563E1;-8.788252831E0;-1.967747498E1;-1.801501846E1
2.064277656E1;-9.157113075E0;-2.453293610E1;-1.071091080E1
2.065468906E1;-5.993357658E0;-2.214803123E1;-1.959443331E0
2.066660000E1;9.312487245E-1;-1.083916378E1;1.914978266E0
2.067851094E1;5.705554962E0;-4.965574443E-1;2.469178438E0
2.069042344E1;3.998699903E0;3.945807219E0;5.896832466E0
2.070235313E1;3.469801426E0;4.712736607E0;7.431516171E0
2.071424688E1;4.439079762E0;1.842596769E0;1.040723038E1
2.072615781E1;4.121139050E0;-4.515071869E0;8.954668999E0
2.073806875E1;4.649300098E0;-1.012381458E1;5.126407146E0
2.074998125E1;5.800269604E0;-1.702085876E1;-2.206410170E0
2.076189844E1;5.436207294E0;-2.221867943E1;-3.922104597E0
2.077380781E1;3.977152109E0;-2.112433815E1;-2.183827877E0
2.078571562E1;1.440658212E0;-1.396772480E1;3.365385830E-1
2.079762656E1;8.419449329E-1;-9.114515305E0;1.619600773E0
2.080953906E1;1.490697026E0;-6.801189423E0;1.648360044E-1
2.082145625E1;1.428639293E0;-5.760152340E0;4.192821681E-1
2.083336250E1;1.101438165E0;-5.462533951E0;9.033514261E-1
2.084527344E1;1.200175047E0;-5.529859066E0;8.074588776E-1
2.085718594E1;1.404486537E0;-6.098519802E0;4.400447011E-1
2.086909688E1;2.029794693E0;-7.045417309E0;-1.360864192E-1
2.088101250E1;2.934965611E0;-7.978992939E0;-1.162365675E0
2.089292031E1;3.971319914E0;-9.012416840E0;-1.831832409E0
2.090483125E1;4.350140095E0;-9.868238449E0;-2.198863506E0
2.091674375E1;4.564066887E0;-1.022452450E1;-2.327528000E0
2.092865469E1;4.852347851E0;-9.708574295E0;-3.472703457E0
2.094056719E1;4.416516781E0;-8.708333969E0;-4.298904419E0
2.095248750E1;2.619208813E0;-8.375358582E0;-2.673882723E0
2.096439062E1;1.133443832E0;-8.638050079E0;-2.817496657E-1
2.097630156E1;-2.140895277E-1;-9.285020828E0;1.305261374E0
2.098821250E1;-1.337726712E0;-1.018567181E1;2.068628550E0
2.100012500E1;-1.805793047E0;-1.072836971E1;1.752929211E0
2.101204219E1;-1.661240816E0;-1.081731892E1;6.679631472E-1
2.102394688E1;-1.172363997E0;-1.045981693E1;-4.971607625E-1
2.103585938E1;-3.475039899E-1;-9.900876045E0;-1.130599499E0
2.104777031E1;2.687251866E-1;-9.961143494E0;-1.452581286E0
2.105968125E1;3.500705957E-1;-1.038602734E1;-2.213918209E0
2.107159375E1;3.412407935E-1;-1.049810505E1;-2.508769035E0
2.108350781E1;6.735655665E-1;-1.069028282E1;-1.220669270E0
2.109541719E1;1.352197289E0;-1.090228558E1;2.501940727E-1
2.110732813E1;1.907259345E0;-1.060119915E1;1.351479053E0
2.111924062E1;1.981594563E0;-9.617460251E0;1.633372307E0
2.113115156E1;1.961866379E0;-8.724011421E0;1.466850758E0
2.114306406E1;2.287812948E0;-8.500900269E0;1.155336380E0
2.115497500E1;3.147982597E0;-8.689860344E0;9.504885077E-1
2.116688594E1;3.924134970E0;-9.055474281E0;8.967722058E-1
2.117879844E1;4.276245117E0;-9.334599495E0;9.074215889E-1
2.119070938E1;4.379377842E0;-9.313645363E0;8.834316730E-1
2.120262031E1;4.279922962E0;-9.011009216E0;9.631873369E-1
2.121453281E1;4.232929707E0;-8.526987076E0;8.602653742E-1
2.122644375E1;3.915410519E0;-8.457306862E0;3.520434350E-2
2.123836250E1;3.311621666E0;-8.858306885E0;-1.009021878E0
2.125026719E1;3.470289946E0;-8.997946739E0;-9.994930625E-1
2.126217813E1;3.410866022E0;-9.157668114E0;1.186853647E-1
2.127409063E1;3.080169201E0;-9.368741035E0;1.290886521E0
2.128600156E1;2.869833708E0;-9.458580971E0;1.672235012E0
2.129791406E1;2.849559784E0;-9.353206635E0;1.193567038E0
2.130982500E1;2.510732174E0;-9.206174850E0;2.859347165E-1
2.132173750E1;1.992694139E0;-9.094902039E0;-3.269234598E-1
2.133364844E1;2.153507710E0;-8.951211929E0;-3.257455230E-1
2.134556094E1;2.730309248E0;-9.112034798E0;1.830510795E-1
2.135748906E1;2.936976910E0;-9.252096176E0;2.656127214E-1
2.136938281E1;2.664497614E0;-9.061746597E0;6.143713593E-1
2.138129531E1;2.299036980E0;-8.925488472E0;1.173130155E0
2.139320625E1;1.892740965E0;-8.980296135E0;1.325841904E0
2.140511875E1;1.954386830E0;-9.097985268E0;1.019910812E0
2.141703125E1;2.496032000E0;-9.295574188E0;7.079846263E-1
2.142894219E1;3.007414341E0;-9.480904579E0;9.352135062E-1
2.144085312E1;3.416975737E0;-9.526069641E0;1.075551987E0
2.145276562E1;3.759318113E0;-9.251223564E0;1.204379320E0
2.146467656E1;4.194037914E0;-9.088782310E0;1.033145905E0
2.147658750E1;4.471966267E0;-9.173460007E0;7.729249001E-1
2.148850000E1;4.324349403E0;-9.236361504E0;7.842064500E-1
2.150041094E1;3.758839130E0;-9.273116112E0;1.173302531E0
2.151232344E1;2.975188255E0;-9.316987991E0;1.738774657E0
2.152423438E1;1.994216800E0;-9.243524551E0;2.200711966E0
2.153616094E1;7.262092829E-1;-8.952897072E0;2.445504665E0
2.154806875E1;-2.574916184E-1;-8.932756424E0;2.463221788E0
2.155997188E1;-1.004166484E0;-9.603765488E0;2.293329000E0
2.157187969E1;-1.235618830E0;-1.031079197E1;1.771297455E0
2.158379219E1;-8.872528672E-1;-1.019048786E1;8.237586021E-1
2.159570312E1;-9.516472369E-2;-9.321067810E0;1.683315337E-1
2.160761562E1;8.499511480E-1;-8.426996231E0;1.247379109E-1
2.161952656E1;1.631428242E0;-8.221133232E0;5.562688112E-1
2.163143906E1;2.533390999E0;-8.278757095E0;1.120572686E0
2.164335000E1;3.317089796E0;-8.830074310E0;1.398194551E0
2.165526094E1;3.981739521E0;-9.238802910E0;1.523918986E0
2.166717344E1;4.821290016E0;-9.121822357E0;1.521840811E0
2.167909219E1;5.100042343E0;-8.868448257E0;6.338888407E-1
2.169099688E1;4.391664982E0;-8.587398529E0;-5.736602545E-1
2.170290781E1;3.198088408E0;-8.497078896E0;-6.382271051E-1
2.171481875E1;2.785260916E0;-8.433336258E0;4.751915932E-1
2.172673125E1;2.566450119E0;-8.992009163E0;1.248556972E0
2.173864219E1;2.381004810E0;-1.017405510E1;1.649020791E0
2.175055312E1;1.902442217E0;-1.126100254E1;1.855027437E0
2.176246562E1;1.157184720E0;-1.197550011E1;1.928740144E0
2.177437969E1;3.169540167E-1;-1.224502087E1;1.496644139E0
2.178628906E1;-2.046659440E-1;-1.136878967E1;-7.647463083E-1
2.179820000E1;8.054094389E-3;-9.656725883E0;-1.064299345E0
2.181011250E1;1.101648808E0;-8.301416397E0;7.220912259E-3
2.182202500E1;1.977859616E0;-7.658313751E0;8.167962432E-1
2.183393594E1;2.617465734E0;-7.720697403E0;1.618442059E0
2.184584688E1;3.558837175E0;-8.379955292E0;2.385056019E0
2.185775938E1;4.014587879E0;-8.968153000E0;2.898286581E0
2.186967031E1;3.763972521E0;-9.424736023E0;3.046047211E0
2.188158125E1;3.491425991E0;-9.493651390E0;2.527395964E0
2.189349688E1;3.271178722E0;-8.861888885E0;1.116330028E0
2.190540469E1;2.805726528E0;-8.198397636E0;5.631067157E-1
2.191731719E1;2.606672764E0;-7.828723431E0;9.892745614E-1
2.192922812E1;2.442583799E0;-8.167321205E0;1.613165140E0
2.194113906E1;2.302206755E0;-8.785455704E0;2.616153717E0
2.195305156E1;2.425508261E0;-9.003337860E0;3.326341152E0
2.196496250E1;2.636178970E0;-8.733272552E0;3.337996006E0
2.197687500E1;2.932580948E0;-8.106891632E0;2.709240198E0
2.198878594E1;3.275153160E0;-7.410130978E0;1.574360013E0
2.200069688E1;3.426131248E0;-6.872862339E0;5.129529238E-1
2.201261563E1;3.267778873E0;-6.574975967E0;-1.131250739E0
2.202452031E1;3.484712601E0;-6.487692833E0;-2.881948471E0
2.203643281E1;4.119003773E0;-6.853335381E0;-2.451882839E0
2.204834375E1;5.113650799E0;-6.980601788E0;-5.639685392E-1
2.206025625E1;6.029174328E0;-7.467888832E0;6.282289624E-1
2.207217031E1;6.240553856E0;-8.759694099E0;1.212711096E0
2.208407812E1;5.882591724E0;-1.077910709E1;1.009251714E0
2.209599063E1;5.292564869E0;-1.251751900E1;9.898012877E-1
2.210790156E1;4.320461273E0;-1.362064266E1;2.077965975E0
2.211981406E1;4.056630135E0;-1.347829342E1;4.001055717E0
2.213172500E1;3.335343361E0;-1.328341389E1;5.735625744E0
2.214363750E1;1.252397299E0;-1.339102840E1;7.526048183E0
2.215555156E1;-1.602199793E0;-1.405464363E1;9.147105217E0
2.216745938E1;-4.383946419E0;-1.471324158E1;7.972672462E0
2.217937188E1;-6.554596424E0;-1.511104202E1;3.606003046E0
2.219128281E1;-7.427934170E0;-1.503403473E1;-1.004646301E1
2.220319531E1;-4.753802299E0;-1.380717945E1;-8.392184258E0
2.221510625E1;-2.111647606E0;-1.273962402E1;2.955287695E0
2.222701875E1;-5.031941533E-1;-1.174115562E1;5.981587410E0
2.223892969E1;-1.379730552E-1;-1.182399559E1;6.704061508E0
2.225084063E1;-7.439072132E-1;-1.268848324E1;6.243915081E0
2.226275156E1;-8.196884990E-1;-1.299424171E1;4.557018280E0
2.227466562E1;-8.422897458E-1;-1.306048489E1;2.722351074E0
2.228657500E1;-8.969349861E-1;-1.268075466E1;7.815823555E-1
2.229848750E1;-1.319099784E0;-1.216674900E1;-2.372558117E-1
2.231041875E1;-2.002778530E0;-1.194664574E1;-2.216647714E-1
2.232231094E1;-2.373783827E0;-1.169652748E1;3.420069218E-1
2.233422188E1;-2.044811010E0;-1.143538761E1;1.036746860E0
2.234613281E1;-1.685173273E0;-1.141908836E1;2.048747063E0
2.235804531E1;-1.419301867E0;-1.156966400E1;2.682003975E0
2.236997188E1;-1.353729486E0;-1.138919830E1;2.813205957E0
2.238186875E1;-1.540965676E0;-1.062819672E1;2.660695553E0
2.239377969E1;-1.720664859E0;-9.646018982E0;2.486072063E0
2.240569219E1;-1.664046764E0;-8.612881660E0;2.468077183E0
2.241760313E1;-1.444134474E0;-7.696295261E0;2.495782852E0
2.242951406E1;-1.181461930E0;-6.786642551E0;2.435726881E0
2.244142969E1;-1.089084148E0;-6.156153202E0;2.443503141E0
2.245333750E1;-9.345335364E-1;-5.671796799E0;2.374712944E0
2.246525000E1;-5.435221195E-1;-5.389108181E0;2.249113083E0
2.247716094E1;-2.737147212E-1;-5.625627041E0;1.951676607E0
2.248907344E1;-9.993397444E-2;-6.105846405E0;1.695429921E0
2.250098438E1;2.038902044E-2;-6.494472980E0;1.313085556E0
2.251289688E1;2.442181557E-1;-6.551934242E0;8.546821475E-1
2.252480781E1;9.076035619E-1;-6.190036297E0;-3.335601687E-1
2.253672031E1;1.957518458E0;-5.567380905E0;-2.300914049E0
2.254863125E1;2.570788383E0;-5.238829613E0;-2.681630373E0
2.256054219E1;2.552535057E0;-5.660458088E0;-1.443234324E0
2.257245625E1;2.169855356E0;-6.435365200E0;-5.010872483E-1
2.258436562E1;1.799165964E0;-7.261881828E0;1.128147915E-2
2.259627656E1;1.509812355E0;-8.026666641E0;2.077592462E-1
2.260819063E1;1.677329779E0;-8.528386116E0;-7.420109212E-2
2.262010312E1;2.485334396E0;-8.789899826E0;-9.319286346E-1
2.263201875E1;3.237669468E0;-9.124025345E0;-1.465040803E0
2.264392344E1;3.299190760E0;-9.727536201E0;-1.469982386E0
2.265583438E1;3.000854015E0;-1.046287251E1;-1.009117723E0
2.266774531E1;2.677493095E0;-1.096908283E1;-5.897301435E-1
2.267965781E1;2.153469563E0;-1.115363789E1;-3.372951597E-2
2.269156875E1;1.705677152E0;-1.105953598E1;1.817390621E-1
2.270348750E1;1.147081137E0;-1.056587982E1;-3.440180719E-1
2.271539219E1;2.185714543E-1;-9.989844322E0;-1.217777252E0
2.272730313E1;-6.107608676E-1;-9.335834503E0;-1.635708928E0
2.273921875E1;-1.182927132E0;-8.745721817E0;-1.081968546E0
2.275112969E1;-1.835270524E0;-8.516654015E0;1.296508163E-1
2.276303906E1;-2.505512953E0;-8.456052780E0;1.770655751E0
2.277495000E1;-2.763521671E0;-8.309757233E0;3.105978727E0
2.278688125E1;-2.386463642E0;-8.352431297E0;3.308729172E0
2.279877344E1;-1.922553539E0;-8.846786499E0;2.855928183E0
2.281068750E1;-1.949952722E0;-9.945686340E0;2.273668051E0
2.282259688E1;-1.991362929E0;-1.099439430E1;1.616967201E0
2.283450938E1;-1.250778794E0;-1.139824772E1;1.563413739E-1
2.284642031E1;-1.667034775E-1;-1.150240612E1;-1.778231025E0
2.285833125E1;1.286720634E0;-1.133895779E1;-3.473881245E0
2.287024375E1;2.645267248E0;-1.124189758E1;-4.150674343E0
2.288215469E1;3.263392687E0;-1.179861641E1;-3.083367825E0
2.289406563E1;2.841495991E0;-1.243273544E1;-1.128837347E0
2.290597969E1;1.791217208E0;-1.225309372E1;5.336579680E-1
2.291788906E1;1.976614594E0;-1.000559902E1;7.317159176E-1
2.292980156E1;2.247944832E0;-7.517687798E0;-6.347028613E-1
2.294171250E1;2.214339495E0;-5.721433640E0;-2.075725079E0
2.295362500E1;1.445504069E0;-5.097935677E0;-2.047080755E0
2.296553594E1;-1.251784414E-1;-6.185266972E0;-1.593005955E-1
2.297744844E1;-8.287194371E-1;-7.905549049E0;1.691407681E0
2.298935938E1;-7.231446505E-1;-9.787859917E0;2.498445272E0
2.300127031E1;5.908889696E-2;-1.184626102E1;2.388177872E0
2.301318281E1;1.111896038E0;-1.261427307E1;1.468536258E0
2.302509531E1;2.125246525E0;-1.176960850E1;5.015661120E-1
2.303700469E1;2.298529387E0;-1.171325874E1;-1.090798229E-1
2.304892031E1;2.176549673E0;-1.225115871E1;-1.776114702E-1
2.306082812E1;2.456671238E0;-1.216478539E1;1.681783050E-1
2.307274062E1;3.389547825E0;-1.097888947E1;2.240685374E-1
2.308465781E1;4.872928143E0;-9.480425835E0;-2.878309190E-1
2.309656406E1;5.043271065E0;-8.823198318E0;2.240302414E-1
2.310847812E1;4.458463192E0;-8.537359238E0;8.878657818E-1
2.312038594E1;3.165230513E0;-7.663954735E0;1.648436666E0
2.313229844E1;2.046525240E0;-6.401070595E0;2.115717888E0
2.314421875E1;1.593858361E0;-5.639954090E0;1.489241362E0
2.315612188E1;2.534731627E0;-5.745442390E0;8.655135036E-1
2.316803281E1;4.340821743E0;-6.793930054E0;3.398808539E-1
2.317994375E1;4.998404026E0;-7.541802406E0;-5.658072829E-1
2.319185625E1;4.509498119E0;-7.461912632E0;-2.059789181E0
2.320376719E1;3.177440882E0;-6.990350723E0;-4.011887074E0
2.321567812E1;2.434328556E0;-6.636066437E0;-6.461978912E0
2.322759062E1;2.684206486E0;-6.448657513E0;-5.745251179E0
2.323950156E1;2.918416977E0;-6.231963158E0;-3.532797813E0
2.325141406E1;3.661509991E0;-6.079117775E0;-2.594519854E0
2.326332656E1;4.230439663E0;-6.222367287E0;-3.291931450E-1
2.327523750E1;5.056209087E0;-6.830360413E0;2.430603027E0
2.328714844E1;7.490891933E0;-7.398964405E0;4.443523407E0
2.329905938E1;9.884575844E0;-8.084759712E0;5.218871117E0
2.331097188E1;1.234890938E1;-9.092067719E0;5.515905857E0
2.332289063E1;1.360758877E1;-1.073612690E1;4.449221611E0
2.333480469E1;1.046844673E1;-1.261867905E1;2.926911592E0
2.334670625E1;6.564412594E0;-1.204379177E1;1.437660694E0
2.335861875E1;5.048595905E0;-9.894220352E0;-2.341816574E-1
2.337052969E1;5.303166389E0;-9.244166374E0;-1.330946326E0
2.338244219E1;4.959751606E0;-1.024073792E1;-2.677905083E0
2.339435313E1;3.794321299E0;-1.161946297E1;-4.229261875E0
2.340626563E1;2.656136990E0;-1.236389732E1;-4.396702766E0
2.341817656E1;1.696943164E0;-1.222045612E1;-4.265289783E0
2.343008750E1;1.071874499E0;-1.189996815E1;-3.561193228E0
2.344200625E1;1.365719676E0;-1.188968277E1;-1.453902960E0
2.345391094E1;1.683114290E0;-1.184620285E1;-1.323418915E-1
2.346582188E1;2.256458521E0;-1.114046001E1;3.297945738E0
2.347773438E1;1.893621922E0;-9.957292557E0;5.272013187E0
2.348964531E1;6.609145999E-1;-9.301425934E0;2.714641690E-1
2.350155938E1;8.645749688E-1;-8.775707245E0;1.149351001E0
2.351347344E1;1.847653270E0;-8.432875633E0;2.430564880E0
2.352537969E1;2.673844576E0;-8.026733398E0;2.134172440E0
2.353729219E1;3.731305838E0;-7.457995415E0;2.135225534E0
2.354920313E1;5.114464760E0;-7.319467068E0;5.297219157E-1
2.356112188E1;5.790281296E0;-8.098789215E0;9.330012202E-1
2.357302656E1;5.399681568E0;-9.357048035E0;1.293931842E0
2.358493906E1;4.816137791E0;-1.046288204E1;1.453376114E-1
2.359685000E1;4.155137062E0;-1.178962421E1;-8.250802159E-1
2.360876094E1;4.072278500E0;-1.330387974E1;-1.758320928E0
2.362067344E1;4.465569496E0;-1.508896732E1;-2.254715681E0
2.363258594E1;4.835032940E0;-1.620807457E1;-2.980857611E0
2.364449688E1;3.664009809E0;-1.587249374E1;-3.173868656E0
2.365640781E1;2.124241114E0;-1.455490685E1;-3.214436054E0
2.366832031E1;2.200606346E0;-1.402964878E1;-1.982322335E0
2.368023750E1;2.834591150E0;-1.489080429E1;-2.475796223E0
2.369214219E1;1.160871863E0;-1.551507854E1;-4.077536106E0
2.370405469E1;-1.635527015E-1;-1.489995003E1;-5.486237049E0
2.371596563E1;-5.948155001E-2;-1.223709965E1;-5.976396561E0
2.372787656E1;3.021386862E-1;-8.670993805E0;-5.756283283E0
2.373980000E1;-1.998353958E0;-6.221783161E0;-5.796017647E0
2.375170156E1;-3.923713684E0;-5.602509022E0;-6.780676365E0
2.376361094E1;-3.166934967E0;-5.843097210E0;-8.227684021E0
2.377552344E1;-7.677247524E-1;-6.416345596E0;-1.011222649E1
2.378744219E1;1.703455329E0;-6.926904202E0;-1.014676094E1
2.379937188E1;1.979822874E0;-7.497777939E0;-7.595489979E0
2.381125781E1;-2.015630454E-1;-7.769711494E0;-4.253778458E0
2.382317031E1;-3.250464201E0;-7.841297626E0;-2.602439642E0
2.383508125E1;-6.225585461E0;-8.424409866E0;-2.940826654E0
2.384699375E1;-7.788079739E0;-9.466366768E0;-3.222049475E0
2.385890469E1;-7.519248962E0;-1.000488949E1;-2.504459381E0
2.387081719E1;-5.872603416E0;-9.188390732E0;-2.587940395E-1
2.388272812E1;-2.775904655E0;-7.848767757E0;2.696398020E0
2.389463906E1;1.021079198E-1;-6.893461704E0;4.419571877E0
2.390655156E1;1.951149940E0;-6.111008167E0;4.085791588E0
2.391846406E1;3.606223106E0;-5.243484020E0;2.183224678E0
2.393037500E1;5.867182732E0;-4.582310677E0;-1.355951309E0
2.394228594E1;6.094440460E0;-5.232019901E0;8.051317334E-1
2.395419844E1;4.907701492E0;-7.117061615E0;3.923943281E0
2.396610938E1;2.631601095E0;-8.886098862E0;3.961101294E0
2.397802031E1;2.041775227E0;-8.450833321E0;1.136728644E0
2.398993281E1;2.494959116E0;-7.109438419E0;-1.512206554E0
2.400184844E1;2.236835718E0;-6.415627480E0;-4.854454517E0
2.401375625E1;8.226956129E-1;-6.836250305E0;-8.889163017E0
2.402566719E1;-1.238501310E0;-7.763409615E0;-1.090132713E1
2.403757813E1;-2.612907171E0;-8.592913628E0;-1.009949017E1
2.404949062E1;-2.314311981E0;-9.504377365E0;-6.930313587E0
2.406140156E1;-1.441606283E0;-1.106553078E1;-3.272097826E0
2.407331406E1;-1.617024660E0;-1.272820759E1;-4.894801676E-1
2.408522500E1;-2.474771500E0;-1.388198376E1;8.569900990E-1
2.409713750E1;-1.563461542E0;-1.384095669E1;1.712448001E0
2.410904844E1;-5.873455480E-2;-1.312442970E1;2.608731747E0
2.412095938E1;-4.021013677E-1;-1.224256802E1;9.866122603E-1
2.413287188E1;-7.455448508E-1;-1.047242928E1;-1.242351294E0
2.414478281E1;1.302646875E0;-8.184128761E0;-1.341365814E0
2.415670000E1;3.706808329E0;-7.070747852E0;-9.491573274E-2
2.416860625E1;5.756944180E0;-7.655115128E0;1.649815679E0
2.418051719E1;6.872125149E0;-9.646765709E0;2.293262243E0
2.419242969E1;7.242010117E0;-1.214725971E1;2.080484629E0
2.420434062E1;8.133783340E0;-1.380361652E1;1.914269686E0
2.421625156E1;9.799276352E0;-1.377096939E1;1.478697300E0
2.422816406E1;8.999737740E0;-1.175642109E1;1.250424504E0
2.424007500E1;6.902933598E0;-9.345077515E0;8.726385832E-1
2.425198750E1;4.156449318E0;-8.384753227E0;-4.633354843E-1
2.426389844E1;2.261103153E0;-8.516836166E0;-2.082170248E0
2.427580938E1;1.534874916E0;-9.005646706E0;-3.153221130E0
2.428773125E1;2.772868574E-1;-9.857493401E0;-3.877390385E0
2.429963281E1;-1.177296042E0;-1.061593819E1;-3.746963978E0
2.431154531E1;-2.624485493E0;-1.122928524E1;-3.263421297E0
2.432345781E1;-3.512236357E0;-1.087864971E1;-2.373429775E0
2.433537031E1;-3.558454037E0;-1.007199478E1;-8.645175099E-1
2.434728281E1;-3.315174580E0;-9.687897682E0;1.611872315E0
2.435919219E1;-1.096783757E0;-9.422285080E0;3.477482080E0
2.437110312E1;2.450915575E0;-8.666934013E0;2.954167128E0
2.438301406E1;5.069913387E0;-8.302325249E0;1.795747042E0
2.439492656E1;6.896842957E0;-8.054458618E0;2.167125940E0
2.440683750E1;6.542778969E0;-8.115013123E0;1.842261553E0
2.441875000E1;4.014348507E0;-8.271209717E0;1.325975895E0
2.443066094E1;1.616201043E0;-8.582705498E0;1.221617460E0
2.444257188E1;-7.948749699E-3;-8.443746567E0;6.169953346E-1
2.445448438E1;-9.754552841E-1;-8.316566467E0;-9.140583277E-1
2.446639531E1;-9.860950708E-1;-7.750462055E0;-2.405119389E-1
2.447830781E1;-4.341549575E-1;-7.563532352E0;-1.569638699E-1
2.449022031E1;-4.986451864E-1;-8.104228973E0;-7.295515537E-1
2.450213281E1;-9.964092970E-1;-8.958795547E0;-7.840627432E-1
2.451404688E1;-9.061287045E-1;-9.451666832E0;-5.470750928E-1
2.452595469E1;-6.355360746E-1;-9.486468315E0;-3.598484993E-1
2.453786563E1;-1.050671488E-1;-9.556235313E0;1.524340361E-1
2.454977656E1;1.000297442E-1;-9.712433815E0;9.366691709E-1
2.456168906E1;3.845949769E-1;-9.860874176E0;1.396537900E0
