"Time (s)";"Acceleration x (m/s^2)";"Acceleration y (m/s^2)";"Acceleration z (m/s^2)"
0.000000000E0;-3.218180656E0;5.552853107E0;1.046675110E1
1.191250000E-2;-3.365979433E0;6.431342602E0;7.651150227E0
2.382343800E-2;-2.915333271E0;7.167292118E0;4.468164444E0
3.573437500E-2;-2.467502594E0;7.693949223E0;2.117776871E0
4.764687500E-2;-2.219089746E0;7.824959755E0;9.281554222E-1
5.955937500E-2;-2.374703407E0;7.226610184E0;1.271742463E0
7.147031300E-2;-2.979009628E0;6.273938656E0;2.918684959E0
8.338125000E-2;-3.821873665E0;5.089086533E0;6.758563519E0
9.529218800E-2;-3.878482103E0;4.279262066E0;1.077766228E1
1.072046880E-1;-3.331033707E0;4.298185825E0;1.283860970E1
1.191156250E-1;-3.034430504E0;4.420864582E0;1.264383698E1
1.310281250E-1;-3.039649725E0;4.701340675E0;1.104137802E1
1.429390630E-1;-2.976663113E0;5.584025383E0;9.262141228E0
1.548515630E-1;-2.279174566E0;6.092984676E0;6.219082355E0
1.667625000E-1;-2.152990818E0;6.237833977E0;4.418872356E0
1.786953130E-1;-2.928348064E0;6.347689629E0;3.665714264E0
1.905859380E-1;-3.441655159E0;6.201422691E0;3.616087437E0
2.024968750E-1;-3.495400429E0;5.979221821E0;5.014779568E0
2.144078130E-1;-2.649701357E0;5.721586227E0;6.199114799E0
2.263296880E-1;-2.843516827E0;5.806465626E0;7.866868019E0
2.382328130E-1;-2.836564064E0;5.691352367E0;8.395460129E0
2.501437500E-1;-2.477874279E0;5.255885601E0;8.842658043E0
2.620546880E-1;-2.223590851E0;4.799158096E0;9.261039734E0
2.739671880E-1;-2.229097605E0;4.450543404E0;9.324553490E0
2.859000000E-1;-2.346097469E0;4.281349659E0;9.016362190E0
2.977906250E-1;-2.414600372E0;4.555859566E0;8.843788147E0
3.097015630E-1;-2.374808550E0;4.917527199E0;8.428873062E0
3.216140630E-1;-2.335151196E0;5.167184830E0;7.867959499E0
3.335250000E-1;-2.235102177E0;5.325872898E0;7.370722294E0
3.454359380E-1;-1.801742077E0;5.533651352E0;6.424170017E0
3.573484380E-1;-1.503587365E0;5.738125801E0;5.831825256E0
3.692593750E-1;-1.448214412E0;5.946038246E0;5.175976753E0
3.811718750E-1;-2.153182030E0;4.957443714E0;5.871214867E0
3.930828130E-1;-2.281358242E0;2.632194757E0;6.815458775E0
4.050187500E-1;-1.614831567E0;1.866931438E0;8.096950531E0
4.169062500E-1;-1.018742323E0;1.710015535E0;1.008017349E1
4.288234380E-1;-4.799129367E-1;2.116100788E0;1.108204079E1
4.407296880E-1;-3.547536731E-1;2.591091394E0;1.262143612E1
4.526406250E-1;-4.346050620E-1;2.893009663E0;1.428854752E1
4.645609380E-1;-7.689505816E-1;2.472501755E0;1.517988110E1
4.764687500E-1;-1.317567468E0;1.867046356E0;1.527587795E1
4.883765630E-1;-1.247991920E0;1.050001144E0;1.429470634E1
5.002875000E-1;-1.592824101E0;-7.387548685E-1;1.249295425E1
5.121984380E-1;-1.374405861E0;-1.907766938E0;1.072454929E1
5.241109380E-1;-1.825119138E0;-2.478812695E0;9.538978577E0
5.360218750E-1;-2.516411304E0;-2.687750101E0;8.797628403E0
5.479328130E-1;-3.792396307E0;-2.958065033E0;8.344310760E0
5.598453130E-1;-5.472168446E0;-2.364887238E0;7.208156109E0
5.717578130E-1;-5.759232998E0;-7.190458179E-1;8.009179115E0
5.836687500E-1;-4.774517059E0;-4.408682883E-1;6.886212349E0
5.955890630E-1;-2.378390312E0;1.196564555E0;7.478317738E0
6.074921880E-1;1.571707249E0;7.735062599E0;2.751091003E0
6.194031250E-1;2.595314570E-2;8.158720970E0;6.007636070E0
6.313265630E-1;-2.583075523E0;3.131788015E0;1.466139221E1
6.432250000E-1;-8.952877522E-1;1.514093112E-2;9.089625359E0
6.551437500E-1;-7.128879428E-1;-5.918849707E-1;1.360439110E1
6.670484380E-1;2.762238383E-1;5.856791735E-1;1.281427574E1
6.789609380E-1;7.365139127E-1;1.673508644E0;1.208098793E1
6.908718750E-1;2.327259779E-1;1.197072148E0;1.029553604E1
7.027843750E-1;1.843343824E-1;1.744740963E0;8.180459976E0
7.146953130E-1;-4.737167358E-1;2.422721386E0;7.449434280E0
7.266078130E-1;-4.090541303E-1;2.158372879E0;6.913228512E0
7.385187500E-1;6.682408452E-1;1.621535420E0;7.130124092E0
7.504296880E-1;1.455013752E0;1.573670387E0;7.475827694E0
7.623421880E-1;2.581572056E0;1.651233077E0;7.264592171E0
7.742531250E-1;3.013179541E0;1.532356024E0;7.755317211E0
7.861640630E-1;2.394632578E0;9.891979098E-1;8.525761604E0
7.980765630E-1;1.490428805E0;-1.070878506E0;1.054239750E1
8.099875000E-1;2.460329533E0;-1.236643434E0;1.295995712E1
8.219000000E-1;4.859549522E0;3.498503566E-1;1.051652145E1
8.338109380E-1;4.863351345E0;1.892405748E0;9.216661453E0
8.457234380E-1;4.326197624E0;2.406230211E0;7.764146805E0
8.576343750E-1;3.909884453E0;2.252857685E0;6.546657085E0
8.695468750E-1;3.719038010E0;1.598187089E0;5.823120117E0
8.814578130E-1;3.543476105E0;8.849160671E-1;5.557487965E0
8.933734380E-1;4.199602127E0;1.431780577E0;6.030045986E0
9.052812500E-1;4.655467987E0;1.834092498E0;6.173506260E0
9.171921880E-1;5.262713909E0;1.734139442E0;7.697415829E0
9.291109380E-1;5.375203133E0;1.467032671E0;8.787227631E0
9.410156250E-1;5.495718002E0;1.196219683E0;8.857895851E0
9.529281250E-1;5.941383839E0;8.365340829E-1;8.773705482E0
9.648390630E-1;7.310532093E0;1.372413874E0;9.320359230E0
9.767500000E-1;7.138561726E0;5.965297222E-1;9.397232056E0
9.886625000E-1;6.755699635E0;1.148833781E-1;8.865125656E0
1.000575000E0;7.054122448E0;1.151352406E0;8.423740387E0
1.012485938E0;7.249326706E0;2.411324978E0;7.380988598E0
1.024396875E0;7.679267883E0;2.274807692E0;6.585395336E0
1.036307813E0;8.379715919E0;2.217260599E0;7.832880020E0
1.048220313E0;9.406358719E0;2.751866817E0;9.839182854E0
1.060131250E0;9.845396996E0;3.272461891E0;1.059670830E1
1.072043750E0;9.768409729E0;3.013505220E0;9.970192909E0
1.083954688E0;8.892275810E0;1.839953661E0;8.671223640E0
1.095865625E0;7.615917683E0;5.591227412E-1;7.248253822E0
1.107779688E0;7.345439434E0;-6.245514750E-1;5.573586464E0
1.119689063E0;8.275587082E0;-6.970095634E-1;5.150263309E0
1.131604688E0;7.721731663E0;-6.010786891E-1;5.389118195E0
1.143514063E0;7.342882156E0;-1.575815678E0;6.442509174E0
1.155425000E0;7.008278370E0;-1.432565808E0;6.929777145E0
1.167335938E0;7.108164787E0;-8.617498279E-1;6.621519089E0
1.179246875E0;7.705929756E0;-1.244027257E0;6.875257015E0
1.191159375E0;7.732572079E0;-1.445101857E0;6.636669636E0
1.203070313E0;8.616224289E0;-1.494326711E0;5.683461189E0
1.214981250E0;9.217896461E0;-5.036442280E-1;4.174261570E0
1.226893750E0;9.729087830E0;8.696507215E-1;1.989303827E0
1.238804688E0;9.335816383E0;1.588495374E0;8.163940310E-1
1.250715625E0;9.809657097E0;2.473928690E0;-4.721365869E-3
1.262628125E0;1.015338802E1;3.493207216E0;-7.259889841E-1
1.274539063E0;1.056363964E1;4.013438702E0;-1.474493027E0
1.286470313E0;1.053632641E1;4.103929520E0;-1.787874937E0
1.298364063E0;1.004570580E1;3.469217539E0;-1.942932963E0
1.310275000E0;1.173713303E1;3.953516483E0;-1.648963332E0
1.322187500E0;1.357573605E1;2.959242821E0;-6.870400906E-1
1.334098438E0;1.317763901E1;-1.540256977E0;-3.170306087E-1
1.346010938E0;1.303808498E1;-3.042302608E0;-1.536579490E0
1.357921875E0;1.313187981E1;1.485266984E-1;-4.703179359E0
1.369832813E0;1.392456245E1;2.942847490E0;-6.187383533E-1
1.381743750E0;1.273497009E1;1.202042460E0;8.214832306E0
1.393656250E0;1.327168274E1;-5.790903568E-1;1.138350010E1
1.405571875E0;1.346273994E1;9.015892744E-1;2.804673195E0
1.417489063E0;1.410503674E1;-9.474430680E-1;3.023915052E0
1.429392188E0;1.344516563E1;-3.150769472E0;3.469255686E0
1.441303125E0;1.037246704E1;-6.148788452E0;1.249442863E1
1.453214063E0;5.835349560E0;-1.010448933E1;1.416325474E1
1.465126563E0;4.196930408E0;-1.106292534E1;1.089088821E1
1.477037500E0;4.924901962E0;-8.331141472E0;7.069972038E0
1.488950000E0;5.467590332E0;-6.206450462E0;3.607899189E0
1.500860938E0;6.143885136E0;-4.324627399E0;-4.617773533E0
1.512773438E0;6.303023338E0;-2.274003267E0;-9.393535614E0
1.524684375E0;6.146605492E0;-4.549270570E-1;-5.197017193E0
1.536595313E0;5.528758049E0;-6.618244052E-1;-1.516228795E0
1.548507813E0;5.879144192E0;-1.575834870E0;-1.661863178E-1
1.560418750E0;4.628317356E0;-4.668386936E0;8.029003143E-1
1.572329688E0;7.334282875E0;-7.417620182E0;9.487742931E-2
1.584242188E0;1.041807270E1;-7.494541168E0;1.824314713E0
1.596153125E0;9.452183723E0;-5.676498890E0;3.119568110E0
1.608065625E0;1.208263588E1;-2.969777346E0;1.173015118E0
1.619976563E0;1.366575909E1;-2.604824543E0;-2.693247080E0
1.631887500E0;1.227460289E1;-4.907375813E0;-3.360990047E0
1.643810938E0;9.476575851E0;-6.274800301E0;-2.774228573E0
1.655710938E0;7.173152924E0;-5.892197132E0;-3.228341579E0
1.667623438E0;5.822124004E0;-5.021685123E0;-3.215633154E0
1.679534375E0;4.504173279E0;-4.784074783E0;-2.508146524E0
1.691446875E0;3.236137152E0;-5.248415470E0;-2.099590302E0
1.703376563E0;2.520404816E0;-6.331590652E0;-3.669219494E0
1.715268750E0;4.053431511E0;-5.135792255E0;-5.284137249E0
1.727179688E0;6.065853596E0;-4.438696861E0;-4.832829952E0
1.739092188E0;5.628097534E0;-5.774019718E0;-5.051957369E-1
1.751004688E0;3.880244493E0;-7.450717449E0;5.073188782E0
1.762918750E0;2.627387524E0;-7.954332829E0;8.058911324E0
1.774826563E0;3.372462988E0;-6.981779099E0;6.882247448E0
1.786742188E0;4.813705444E0;-6.369783401E0;3.911512613E0
1.798650000E0;5.649875641E0;-6.701179028E0;4.707479477E0
1.810562500E0;5.461892605E0;-7.590184689E0;1.013446450E0
1.822506250E0;6.820650101E0;-1.818112755E1;6.116610765E-1
1.834385938E0;8.814876080E-1;-2.715943146E1;1.726363063E0
1.846295313E0;-6.418174744E0;-2.966106606E1;6.465407848E0
1.858207813E0;-8.986042023E0;-2.181915474E1;9.775276184E0
1.870120313E0;-7.540116787E0;-1.389027691E1;7.347517490E0
1.882031250E0;-6.443945885E0;-8.448390961E0;3.789236069E0
1.893943750E0;-4.108909607E0;-5.162990570E0;7.381323576E-1
1.905856250E0;-2.001341820E0;-4.012710571E0;1.411142498E-1
1.917767188E0;-1.522721767E0;-4.316946983E0;4.751532674E-1
1.929678125E0;-1.711413741E0;-5.074462414E0;8.973755240E-1
1.941589063E0;-2.050863504E0;-5.984182835E0;1.558903098E0
1.953500000E0;-2.021922588E0;-6.573280811E0;1.976049542E0
1.965412500E0;-2.065554380E0;-7.355237007E0;2.197293043E0
1.977325000E0;-2.561144590E0;-8.563599586E0;2.167566538E0
1.989235938E0;-3.230496407E0;-9.917414665E0;2.135608673E0
2.001146875E0;-3.426772833E0;-1.085323238E1;1.993096352E0
2.013059375E0;-2.886449575E0;-1.067937469E1;1.656059742E0
2.024970313E0;-2.724218607E0;-1.027985954E1;1.483121753E0
2.036881250E0;-2.313153028E0;-9.619682312E0;1.617675900E0
2.048793750E0;-1.674715281E0;-8.700078964E0;1.265019536E0
2.060704688E0;-1.320459723E0;-8.068852425E0;9.437081218E-1
2.072621875E0;-9.077951312E-1;-7.504452705E0;7.019990683E-1
2.084531250E0;-5.904963613E-1;-7.330442429E0;6.775686741E-1
2.096439063E0;-7.884393334E-1;-7.994143486E0;1.010180712E0
2.108351563E0;-1.110775471E0;-9.207716942E0;1.381052136E0
2.120262500E0;-1.170630574E0;-1.036883831E1;1.503721476E0
2.132175000E0;-1.133941770E0;-1.119051743E1;1.353518844E0
2.144085938E0;-8.314008713E-1;-1.126274586E1;7.963976860E-1
2.155998438E0;-5.654912591E-1;-1.084384632E1;7.854800820E-1
2.167909375E0;-6.560495496E-1;-1.068444157E1;1.452389717E0
2.179820313E0;-6.198300719E-1;-1.053811741E1;1.934514999E0
2.191732813E0;-3.818272948E-1;-1.038505077E1;2.097904682E0
2.203643750E0;-1.797758192E-1;-1.032139397E1;2.172287941E0
2.215556250E0;-6.042964756E-3;-1.036500645E1;1.966032267E0
2.227467188E0;2.656127214E-1;-1.033938885E1;1.685201883E0
2.239384375E0;-2.644730806E-1;-1.047777367E1;1.120955706E0
2.251290625E0;-5.868954659E-1;-1.072467327E1;6.846650839E-1
2.263207813E0;-8.679747581E-1;-1.060248280E1;5.555027127E-1
2.275114063E0;-8.045283556E-1;-1.007939720E1;5.069195032E-1
2.287025000E0;-6.496523023E-1;-9.633042336E0;8.694686890E-1
2.298968750E0;-6.595451236E-1;-9.491659164E0;1.133204341E0
2.310848438E0;-3.623768091E-1;-9.399386406E0;8.722842932E-1
2.322762500E0;-1.972630620E-1;-9.509596825E0;1.205480576E0
2.334671875E0;-4.141681492E-1;-9.527534485E0;2.716729403E0
2.346590625E0;-3.628460765E-1;-8.915699959E0;3.753323078E0
2.358496875E0;-8.793711662E-1;-9.940150261E0;2.958658695E0
2.370407813E0;-1.081949353E0;-8.806477547E0;1.685517907E0
2.382318750E0;-1.342218280E0;-9.345938683E0;7.049295902E-1
2.394234375E0;-1.506240219E-1;-1.020171261E1;1.824247718E0
2.406140625E0;-3.848440051E-1;-9.880668640E0;3.350742579E0
2.418057813E0;-3.053756356E-1;-1.036396313E1;2.180543184E0
2.429964063E0;2.167413235E0;-8.299327850E0;6.558963656E-1
2.441876563E0;5.150789618E-1;-8.810604095E0;6.957646012E-1
2.453787500E0;-1.119739413E0;-9.618408203E0;5.730952621E-1
2.465698438E0;-1.468584180E0;-9.493784904E0;1.047702670E0
2.477612500E0;-9.062244892E-1;-9.024742126E0;1.753350496E0
2.489521875E0;-6.332280040E-1;-9.741738319E0;2.631706476E0
2.501432813E0;-1.054502204E-1;-1.045636082E1;2.844646692E0
2.513345313E0;1.069901705E0;-1.093372536E1;2.977802753E0
2.525257813E0;1.724945664E0;-1.076484776E1;3.947301388E0
2.537170313E0;1.137159705E0;-1.086188984E1;3.996085405E0
2.549081250E0;-1.219223216E-1;-1.056570816E1;4.247830868E0
2.560992188E0;-1.382804632E0;-9.984644890E0;3.947483063E0
2.572903125E0;-3.044667959E0;-9.725093842E0;2.517244577E0
2.584814063E0;-3.755468369E0;-8.593680382E0;1.460530043E0
2.596726563E0;-4.530950069E0;-8.151825905E0;7.444722056E-1
2.608639063E0;-4.587587357E0;-7.784440517E0;-7.212293148E-2
2.620550000E0;-4.260108471E0;-8.262859344E0;-2.632760108E-1
2.632460938E0;-3.611423254E0;-8.504090309E0;-1.590324491E-1
2.644375000E0;-3.027171135E0;-8.772268295E0;4.361373484E-1
2.656290625E0;-2.721508265E0;-1.016583824E1;1.913733244E0
2.668201563E0;-1.850411534E0;-1.005687332E1;1.826124668E0
2.680107813E0;-1.252914429E0;-9.947926521E0;1.924602985E0
2.692018750E0;-1.142867446E0;-9.840446472E0;2.056188345E0
2.703929688E0;-1.422040939E0;-9.509137154E0;1.806089997E0
2.715842188E0;-2.008103132E0;-9.342720985E0;7.842542529E-1
2.727754688E0;-2.233828545E0;-8.783818245E0;-5.175976753E-1
2.739665625E0;-2.530259371E0;-8.161613464E0;-1.084123254E0
2.751576563E0;-2.835855246E0;-7.796641350E0;-1.142014980E0
2.763489063E0;-3.054512978E0;-7.815153122E0;-3.939515352E-1
2.775423438E0;-3.353108168E0;-7.690463543E0;2.220775366E0
2.787310938E0;-4.275555611E0;-8.531756401E0;3.028904438E0
2.799223438E0;-5.199746609E0;-8.832717896E0;2.349592924E0
2.811134375E0;-5.395927429E0;-7.810355186E0;4.541513324E-1
2.823046875E0;-5.019654751E0;-7.084193707E0;-2.358968496E0
2.834964063E0;-5.375902176E0;-7.709539890E0;-5.170661449E0
2.846868750E0;-5.670350552E0;-8.896556854E0;-6.187948227E0
2.858781250E0;-4.261669636E0;-7.755566597E0;-3.668750286E0
2.870692188E0;-3.823185682E0;-6.605870724E0;-7.122462988E-1
2.882604688E0;-2.454200506E0;-7.710315704E0;-5.737369657E-1
2.894515625E0;-1.478113055E0;-8.828964233E0;-5.483200550E-1
2.906434375E0;-1.551797032E0;-9.610928535E0;-1.692920923E0
2.918339063E0;-2.390122175E0;-9.643882751E0;-2.026787519E0
2.930250000E0;-3.227010489E0;-9.129281998E0;-1.675950766E0
2.942162500E0;-5.373086452E0;-8.959170341E0;-3.587376177E-1
2.954076563E0;5.724057555E-2;-5.193856239E0;6.102916241E0
2.965985938E0;-1.977926612E0;-6.597787380E0;4.033118725E0
2.977896875E0;-5.314744473E0;-9.535147667E0;-1.557370782E0
2.989807813E0;-7.603457928E0;-1.211168289E1;-4.545353413E0
3.001720313E0;-8.553314209E0;-1.198123646E1;-2.270928860E0
3.013637500E0;-8.301396370E0;-9.257218361E0;1.361467481E0
3.025543750E0;-7.075498104E0;-8.156288147E0;-1.582088508E-2
3.037454688E0;-5.199296474E0;-8.296790123E0;-2.148700237E0
3.049367188E0;-3.671134710E0;-7.539111137E0;-2.718807697E0
3.061278125E0;-3.653139830E0;-7.489398003E0;1.278733492E0
3.073190625E0;-8.363396645E0;-1.247625160E1;5.722956181E0
3.085103125E0;-1.064547253E1;-1.402012920E1;7.913229465E0
3.097012500E0;-9.788712502E0;-1.312577057E1;5.895539761E0
3.108925000E0;-8.221572876E0;-1.304135036E1;4.989708066E-1
3.120835938E0;-6.932660103E0;-1.313386250E1;-6.883282185E0
3.132775000E0;-5.418767929E0;-1.217274380E1;-1.190886402E1
3.144659375E0;-3.552028179E0;-1.151518154E1;-4.088750839E0
3.156570313E0;-1.678603530E0;-1.112652493E1;1.993412375E-1
3.168482813E0;-4.198970318E0;-1.195995712E1;1.278225899E0
3.180393750E0;-5.256546497E0;-1.158607769E1;4.821577549E0
3.192304688E0;-6.015929699E0;-1.130206871E1;4.445591927E0
3.204217188E0;-5.721538544E0;-9.462565422E0;-6.200886965E-1
3.216128125E0;-4.545650482E0;-8.082374573E0;-6.411768198E-1
3.228039063E0;-4.088837147E0;-8.055109978E0;1.302254200E0
3.239951563E0;-3.548005819E0;-8.506032944E0;2.092043877E0
3.251867188E0;-3.437594652E0;-7.612862110E0;1.777570367E0
3.263778125E0;-3.752422810E0;-6.414076328E0;1.307664990E0
3.275685938E0;-5.465100765E0;-5.480059624E0;9.849650264E-1
3.287603125E0;-5.906103134E0;-1.860160589E0;3.948230147E-1
3.299509375E0;-5.620302200E0;1.481541634E0;1.228148818E0
3.311426563E0;-1.943555474E0;1.585928798E0;1.432173133E0
3.323332813E0;1.423774242E0;-1.032130718E0;-4.357370377E0
3.335245313E0;-6.065470576E-1;-5.800901890E0;-5.314074159E-1
3.347156250E0;-2.277738094E0;-6.206623077E0;-1.113112271E-1
3.359067188E0;-2.759805918E0;-4.900930882E0;-7.790445089E-1
3.370982813E0;-4.631094933E0;-3.356737852E0;-1.550877690E0
3.382892188E0;-5.910431862E0;-1.193959713E0;-3.578728199E0
3.394803125E0;-7.784957409E0;7.468951494E-2;-2.908495426E0
3.406714063E0;-1.193737507E1;-4.102982044E0;5.214475989E-1
3.418625000E0;-1.145952034E1;-1.240894604E1;2.481963634E0
3.430537500E0;-5.593640804E0;-1.556074047E1;-1.969661832E0
3.442448438E0;-5.139805317E0;-1.489913654E1;-1.151601434E0
3.454360938E0;-9.680935860E0;-1.622015190E1;5.926195145E0
3.466271875E0;-8.408877373E0;-1.544100189E1;2.483266115E0
3.478185938E0;-1.047572422E1;-1.233259964E1;-2.096497059E0
3.490125000E0;-1.175125885E1;-7.453054428E0;-8.070375025E-2
3.502006250E0;-9.204919815E0;-4.280966759E0;3.553321123E0
3.513918750E0;-8.199680328E0;-5.491743088E0;1.832723141E0
3.525829688E0;-7.504031181E0;-5.131358624E0;3.664325714E0
3.537742188E0;-4.132593155E0;-3.910420895E0;1.456574798E0
3.549679688E0;-1.852298141E0;-5.162435055E0;-8.200715184E-1
3.561564063E0;-3.971195221E0;-4.102540970E0;-4.067269862E-1
3.573476563E0;-2.387469292E0;-1.303403497E0;2.279337406E0
3.585387500E0;-5.898709297E0;-2.187649250E0;1.727148294E0
3.597298438E0;-5.974874020E0;-9.898012877E-1;-6.177806258E-1
3.609210938E0;-5.893911839E0;-2.539912939E0;-1.599048972E0
3.621129688E0;-5.537022591E0;-3.569802761E0;-1.067919254E0
3.633034375E0;-5.820189476E0;-3.556308746E0;5.032708049E-1
3.644945313E0;-6.521336079E0;-3.327078342E0;2.409466982E0
3.656857813E0;-8.698997498E0;-3.768435001E0;4.650018692E0
3.668784375E0;-9.527725220E0;-3.753389835E0;5.051296234E0
3.680679688E0;-9.047457695E0;-2.813694477E0;4.259035587E0
3.692592188E0;-1.024424362E1;-2.148288488E0;3.075658560E0
3.704504688E0;-1.222684383E1;-2.912259102E0;2.497401476E0
3.716415625E0;-1.227376938E1;-4.394183636E0;2.453319311E0
3.728326563E0;-1.187796021E1;-5.259428978E0;1.698101878E0
3.740237500E0;-1.110089874E1;-5.715246677E0;-8.721789718E-1
3.752150000E0;-1.114088058E1;-6.417859077E0;-1.843918413E-1
3.764060938E0;-1.023888016E1;-6.246558666E0;8.743720055E-1
3.775971875E0;-7.732754230E0;-4.673031807E0;4.693688750E-1
3.787884375E0;-6.387777805E0;-3.357637882E0;-4.140532613E-1
3.799806250E0;-7.073285580E0;-2.887426615E0;-1.905765414E0
3.811707813E0;-8.039058685E0;-2.378256321E0;-2.069672346E0
3.823620313E0;-1.297780895E1;-5.298167706E0;3.431312561E0
3.835531250E0;-9.039643288E0;-4.910909653E0;3.498618126E0
3.847450000E0;-7.573328972E0;-5.101124287E0;3.485153437E0
3.859356250E0;-9.321949005E0;-6.187306404E0;3.274904013E0
3.871265625E0;-9.883982658E0;-5.082717896E0;4.852951169E-1
3.883178125E0;-1.009972954E1;-4.379885674E0;-6.855556965E-1
3.895089063E0;-9.743405342E0;-2.654748201E0;9.631682038E-1
3.907006250E0;-8.798356056E0;-1.613691926E0;3.239833713E-1
3.918912500E0;-5.672907829E0;-1.545619965E0;7.874529362E-1
3.930825000E0;-1.237678719E1;-1.238434315E0;2.792405486E-1
3.942735938E0;-1.122655582E1;-1.302962899E0;1.005038023E0
3.954648438E0;-8.389158249E0;-1.334365249E0;1.247905731E0
3.966559375E0;-6.787226677E0;-2.737788916E0;1.352053583E-1
3.978470313E0;-5.601052761E0;-5.568549156E0;9.714999795E-1
3.990381250E0;-6.818456650E0;-6.659912586E0;4.206880569E0
4.002293750E0;-9.215425491E0;-4.612803459E0;5.081347942E0
4.014204688E0;-9.954716682E0;-3.359917164E0;3.123513937E0
4.026126563E0;-9.114802361E0;-1.831114173E0;3.607583046E-1
4.038029688E0;-8.884432793E0;-1.239353776E0;8.132432699E-1
4.049940625E0;-9.074331284E0;-1.363402128E0;5.257380009E-1
4.061851563E0;-9.975623131E0;-1.968512654E0;-5.801629424E-1
4.073764063E0;-9.912302017E0;-6.221859455E-1;5.436178446E-1
4.085675000E0;-9.515792847E0;-2.598666251E-1;1.321503669E-1
4.097592188E0;-1.112626743E1;-3.946602046E-1;-1.830156446E0
4.109498438E0;-1.223733044E1;-1.352245212E-1;-1.207577825E0
4.121409375E0;-1.204024887E1;2.188740969E0;5.033473969E-1
4.133320313E0;-1.125703812E1;5.492815971E0;5.887342095E-1
4.145240625E0;-1.073624229E1;6.545019627E0;-8.238735199E-1
4.157143750E0;-1.176908112E1;4.263489246E0;-1.883499265E0
4.169056250E0;-1.150903320E1;2.690536976E0;-2.249151468E0
4.180967188E0;-1.073784161E1;2.777312279E0;-1.468229890E0
4.192879688E0;-9.793098450E0;2.381789923E0;-9.553726912E-1
4.204790625E0;-9.433193207E0;2.007595539E0;-1.226539969E0
4.216703125E0;-7.538900375E0;2.777523041E0;-2.146871090E0
4.228614063E0;-7.752645493E0;4.322195053E0;-2.946505547E0
4.240534375E0;-9.610344887E0;4.918619156E0;-3.142447233E0
4.252437500E0;-9.582044601E0;5.181282043E0;-2.933500528E0
4.264356250E0;-8.762472153E0;4.997110844E0;-2.764153719E0
4.276259375E0;-8.201395035E0;4.132688999E0;-2.113505363E0
4.288171875E0;-8.064810753E0;3.203997374E0;-1.034122825E0
4.300084375E0;-8.143130302E0;2.287372351E0;1.249773279E-1
4.311995313E0;-8.771397591E0;1.400761247E0;1.025302529E0
4.323912500E0;-9.395010948E0;6.768791676E-1;1.099187613E0
4.335825000E0;-9.508600235E0;2.405981123E-1;7.136349082E-1
4.347729688E0;-9.242011070E0;2.538715601E-1;3.607678711E-1
4.359642188E0;-8.798260689E0;6.754713058E-1;1.350042373E-1
4.371553125E0;-8.411280632E0;1.232180715E0;-2.419101261E-2
4.383465625E0;-8.409040451E0;1.704470515E0;-2.975322306E-1
4.395376563E0;-8.839173317E0;2.147847891E0;-5.755661130E-1
4.407287500E0;-9.398228645E0;2.392439365E0;-7.056957483E-1
4.419200000E0;-1.012658310E1;2.367108822E0;-6.455630064E-1
4.431110938E0;-1.062246037E1;2.164664745E0;-5.623788238E-1
4.443028125E0;-1.040466404E1;1.970715284E0;-6.149267554E-1
4.454935938E0;-1.000786781E1;1.823854923E0;-3.926299214E-1
4.466845313E0;-9.624154091E0;1.742576718E0;-2.007298768E-1
4.478757813E0;-9.220406532E0;1.839541793E0;1.606700867E-1
4.490668750E0;-8.976858139E0;1.947481990E0;4.085370004E-1
4.502579688E0;-9.127203941E0;1.999972463E0;5.756523013E-1
4.514493750E0;-9.366002083E0;2.008466959E0;6.865038276E-1
4.526403125E0;-9.661734581E0;2.021070242E0;7.114034891E-1
4.538315625E0;-9.794765472E0;2.040453672E0;6.392327547E-1
4.550226563E0;-1.004016113E1;2.265048742E0;6.184127331E-1
4.562145313E0;-1.015975666E1;2.071559191E0;4.250474274E-1
4.574056250E0;-1.011285973E1;1.802268744E0;4.639867246E-1
4.585960938E0;-9.549742699E0;1.585086107E0;4.746840298E-1
4.597873438E0;-8.850318909E0;1.365920782E0;4.914817214E-1
4.609784375E0;-8.807664871E0;9.679374099E-1;2.397994041E0
4.621707813E0;-8.816867828E0;6.094297171E-1;3.385535479E0
4.633607813E0;-9.036521912E0;4.141969085E-1;2.154886961E0
4.645518750E0;-9.723800659E0;7.169868350E-1;2.332306862E0
4.657431250E0;-1.028607464E1;1.362406135E0;2.476370573E0
4.669342188E0;-1.063054276E1;2.034726620E0;1.812065959E0
4.681259375E0;-1.054686069E1;2.481207132E0;7.784985900E-1
4.693165625E0;-1.009965229E1;2.234862804E0;-4.747223109E-2
4.705079688E0;-9.880218506E0;1.489375353E0;1.602774411E-1
4.716987500E0;-9.594006538E0;9.763171673E-1;1.020619392E0
4.728900000E0;-9.299137115E0;9.588490725E-1;1.921548009E0
4.740815625E0;-8.909696579E0;9.330299497E-1;2.623834372E0
4.752721875E0;-8.021370888E0;8.500469327E-1;3.053756237E0
4.764634375E0;-7.623445034E0;9.660986662E-1;3.616010666E0
4.776545313E0;-7.973678112E0;1.312242746E0;3.749856234E0
4.788457813E0;-7.740684032E0;1.650294542E0;3.541685104E0
4.800376563E0;-7.525129318E0;1.928414583E0;3.568691730E0
4.812282813E0;-7.921685696E0;1.980148435E0;3.416123629E0
4.824215625E0;-8.738701820E0;1.628641367E0;2.751100540E0
4.836104688E0;-1.019794941E1;1.432814837E0;1.828059196E0
4.848017188E0;-1.030560112E1;1.723509192E0;6.973926425E-1
4.859934375E0;-1.007669735E1;2.083242655E0;6.531573534E-1
4.871839063E0;-1.027163315E1;1.781831861E0;4.285046458E-1
4.883751563E0;-1.015428829E1;1.873098850E0;4.677790999E-1
4.895662500E0;-1.020127201E1;1.607945800E0;3.728538156E-1
4.907575000E0;-9.778513908E0;1.702085853E0;8.164228201E-1
4.919492188E0;-9.436429977E0;1.867936969E0;1.316667199E0
4.931396875E0;-9.869215965E0;1.212442875E0;8.622190356E-1
4.943309375E0;-9.958585739E0;5.292143822E-1;2.112068981E-1
4.955220313E0;-1.015210438E1;8.670841157E-2;-1.758014411E-1
4.967132813E0;-1.031799412E1;5.941450968E-2;-1.997434497E-1
4.979051563E0;-1.023816204E1;2.692136168E-1;1.338071376E-1
4.990954688E0;-9.897715569E0;6.767163277E-1;5.992782712E-1
5.002867188E0;-9.729996681E0;1.032858610E0;9.835380912E-1
5.014778125E0;-9.711054802E0;1.229144931E0;1.360471606E0
5.026690625E0;-9.801948547E0;1.297628522E0;1.651003122E0
5.038601563E0;-9.995668411E0;1.302694678E0;1.798131704E0
5.050515625E0;-1.013054657E1;1.414293170E0;1.855219007E0
5.062425000E0;-1.007569122E1;1.468497872E0;1.782329917E0
5.074335938E0;-9.903720856E0;1.529234171E0;1.695870519E0
5.086248438E0;-9.610899925E0;1.423659444E0;1.733976722E0
5.098159375E0;-9.408867836E0;1.189266920E0;1.746119976E0
5.110071875E0;-9.245813370E0;8.462832570E-1;1.704805613E0
5.121984375E0;-9.180576324E0;5.464909077E-1;1.572109461E0
5.133900000E0;-9.427829742E0;2.870743573E-1;1.531484604E0
5.145806250E0;-9.708095551E0;1.827925146E-1;1.633563876E0
5.157754688E0;-9.883398056E0;1.350904405E-1;1.715119839E0
5.169629688E0;-9.873505592E0;7.872135192E-2;1.663539171E0
5.181542188E0;-9.675448418E0;4.541321844E-2;1.534396052E0
5.193451563E0;-9.442424774E0;3.594175726E-2;1.270564556E0
5.205364063E0;-9.240383148E0;9.108500928E-2;1.078013301E0
5.217282813E0;-9.128124237E0;1.316619366E-1;9.794008732E-1
5.229185938E0;-9.099747658E0;1.084860712E-1;1.025082231E0
5.241096875E0;-9.208023071E0;9.993397444E-2;1.179651856E0
5.253009375E0;-9.271278381E0;1.509208977E-1;1.319683909E0
5.264921875E0;-9.370780945E0;2.464399785E-1;1.480478525E0
5.276832813E0;-9.581576347E0;3.243377209E-1;1.620702147E0
5.288743750E0;-9.846125603E0;3.607487381E-1;1.693763614E0
5.300656250E0;-9.960003853E0;3.019183874E-1;1.701281428E0
5.312568750E0;-1.018453217E1;2.106131315E-1;1.641005039E0
5.324479688E0;-1.027390194E1;7.551312447E-2;1.665904641E0
5.336396875E0;-1.022051144E1;4.472368862E-3;1.677291512E0
5.348303125E0;-1.000394249E1;-1.237706542E-1;1.473525763E0
5.360214063E0;-9.851766586E0;-2.448214889E-1;1.250472426E0
5.372126563E0;-9.735619545E0;-3.972651064E-1;1.043833613E0
5.384037500E0;-9.590213776E0;-6.188436747E-1;9.890925884E-1
5.395956250E0;-9.502146721E0;-6.309679151E-1;1.015553355E0
5.407859375E0;-9.592426300E0;-5.645144582E-1;1.159818411E0
5.419771875E0;-9.742341995E0;-5.244259834E-1;1.096458077E0
5.431684375E0;-9.912942886E0;-3.972076476E-1;9.553247690E-1
5.443595313E0;-9.880008698E0;-3.055767417E-1;7.536563873E-1
5.455509375E0;-9.747322083E0;-1.664353162E-1;6.402861476E-1
5.467428125E0;-9.691421509E0;-3.209188208E-2;7.732121944E-1
5.479335938E0;-9.596095085E0;5.476975814E-2;9.012637138E-1
5.491240625E0;-9.577610970E0;5.471229553E-2;9.252823591E-1
5.503154688E0;-9.597924232E0;4.709873721E-2;9.139912724E-1
5.515071875E0;-9.659148216E0;5.149449036E-2;9.911516309E-1
5.526981250E0;-9.712405205E0;3.107673861E-2;1.016951561E0
5.538887500E0;-9.702292442E0;3.875733539E-2;1.096802950E0
5.550800000E0;-9.689429283E0;1.278982610E-1;1.142809987E0
5.562710938E0;-9.624289513E0;1.948784441E-1;1.101064563E0
5.574625000E0;-9.550700188E0;3.224702477E-1;1.064395070E0
5.586534375E0;-9.505727768E0;3.010564744E-1;9.524134398E-1
5.598445313E0;-9.572966576E0;2.122412026E-1;9.119514227E-1
5.610356250E0;-9.710901260E0;4.127603769E-2;8.009753823E-1
5.622268750E0;-9.854428291E0;-1.425220370E-1;7.819175124E-1
5.634181250E0;-9.918201447E0;-3.342114091E-1;7.142286897E-1
5.646092188E0;-9.785724640E0;-3.656233251E-1;7.731834650E-1
5.658007813E0;-9.607539177E0;-2.742127180E-1;8.520293832E-1
5.669915625E0;-9.491563797E0;-1.849951744E-1;8.814300895E-1
5.681826563E0;-9.483720779E0;-2.120975405E-1;8.533030152E-1
5.693746875E0;-9.589783669E0;-2.630557120E-1;8.832210302E-1
5.705650000E0;-9.768659592E0;-4.106726348E-1;8.246301413E-1
5.717560938E0;-9.795425415E0;-4.219923913E-1;6.760938168E-1
5.729478125E0;-9.760996819E0;-4.580969810E-1;6.614221931E-1
5.741384375E0;-9.775975227E0;-4.794436693E-1;7.216219306E-1
5.753303125E0;-9.733329773E0;-5.463185310E-1;8.583787680E-1
5.765207813E0;-9.685857773E0;-4.766089618E-1;1.083864689E0
5.777120313E0;-9.388661385E0;-3.910210133E-1;1.319320083E0
5.789039063E0;-9.363244057E0;-2.690508068E-1;1.442908645E0
5.800942188E0;-9.356023788E0;-1.244314462E-1;1.367242455E0
5.812854688E0;-9.486325264E0;-1.005564705E-1;1.070035815E0
5.824765625E0;-9.690608025E0;-4.916732758E-2;9.491956234E-1
5.836679688E0;-9.833350182E0;-6.981492043E-3;9.100744128E-1
5.848589063E0;-9.912598610E0;4.438849911E-2;9.314402342E-1
5.860501563E0;-9.924942970E0;6.033388199E-4;1.048325181E0
5.872428125E0;-9.785610199E0;-1.181777939E-2;1.241613865E0
5.884325000E0;-9.642292976E0;6.349422969E-3;1.265306830E0
5.896235938E0;-9.556934357E0;5.771941319E-2;1.149015784E0
5.908146875E0;-9.602405548E0;4.790318757E-2;1.031977534E0
5.920059375E0;-9.929271698E0;4.593036696E-2;1.035597563E0
5.931970313E0;-1.001956177E1;-3.624821454E-2;9.595385790E-1
5.943882813E0;-1.015548515E1;-5.339069664E-2;8.768237233E-1
5.955793750E0;-1.012004185E1;-1.989102811E-1;8.056584597E-1
5.967704688E0;-1.003145599E1;-3.541311622E-1;7.878360152E-1
5.979617188E0;-9.915270805E0;-4.727016091E-1;9.713850617E-1
5.991531250E0;-9.632946014E0;-4.133349955E-1;1.184536099E0
6.003446875E0;-9.421356201E0;-2.426283956E-1;1.421083212E0
6.015351563E0;-9.235748291E0;-1.774869561E-1;1.337305307E0
6.027262500E0;-9.407938004E0;-2.097895294E-1;1.290532231E0
6.039175000E0;-9.704829216E0;-2.418909967E-1;1.173177958E0
6.051092188E0;-9.759054184E0;-1.946869045E-1;1.159042597E0
6.062998438E0;-9.608965874E0;-4.112280533E-2;1.158362627E0
6.074909375E0;-9.639842033E0;1.982399076E-2;1.066473126E0
6.086821875E0;-9.650338173E0;1.571553946E-2;9.120472074E-1
6.098732813E0;-9.913738251E0;-5.268201604E-2;9.690962434E-1
6.110643750E0;-9.896661758E0;-5.817909911E-2;1.192130446E0
6.122557813E0;-9.645530701E0;-8.593268692E-2;1.393272161E0
6.134467188E0;-9.541104317E0;-2.720770799E-2;1.502802134E0
6.146379688E0;-9.279542923E0;9.639056027E-2;1.572751045E0
6.158290625E0;-9.199183464E0;2.444288284E-1;1.552227974E0
6.170206250E0;-9.146175385E0;3.324109614E-1;1.423027396E0
6.182120313E0;-9.290144920E0;3.106333017E-1;1.189343572E0
6.194025000E0;-9.498458862E0;2.680069208E-1;9.860855341E-1
6.205942188E0;-9.631422997E0;1.169423908E-1;8.771972060E-1
6.217846875E0;-9.595309258E0;-3.983951639E-3;8.887851834E-1
6.229759375E0;-9.586987495E0;-5.021119863E-2;1.008763313E0
6.241671875E0;-9.644802094E0;3.764642775E-2;1.292533636E0
6.253582813E0;-9.551524162E0;5.794925615E-2;1.333436251E0
6.265495313E0;-9.442061424E0;7.749552280E-2;1.402465940E0
6.277406250E0;-9.503410339E0;1.725261658E-1;1.420537353E0
6.289317188E0;-9.579986572E0;3.494480848E-1;1.333311796E0
6.301229688E0;-9.746776581E0;5.651273727E-1;9.174676538E-1
6.313142188E0;-9.882067680E0;4.891354144E-1;5.351615548E-1
6.325053125E0;-9.962330818E0;2.661777735E-1;4.822305441E-1
6.336964063E0;-9.926810265E0;1.120677963E-1;8.922519684E-1
6.348876563E0;-9.757434845E0;2.333867922E-2;1.166024208E0
6.360793750E0;-9.637897491E0;9.401550889E-2;1.229642868E0
6.372700000E0;-9.626050949E0;2.534310520E-1;1.327967882E0
6.384610938E0;-9.638481140E0;5.571307540E-1;1.478745103E0
6.396523438E0;-9.816878319E0;7.482838035E-1;1.553635716E0
6.408440625E0;-9.964916229E0;7.945684791E-1;1.598867059E0
6.420345313E0;-9.985429764E0;7.252898812E-1;1.450436115E0
6.432256250E0;-9.876962662E0;6.183935404E-1;1.372088313E0
6.444168750E0;-9.747292519E0;4.972278178E-1;1.364206553E0
6.456081250E0;-9.714876175E0;4.843661487E-1;1.562906146E0
6.468000000E0;-9.673121452E0;6.060011387E-1;1.787012935E0
6.479906250E0;-9.563714981E0;8.428452015E-1;1.892951608E0
6.491814063E0;-9.550393105E0;9.219687581E-1;1.837473154E0
6.503726563E0;-9.669989586E0;9.789316654E-1;1.733133912E0
6.515639063E0;-9.680198669E0;1.039533734E0;1.572626591E0
6.527567188E0;-9.720076561E0;1.013475180E0;1.472520232E0
6.539462500E0;-9.674537659E0;1.029209852E0;1.501394272E0
6.551373438E0;-9.617154121E0;9.958538413E-1;1.562149525E0
6.563287500E0;-9.529803276E0;1.047740936E0;1.629857540E0
6.575195313E0;-9.358292580E0;1.143317461E0;1.725970507E0
6.587106250E0;-9.185738564E0;1.230073810E0;1.744128108E0
6.599018750E0;-9.083189011E0;1.256802559E0;1.670654774E0
6.610929688E0;-9.032039642E0;1.304361105E0;1.718653798E0
6.622842188E0;-8.961976051E0;1.303221464E0;1.670444131E0
6.634753125E0;-9.020978928E0;1.317768574E0;1.692355871E0
6.646665625E0;-9.096827507E0;1.290694952E0;1.674121618E0
6.658576563E0;-9.185076714E0;1.148086786E0;1.569629073E0
6.670487500E0;-9.195276260E0;1.015831113E0;1.517148137E0
6.682400000E0;-9.402183533E0;9.809235930E-1;1.556240678E0
6.694310938E0;-9.656044960E0;1.137762904E0;1.678593993E0
6.706223438E0;-9.633291245E0;1.355778933E0;1.815197468E0
6.718142188E0;-9.437742233E0;1.511765957E0;1.660235286E0
6.730046875E0;-9.126792908E0;1.548809052E0;1.565760016E0
6.741957813E0;-9.093091965E0;1.574312091E0;1.564055324E0
6.753870313E0;-9.465456963E0;1.684550762E0;1.743859887E0
6.765787500E0;-9.872988701E0;1.827532530E0;1.869593740E0
6.777692188E0;-1.018119907E1;1.882570267E0;1.839484334E0
6.789604688E0;-1.022667027E1;1.926527977E0;1.771153808E0
6.801515625E0;-9.871877670E0;1.949464321E0;1.684359312E0
6.813428125E0;-9.232721329E0;1.609832525E0;1.520691514E0
6.825368750E0;-8.604339600E0;1.129919529E0;1.498387218E0
6.837251563E0;-8.156767845E0;7.033206820E-1;1.559171200E0
6.849181250E0;-8.109611511E0;4.910028875E-1;1.685968161E0
6.861073438E0;-8.332721710E0;4.913668036E-1;1.871154785E0
6.872985938E0;-8.850128174E0;9.569049478E-1;2.342257023E0
6.884904688E0;-9.716569901E0;1.522099376E0;2.937771797E0
6.896817188E0;-1.059225464E1;2.036536694E0;3.028272390E0
6.908720313E0;-1.107653522E1;2.398472786E0;2.770522118E0
6.920631250E0;-1.078014278E1;2.297571659E0;1.998612523E0
6.932543750E0;-9.829298973E0;1.539816380E0;1.763741374E0
6.944462500E0;-9.155380249E0;7.541065216E-1;1.952356577E0
6.956367188E0;-8.574412346E0;2.489586622E-1;1.892903805E0
6.968278125E0;-8.140879631E0;-2.171253711E-1;1.661288738E0
6.980190625E0;-7.986740589E0;-7.035313845E-1;1.385649085E0
6.992101563E0;-8.215272903E0;-1.134545207E0;1.341595650E0
7.004018750E0;-8.671865463E0;-1.286921740E0;1.515970230E0
7.015925000E0;-9.234656334E0;-1.078999639E0;1.575442195E0
7.027837500E0;-9.672622681E0;-6.183169484E-1;1.660618305E0
7.039748438E0;-9.996098518E0;2.918244600E-1;1.798198700E0
7.051659375E0;-1.033729076E1;1.211178660E0;1.867084742E0
7.063576563E0;-1.054241657E1;1.843822598E0;2.073235035E0
7.075482813E0;-1.097152519E1;1.940711141E0;2.352935314E0
7.087395313E0;-1.124499989E1;1.864671230E0;2.476121902E0
7.099306250E0;-1.149895763E1;1.616469264E0;2.573948622E0
7.111218750E0;-1.134286594E1;1.244956136E0;2.383782148E0
7.123151563E0;-1.079628944E1;8.393592238E-1;1.868281722E0
7.135040625E0;-1.004773617E1;3.650774658E-1;1.386204481E0
7.146951563E0;-9.585559845E0;-4.483860731E-2;1.547707796E0
7.158864063E0;-9.179839134E0;-2.253231108E-1;1.611728787E0
7.170775000E0;-9.150034904E0;-1.573277861E-1;1.672388196E0
7.182692188E0;-9.019408226E0;1.842865050E-1;1.678622723E0
7.194598438E0;-8.781375885E0;5.873168111E-1;1.652707934E0
7.206509375E0;-8.671137810E0;7.686536908E-1;1.566219687E0
7.218420313E0;-8.620936394E0;8.074301481E-1;1.516985297E0
7.230332813E0;-8.918516159E0;8.673330545E-1;1.664544821E0
7.242243750E0;-9.267361641E0;9.665488005E-1;1.688419819E0
7.254156250E0;-9.550930977E0;9.224954844E-1;1.439997435E0
7.266067188E0;-9.617201805E0;7.345123291E-1;8.344463706E-1
7.277982813E0;-9.577266693E0;4.605294764E-1;3.582396209E-1
7.289890625E0;-9.358159065E0;-1.197771206E-1;9.249184132E-1
7.301820313E0;-9.782219887E0;-3.207655549E-1;1.445781708E0
7.313715625E0;-9.995265961E0;-3.163889647E-1;1.801818728E0
7.325625000E0;-9.827939034E0;-2.677962482E-1;2.212491512E0
7.337537500E0;-9.519815445E0;-1.471093297E-1;2.336606741E0
7.349448438E0;-9.271679878E0;-3.530968726E-2;2.015448570E0
7.361359375E0;-9.087384224E0;-8.808746934E-2;1.620778799E0
7.373271875E0;-8.921053886E0;-2.212625444E-1;1.337496877E0
7.385184375E0;-8.984059334E0;-5.019108653E-1;1.395599365E0
7.397095313E0;-9.379208565E0;-7.776750326E-1;1.531187773E0
7.409006250E0;-9.672517776E0;-8.883541822E-1;1.473679066E0
7.420925000E0;-9.803375244E0;-9.652463198E-1;1.192322016E0
7.432831250E0;-9.629354477E0;-9.652751088E-1;7.571710944E-1
7.444740625E0;-9.446523666E0;-1.017985821E0;3.628173172E-1
7.456653125E0;-9.246215820E0;-9.486688972E-1;-1.171243470E-2
7.468564063E0;-9.186886787E0;-8.444253802E-1;-2.715503573E-1
7.480476563E0;-9.233046532E0;-8.471451998E-1;-5.761215091E-1
7.492387500E0;-9.226409912E0;-8.748700619E-1;-7.500650883E-1
7.504300000E0;-9.303580284E0;-9.298887849E-1;-8.378652334E-1
7.516210938E0;-9.518580437E0;-9.763171673E-1;-9.738271236E-1
7.528121875E0;-9.886339188E0;-1.020504475E0;-9.958250523E-1
7.540068750E0;-1.027797222E1;-9.696038365E-1;-8.420981765E-1
7.551945313E0;-1.027554989E1;-6.864367723E-1;-6.728377342E-1
7.563856250E0;-1.029693413E1;-5.336483717E-1;-7.996155024E-1
7.575768750E0;-1.052762127E1;-2.791256011E-1;-6.578596234E-1
7.587679688E0;-1.074899769E1;1.541865990E-3;-4.751437008E-1
7.599598438E0;-1.115646267E1;2.371121496E-1;-7.394635677E-1
7.611512500E0;-1.173374271E1;1.262989342E-1;-1.747001052E0
7.623415625E0;-1.229480076E1;-1.447055489E-1;-2.960181475E0
7.635326563E0;-1.261016464E1;-4.157866538E-1;-3.895011663E0
7.647239063E0;-1.261188889E1;-8.355955482E-1;-2.989898205E0
7.659168750E0;-1.263948822E1;-8.729929924E-1;-7.564432621E-1
7.671064063E0;-1.294534302E1;-5.474773049E-1;9.708487988E-1
7.682973438E0;-1.266605473E1;-2.787137926E-1;2.225151777E0
7.694884375E0;-1.097806644E1;2.076538950E-1;3.024499178E0
7.706795313E0;-8.751515388E0;7.776750326E-1;3.008141994E0
7.718707813E0;-7.579362869E0;1.070763707E0;2.987427473E0
7.730618750E0;-8.291263580E0;9.045868516E-1;3.270469904E0
7.742529688E0;-9.338162422E0;7.785465121E-1;3.934545040E0
7.754442188E0;-1.036667252E1;8.964561820E-1;5.198616028E0
7.766353125E0;-1.089479637E1;1.260068417E0;6.837859154E0
7.778271875E0;-1.047514915E1;1.736629367E0;7.251002312E0
7.790184375E0;-9.307181358E0;2.035914183E0;5.751590729E0
7.802089063E0;-8.418990135E0;1.566669822E0;3.255702496E0
7.814000000E0;-8.325041771E0;7.009073496E-1;1.638706565E0
7.825912500E0;-8.374198914E0;1.133031994E-1;3.207655549E-1
7.837826563E0;-8.713563919E0;-3.274118602E-1;-9.795540571E-1
7.849742188E0;-8.861927032E0;-5.082794428E-1;-1.211245894E0
7.861665625E0;-8.589275360E0;-8.171889186E-1;-7.840914726E-1
7.873559375E0;-8.593345642E0;-1.138605714E0;-2.240015119E-1
7.885470313E0;-8.765172958E0;-1.556020379E0;9.637140483E-2
7.897382813E0;-9.054841995E0;-2.008103132E0;7.360255122E-1
7.909293750E0;-8.920403481E0;-2.049800634E0;6.324427724E-1
7.921204688E0;-8.465964317E0;-1.917420387E0;-2.107089013E-1
7.933117188E0;-7.712815285E0;-1.230456948E0;-1.213831544E0
7.945028125E0;-7.032278061E0;-2.461813986E-1;-2.231022358E0
7.956978125E0;-6.610323906E0;8.407478929E-1;-3.123676777E0
7.968851563E0;-6.384358883E0;2.022420645E0;-3.018370152E0
7.980762500E0;-6.712192535E0;2.693467379E0;-2.092580080E0
7.992682813E0;-7.304077148E0;3.040195465E0;-1.345933914E0
8.004585938E0;-8.191933632E0;2.864097357E0;-1.321857929E0
8.016496875E0;-9.248580933E0;2.475815296E0;-2.029986143E0
8.028418750E0;-9.946021080E0;2.158631325E0;-3.240197659E0
8.040325000E0;-9.772144318E0;1.883020520E0;-4.251987457E0
8.052232813E0;-9.052112579E0;1.297053933E0;-4.064789772E0
8.064143750E0;-9.411606789E0;7.725226879E-1;-2.937752485E0
8.076062500E0;-1.186133480E1;1.146966338E0;-1.233703375E0
8.087967188E0;-1.398398590E1;2.199227571E0;3.393924534E-1
8.099878125E0;-1.457484627E1;3.075783014E0;-2.370355427E-1
8.111792188E0;-1.452464485E1;3.514850855E0;-2.717131615E0
8.123701563E0;-1.350988674E1;3.552286625E0;-5.023676872E0
8.135612500E0;-1.154949474E1;2.962700129E0;-5.608809948E0
8.147526563E0;-1.061068058E1;2.186605215E0;-4.038616180E0
8.159435938E0;-1.157743073E1;2.274740696E0;-9.068757296E-1
8.171348438E0;-1.275423813E1;2.347055197E0;2.027093887E0
8.183259375E0;-1.229976082E1;2.446768761E0;3.471640348E0
8.195171875E0;-1.021105003E1;2.755439043E0;3.772533894E0
8.207082813E0;-9.192049026E0;2.724792957E0;4.171906471E0
8.219000000E0;-9.290402412E0;2.182266951E0;3.661328077E0
8.230912500E0;-9.876618385E0;1.099695206E0;2.401805639E0
8.242817188E0;-9.671645164E0;-8.633491397E-2;1.643743992E0
8.254734375E0;-8.696458817E0;-7.739784122E-1;1.787223577E0
8.266639063E0;-8.062455177E0;-1.399937630E0;1.796790838E0
8.278551563E0;-7.952417374E0;-1.600341916E0;2.160154104E0
8.290464063E0;-8.127596855E0;-1.411745906E0;2.987092257E0
8.302375000E0;-8.419248581E0;-8.961018324E-1;3.809854746E0
8.314293750E0;-8.530589104E0;-4.919797182E-1;4.048058987E0
8.326201563E0;-8.270587921E0;-1.924363524E-1;3.745728493E0
8.338110938E0;-8.103529930E0;-1.792395115E-1;3.401930571E0
8.350021875E0;-7.929107189E0;-3.137744963E-1;2.779610634E0
8.361934375E0;-7.982642174E0;-3.475998044E-1;2.553990841E0
8.373848438E0;-8.055559158E0;-2.981451452E-1;1.941496491E0
8.385757813E0;-8.030258179E0;-2.674131691E-1;1.416189432E0
8.397668750E0;-8.032594681E0;-3.311468065E-1;9.284331203E-1
8.409579688E0;-8.275931358E0;-3.709097207E-1;7.493277192E-1
8.421492188E0;-8.443171501E0;-3.307254314E-1;5.626757145E-1
8.433403125E0;-8.467495918E0;-2.586695552E-1;2.896983922E-1
8.445315625E0;-8.566482544E0;-2.540822625E-1;1.782914102E-1
8.457226563E0;-8.703583717E0;-3.150003254E-1;1.413345188E-1
8.469137500E0;-8.857397079E0;-4.801906645E-1;1.172488481E-1
8.481050000E0;-8.945024490E0;-6.967414618E-1;1.277450323E-1
8.492960938E0;-8.986578941E0;-9.651409984E-1;-1.573852450E-1
8.504871875E0;-9.163059235E0;-1.286002278E0;-5.244642496E-1
8.516789063E0;-9.248810768E0;-1.466812491E0;-6.105884910E-1
8.528695313E0;-9.278297424E0;-1.672378659E0;-1.192915797E0
8.540607813E0;-9.405344009E0;-1.736370802E0;-1.983203530E0
8.552520313E0;-9.757913589E0;-1.558031440E0;-2.786869764E0
8.564437500E0;-1.018964577E1;-1.310298681E0;-3.058822393E0
8.576342188E0;-1.049315453E1;-8.627936840E-1;-2.300894737E0
8.588253125E0;-1.078250790E1;-2.870935202E-1;-1.007748246E0
8.600165625E0;-1.071677208E1;4.124730825E-1;-1.418708265E-1
8.612082813E0;-1.056700134E1;4.327280223E-1;-2.110153586E-1
8.623996875E0;-1.068134785E1;-6.542779207E-1;-5.646581054E-1
8.635900000E0;-1.103328609E1;-2.022669315E0;-6.774249673E-1
8.647810938E0;-1.135166740E1;-3.570635796E0;-1.010535121E0
8.659723438E0;-1.136206722E1;-4.644291401E0;-1.200538993E0
8.671640625E0;-1.077360153E1;-4.592366219E0;-1.119557500E0
8.683546875E0;-1.166964531E1;-3.667562723E0;-3.020046055E-1
8.695457813E0;-1.385375118E1;-3.255166292E0;1.117622972E0
8.707368750E0;-1.619478226E1;-2.372500658E0;2.800986052E0
8.719281250E0;-1.600427055E1;-6.935140491E-1;3.619688272E0
8.731193750E0;-1.324313354E1;1.139103770E0;3.417310953E0
8.743106250E0;-1.196897888E1;2.357484102E0;3.820149899E0
8.755015625E0;-1.203075790E1;2.637031317E0;3.986585140E0
8.766926563E0;-1.233295441E1;2.553703308E0;3.855105162E0
8.778839063E0;-1.242995834E1;2.711107969E0;3.708264112E0
8.790757813E0;-1.196565533E1;2.913781643E0;3.367300987E0
8.802667188E0;-1.107972336E1;2.744933128E0;2.090856552E0
8.814573438E0;-9.838953018E0;2.486244440E0;7.156172991E-1
8.826489063E0;-8.793883324E0;1.935166121E0;-4.980226755E-1
8.838396875E0;-7.760181904E0;1.359590530E0;-1.064720750E0
8.850314063E0;-6.643756390E0;8.121898174E-1;-8.876742125E-1
8.862221875E0;-5.944007874E0;2.157846093E-1;-3.267127573E-1
8.874131250E0;-5.417283535E0;-2.652009130E-1;2.790490091E-1
8.886043750E0;-5.176426888E0;-6.738145947E-1;7.524018288E-1
8.897954688E0;-5.213767052E0;-1.099771738E0;1.340657234E0
8.909868750E0;-6.124914169E0;-1.576064706E0;1.838047862E0
8.921778125E0;-8.248475075E0;-1.884026051E0;2.042043447E0
8.933695313E0;-9.157419205E0;-1.515989423E0;1.618901730E0
8.945601563E0;-8.959342003E0;-3.813771605E-1;1.175773263E0
8.957512500E0;-8.520954132E0;1.037560821E0;1.027246594E0
8.969423438E0;-7.866638184E0;2.164703131E0;5.668416023E-1
8.981335938E0;-6.699186802E0;3.148394346E0;-2.908667922E-1
8.993246875E0;-5.656253338E0;3.650535107E0;-9.965816736E-1
9.005159375E0;-5.119952679E0;3.751503468E0;-1.568939567E0
9.017070313E0;-5.434148312E0;3.464792967E0;-1.447476983E0
9.028982813E0;-6.357716084E0;2.650592089E0;-7.909485102E-1
9.040893750E0;-7.124320984E0;1.797863483E0;-7.298197150E-1
9.052804688E0;-7.461175442E0;1.164003372E0;-1.187265515E0
9.064717188E0;-7.931952000E0;6.453427076E-1;-1.931440830E0
9.076628125E0;-8.471920967E0;1.222766712E-1;-2.678977489E0
9.088540625E0;-9.437502861E0;-4.582980871E-1;-3.035301685E0
9.100459375E0;-1.040114975E1;-8.260091543E-1;-3.044533968E0
9.112362500E0;-1.074624062E1;-8.885361552E-1;-2.868426085E0
9.124275000E0;-1.172276878E1;-9.892075062E-1;-2.129029512E0
9.136185938E0;-1.384332180E1;-4.944314063E-1;-4.976300299E-1
9.148098438E0;-1.427279377E1;1.365154624E0;-6.599281430E-1
9.160009375E0;-1.500875282E1;3.025926352E0;-4.987217903E0
9.171920313E0;-1.536058521E1;2.848084927E0;-1.013105488E1
9.183832813E0;-1.319113159E1;1.879477024E0;-1.389489365E1
9.195743750E0;-9.985832214E0;5.353530645E-1;-1.050465488E1
9.207656250E0;-8.145850182E0;8.511865884E-2;-1.536665678E0
9.219573438E0;-8.412487030E0;9.937086105E-1;4.440851688E0
9.231479688E0;-1.108746147E1;1.856464028E0;7.259870529E0
9.243390625E0;-1.182119846E1;2.178033829E0;7.800568104E0
9.255303125E0;-1.122059822E1;2.350186825E0;7.337768555E0
9.267214063E0;-1.009614754E1;2.582060337E0;6.706130505E0
9.279134375E0;-1.079386520E1;2.303653002E0;6.205215454E0
9.291037500E0;-1.230789185E1;2.051304102E0;5.631727695E0
9.302948438E0;-1.225925064E1;2.582242250E0;5.155185699E0
9.314860938E0;-1.051670265E1;2.974939108E0;4.343771458E0
9.326778125E0;-9.877690315E0;3.122766733E0;2.760744333E0
9.338687500E0;-1.041340828E1;2.906474590E0;3.286922932E0
9.350595313E0;-1.058237076E1;1.855803251E0;4.258212566E0
9.362509375E0;-1.129653358E1;4.283992946E-1;4.974452019E0
9.374418750E0;-1.132046604E1;-5.327194929E-1;4.570004463E0
9.386342188E0;-1.085457325E1;-1.299505591E0;2.918168068E0
9.398242188E0;-1.011938095E1;-1.617474675E0;1.431004763E0
9.410153125E0;-9.618178368E0;-1.933241248E0;5.050616264E-1
9.422064063E0;-9.049593925E0;-2.007854223E0;-8.063671179E-3
9.433976563E0;-8.564911842E0;-1.547171354E0;2.202665491E-4
9.445893750E0;-8.160147667E0;-8.689036965E-1;6.386198401E-1
9.457800000E0;-8.081254005E0;-3.862134814E-1;1.268917322E0
9.469710938E0;-8.167397499E0;-8.398859762E-3;1.055134296E0
9.481623438E0;-8.608218193E0;5.728941560E-1;1.219280720E0
9.493534375E0;-9.429228783E0;5.263221264E-1;1.535085559E0
9.505453125E0;-9.804112434E0;-4.201441109E-1;-3.777571321E-1
9.517357813E0;-9.268777847E0;-8.724470735E-1;-1.877973557E0
9.529268750E0;-9.123047829E0;-7.138551474E-1;-1.590133071E0
9.541181250E0;-9.490557671E0;-5.472953320E-1;-1.365805864E0
9.553092188E0;-1.011175823E1;-7.527561784E-1;-1.234910011E0
9.565004688E0;-9.921648026E0;-9.985832572E-1;-6.845214367E-1
9.576915625E0;-9.822202682E0;-1.437421322E0;-3.229299188E-2
9.588826563E0;-1.020846367E1;-2.019250631E0;2.317108512E-1
9.600737500E0;-1.018699360E1;-3.026711464E0;-3.910114467E-1
9.612650000E0;-1.028421688E1;-4.092609882E0;-1.758301705E-1
9.624560938E0;-1.090103054E1;-4.656271935E0;5.528977513E-1
9.636473438E0;-1.082095909E1;-3.801159143E0;1.273246050E0
9.648404688E0;-1.017087460E1;-1.990654230E0;1.426245093E0
9.660301563E0;-9.547061920E0;-4.376600962E-3;1.147263169E0
9.672207813E0;-8.852713585E0;1.570155740E0;6.936768293E-1
9.684125000E0;-8.530234337E0;2.485660076E0;5.212081075E-1
9.696031250E0;-9.836769104E0;2.625759363E0;9.449435472E-1
9.707945313E0;-1.139788437E1;2.456326485E0;1.297101855E0
9.719853125E0;-1.344415092E1;1.150979042E0;8.122185469E-1
9.731765625E0;-1.464956474E1;-3.961254656E-1;4.258901775E-1
9.743678125E0;-1.523428631E1;-1.621334195E0;1.654556155E0
9.755589063E0;-1.620464706E1;-2.864470720E0;3.437144756E0
9.767500000E0;-1.681611443E1;-3.935464382E0;4.122097015E0
9.779415625E0;-1.565767670E1;-2.916453600E0;6.279713154E0
9.791323438E0;-1.371758747E1;-1.393042326E0;7.217924118E0
9.803242188E0;-1.203673458E1;1.524819136E-1;7.078342438E0
9.815148438E0;-1.059149837E1;1.413000345E0;6.780972958E0
9.827057813E0;-9.754523277E0;2.077343464E0;6.604941845E0
9.838970313E0;-9.217704773E0;2.476006746E0;7.067415237E0
9.850881250E0;-8.550001144E0;3.294201136E0;7.563513279E0
9.862795313E0;-7.558714867E0;4.146958351E0;6.798268318E0
9.874704688E0;-7.038617611E0;4.419380188E0;5.354143620E0
9.886617188E0;-7.494722843E0;3.657009125E0;3.730855703E0
9.898528125E0;-8.679191589E0;2.093374968E0;2.129939318E0
9.910439063E0;-1.072291088E1;5.794447064E-1;-1.332229674E-1
9.922389063E0;-1.276224422E1;-4.904761612E-1;-1.153574228E0
9.934262500E0;-1.244945621E1;-1.089227676E0;-3.057778478E-1
9.946175000E0;-1.112462044E1;-1.417539835E0;9.962560534E-1
9.958085938E0;-1.029652309E1;-1.653445363E0;2.020773411E0
9.969996875E0;-1.009549618E1;-1.790125489E0;2.421926498E0
9.981909375E0;-9.266335487E0;-1.582969546E0;2.582299709E0
9.993820313E0;-7.305542469E0;-1.127324224E0;2.817927599E0
1.000573281E1;-6.193187237E0;-9.060903788E-1;2.995261192E0
1.001764531E1;-6.728970528E0;-9.405286312E-1;2.094859362E0
1.002955625E1;-7.862912655E0;-1.263831973E0;1.387899518E0
1.004146875E1;-8.505544662E0;-1.133501172E0;4.530020952E-1
1.005338125E1;-7.110089302E0;-2.620501816E-1;1.147492975E-1
1.006529063E1;-5.640576363E0;1.015543818E0;6.692751646E-1
1.007720156E1;-3.546741724E0;2.659172773E0;1.210594654E0
1.008911250E1;-2.163094282E0;3.823951960E0;1.652353525E0
1.010102500E1;-3.585585117E0;4.368757248E0;1.754193187E0
1.011293594E1;-7.650939465E0;4.828013420E0;1.260863304E0
1.012484844E1;-9.983993530E0;5.739265442E0;-1.754087955E-1
1.013675938E1;-9.880812645E0;6.754119396E0;-9.457192421E-1
1.014867031E1;-8.415168762E0;6.903824329E0;-5.569583774E-1
1.016058906E1;-7.225624084E0;6.394692421E0;4.056639671E-1
1.017249531E1;-6.604002953E0;5.897780895E0;1.371207088E-1
1.018440625E1;-6.858793736E0;5.616117001E0;-1.924746633E0
1.019631719E1;-8.045743942E0;5.794782162E0;-3.409573078E0
1.020822812E1;-8.721042633E0;6.152619839E0;-2.890826225E0
1.022014062E1;-8.544368744E0;6.773502827E0;-1.285906672E0
1.023205156E1;-7.621031284E0;7.438545227E0;4.049073905E-2
1.024396406E1;-5.498523235E0;7.861122131E0;7.301644683E-1
1.025587969E1;-5.034240246E0;6.959015846E0;5.980236530E-1
1.026778594E1;-9.130996704E0;4.826260567E0;-5.502258539E-1
1.027970156E1;-1.321333122E1;2.992847919E0;-1.203162909E0
1.029161094E1;-1.359269714E1;1.241719246E0;-1.184555218E-1
1.030352188E1;-1.412062836E1;2.827360630E-1;1.606988192E0
1.031543281E1;-1.288080502E1;-3.157568872E-1;2.822984219E0
1.032734531E1;-1.107697582E1;-3.636026382E-1;3.308528185E0
1.033928906E1;-9.909534454E0;7.928638160E-2;3.660418510E0
1.035116875E1;-9.381094933E0;5.743498802E-1;5.018294334E0
1.036307969E1;-9.934538841E0;6.246280670E-1;6.236320972E0
1.037499062E1;-9.792294502E0;9.515132308E-1;6.584006786E0
1.038690312E1;-9.232004166E0;1.313305736E0;5.207522869E0
1.039881406E1;-8.631576538E0;1.746790409E0;3.549193382E0
1.041073281E1;-8.483652115E0;1.725539446E0;2.632654428E0
1.042264219E1;-9.055369377E0;1.508356690E0;2.621794462E0
1.043455000E1;-9.487215996E0;1.369157672E0;2.928807974E0
1.044646094E1;-9.699389458E0;1.389039159E0;3.035665751E0
1.045838438E1;-9.613285065E0;1.123340368E0;2.812918901E0
1.047028438E1;-8.844161987E0;7.693623900E-1;1.979458928E0
1.048219531E1;-7.958652020E0;2.584205568E-1;1.443157673E0
1.049410781E1;-7.318988323E0;-3.370365500E-1;1.185187221E0
1.050601875E1;-6.586400986E0;-5.603868365E-1;1.106896877E0
1.051792969E1;-6.344098091E0;-8.568751812E-1;9.682534933E-1
1.052984219E1;-6.482358456E0;-1.171023250E0;1.174097419E0
1.054175313E1;-6.574028015E0;-9.877422452E-1;1.631619692E0
1.055366562E1;-6.531468391E0;-4.104906619E-1;2.117249966E0
1.056557656E1;-6.466624260E0;2.583822422E-2;2.127727032E0
1.057749063E1;-6.230555534E0;2.716557086E-1;1.485592484E0
1.058940000E1;-6.175603867E0;1.342189461E-1;7.494139075E-1
1.060132500E1;-6.268613815E0;-7.065768540E-2;2.730922103E-1
1.061322344E1;-6.751505375E0;-3.106333017E-1;2.682559192E-1
1.062513438E1;-7.393907547E0;-4.215710461E-1;8.607347012E-1
1.063704531E1;-8.114016533E0;-4.359937012E-1;1.710388899E0
1.064895781E1;-9.119140625E0;-6.411384940E-1;2.385783672E0
1.066086875E1;-1.009865665E1;-9.680715203E-1;2.865227222E0
1.067278125E1;-1.093687630E1;-1.196392179E0;3.393359661E0
1.068469219E1;-1.119823647E1;-1.592871904E0;3.216092825E0
1.069661250E1;-1.150386143E1;-1.846657395E0;2.544921398E0
1.070851875E1;-1.265209198E1;-1.808503270E0;2.563902855E0
1.072042656E1;-1.430091095E1;-1.514629483E0;3.085206509E0
1.073233906E1;-1.561815357E1;-1.306477547E0;3.715140104E0
1.074425000E1;-1.604150581E1;-1.481503248E0;2.681822062E0
1.075616094E1;-1.613492775E1;-1.943373561E0;1.035252810E0
1.076807344E1;-1.639098167E1;-1.960085034E0;4.779976010E-1
1.077998594E1;-1.621052551E1;-1.515108228E0;9.720075727E-1
1.079189688E1;-1.611478806E1;-1.105805159E0;1.681591511E0
1.080380781E1;-1.508977222E1;-1.694041342E-1;2.990156651E0
1.081572656E1;-1.320872498E1;1.026729465E0;4.228313446E0
1.082763125E1;-1.160078812E1;1.809489727E0;5.203443050E0
1.083954375E1;-1.010234356E1;2.443981886E0;5.173027515E0
1.085145469E1;-8.800989151E0;2.830856085E0;4.464889050E0
1.086336719E1;-7.870612144E0;2.897166014E0;3.271552324E0
1.087530625E1;-7.671012878E0;2.548388243E0;2.338359356E0
1.088718906E1;-7.781711102E0;2.191958666E0;2.537135601E0
1.089910156E1;-7.567132950E0;2.049829245E0;3.118773460E0
1.091101250E1;-7.448763847E0;1.961827993E0;3.701445341E0
1.092292500E1;-7.514183044E0;1.993220806E0;4.141039848E0
1.093483594E1;-7.927977562E0;1.952605605E0;4.372520924E0
1.094674844E1;-8.370990753E0;1.627358079E0;3.945711374E0
1.095865938E1;-9.014906883E0;9.427983165E-1;2.801886559E0
1.097057031E1;-9.589476585E0;1.970523894E-1;1.976403952E0
1.098248281E1;-9.099220276E0;-1.104397327E-1;1.886295795E0
1.099440000E1;-7.779057980E0;1.310681701E-1;2.259139776E0
1.100630469E1;-6.419266701E0;4.829775095E-1;2.193050623E0
1.101821719E1;-6.110031128E0;5.699732304E-1;1.763243437E0
1.103012813E1;-6.228467941E0;9.027481079E-1;1.396547437E0
1.104204062E1;-6.796056747E0;1.063877940E0;1.433944821E0
1.105395938E1;-7.337318420E0;1.074067593E0;1.353442311E0
1.106586719E1;-7.745223045E0;1.036852121E0;9.782804251E-1
1.107777500E1;-8.425741196E0;9.877614379E-1;6.903920174E-1
1.108968594E1;-8.898549080E0;1.284403086E0;8.776664138E-1
1.110159844E1;-8.385308266E0;1.768998981E0;1.084151983E0
1.111350938E1;-7.115941048E0;2.450063229E0;9.601323009E-1
1.112544531E1;-5.878617764E0;3.382892132E0;8.215655684E-1
1.113733281E1;-4.845183849E0;4.175583363E0;5.172911882E-1
1.114924531E1;-4.352218151E0;4.588746071E0;1.018589139E-1
1.116115625E1;-4.502803802E0;4.720302582E0;1.444469690E-1
1.117306719E1;-5.234002590E0;4.759740353E0;4.515751600E-1
1.118497969E1;-6.052953720E0;4.710745335E0;3.679026067E-1
1.119689062E1;-6.858344078E0;4.767765045E0;-3.857346177E-1
1.120880156E1;-7.390430927E0;5.042418480E0;-9.301186800E-1
1.122071406E1;-7.937630653E0;5.769796371E0;-1.005871177E0
1.123262500E1;-9.896786690E0;6.357582569E0;-8.917060494E-1
1.124453594E1;-1.290984154E1;6.577389240E0;-9.724097848E-1
1.125644844E1;-1.652209854E1;6.631536484E0;-1.057442307E0
1.126835938E1;-1.385316658E1;7.166362762E0;-1.220496893E0
1.128027188E1;-6.099727154E0;7.761321545E0;-1.549402833E0
1.129218281E1;-2.710925817E0;7.116046429E0;-1.451575756E0
1.130411875E1;-6.483536720E0;5.009340286E0;-1.229106545E0
1.131600625E1;-1.007065392E1;3.997435808E0;1.064940915E-2
1.132791875E1;-1.484130192E1;2.554364204E0;1.386261940E0
1.133982969E1;-1.734517860E1;9.441295266E-1;2.224788189E0
1.135175000E1;-1.718910408E1;3.096660376E-1;2.238530874E0
1.136365312E1;-1.423968697E1;4.404373467E-2;2.123570919E0
1.137556562E1;-1.182658100E1;-1.715780646E-1;2.787310600E0
1.138747656E1;-9.860471725E0;-5.965393037E-2;3.684666634E0
1.139938750E1;-8.732362747E0;4.365204275E-1;4.795183659E0
1.141130000E1;-8.108778000E0;9.831741452E-1;5.446473598E0
1.142321094E1;-7.920536041E0;1.322068572E0;5.102235317E0
1.143512188E1;-8.012799263E0;1.549201727E0;4.388322830E0
1.144703438E1;-8.161230087E0;1.800813198E0;3.872266769E0
1.145894531E1;-8.635282516E0;1.662600756E0;3.382432461E0
1.147085781E1;-9.129704475E0;1.589931846E0;3.308365583E0
1.148276875E1;-9.127731323E0;1.409456968E0;2.958639622E0
1.149468125E1;-8.896575928E0;1.177937627E0;2.450245142E0
1.150659219E1;-8.292987823E0;9.385461807E-1;1.628880739E0
1.151850312E1;-7.417504787E0;5.995846987E-1;9.347537756E-1
1.153042500E1;-6.684400558E0;3.779103756E-1;5.390210152E-1
1.154232656E1;-5.983857155E0;1.191354729E-2;5.615073442E-1
1.155423906E1;-5.820945740E0;-2.145204842E-1;7.295994163E-1
1.156615000E1;-5.886929989E0;-5.240045786E-1;1.327345490E0
1.157806094E1;-6.019856453E0;-8.002284169E-1;1.809863329E0
1.158997656E1;-5.929297924E0;-7.162398100E-1;2.251631737E0
1.160188438E1;-6.677658081E0;-6.769078374E-1;2.637414217E0
1.161379531E1;-7.242928982E0;-5.060959458E-1;1.870810032E0
1.162570781E1;-7.655000687E0;-7.527465820E-1;-2.539386153E-1
1.163761875E1;-7.773130417E0;-9.499809742E-1;-1.898228407E0
1.164953125E1;-8.317523003E0;-1.229336381E0;-2.094419003E0
1.166145156E1;-8.770966530E0;-1.514993429E0;-9.835763574E-1
1.167335469E1;-9.048636436E0;-1.691982269E0;4.177786112E-1
1.168526563E1;-9.309489250E0;-1.855075359E0;2.660331488E0
1.169717656E1;-9.899544716E0;-1.711250901E0;4.706090927E0
1.170909531E1;-1.073466206E1;-1.537374377E0;4.986413479E0
1.172101094E1;-1.250194645E1;-1.632883906E0;4.435344696E0
1.173291250E1;-1.353669262E1;-1.747748017E0;3.403970718E0
1.174482344E1;-1.421771812E1;-1.664860845E0;2.425709486E0
1.175673438E1;-1.502909374E1;-1.581686258E0;1.704834461E0
1.176865625E1;-1.587357616E1;-1.383302689E0;1.627070785E0
1.178055938E1;-1.603305054E1;-4.122623801E-1;2.267606020E0
1.179247031E1;-1.471480179E1;4.184681475E-1;1.604086399E0
1.180438594E1;-1.348152924E1;5.235161185E-1;8.748987317E-1
1.181629375E1;-1.355958939E1;2.239057422E-1;1.737309337E0
1.182821094E1;-1.270442009E1;4.275756776E-1;2.667820454E0
1.184012500E1;-1.184512138E1;9.943215251E-1;3.211601257E0
1.185202812E1;-1.131576347E1;1.636944413E0;3.724142313E0
1.186393906E1;-1.102324867E1;2.064060450E0;4.285324097E0
1.187585156E1;-1.029272079E1;1.940443039E0;4.879047871E0
1.188776875E1;-9.397212982E0;1.891179919E0;4.802959919E0
1.189967656E1;-8.915699959E0;2.149849415E0;5.099984646E0
1.191158594E1;-9.412056923E0;2.390313387E0;4.826011658E0
1.192349688E1;-1.107861328E1;2.091632128E0;3.863504171E0
1.193540938E1;-1.192725182E1;1.953410029E0;3.249266863E0
1.194732812E1;-1.162486458E1;1.831516385E0;2.630212545E0
1.195923125E1;-1.007703209E1;1.891591668E0;2.105211973E0
1.197114375E1;-7.659290314E0;2.515310049E0;1.766470671E0
1.198305625E1;-5.517514706E0;3.090406656E0;1.160881400E0
1.199496719E1;-5.012375832E0;2.877409220E0;9.517909288E-1
1.200687812E1;-5.190198421E0;2.362923861E0;8.520293832E-1
1.201879063E1;-6.896066666E0;1.841983914E0;1.101687193E0
1.203070156E1;-8.476997375E0;1.412339568E0;9.124685526E-1
1.204261406E1;-9.863958359E0;8.686929941E-1;7.477570772E-1
1.205452500E1;-9.754389763E0;5.732676387E-1;1.438091636E0
1.206647344E1;-8.413138390E0;5.828348994E-1;2.563127041E0
1.207835938E1;-7.453791618E0;8.591066003E-1;2.962211609E0
1.209025938E1;-6.922317028E0;1.136661649E0;2.458538532E0
1.210217031E1;-6.321008205E0;1.278752685E0;1.477615118E0
1.211408281E1;-5.332155228E0;1.822887659E0;4.134977758E-1
1.212600000E1;-4.094602108E0;2.761635065E0;-4.635270238E-1
1.213790781E1;-2.875675678E0;3.768320322E0;-1.150595784E0
1.214981719E1;-2.241355896E0;4.764403820E0;-1.374319673E0
1.216172813E1;-1.940194011E0;5.515091419E0;-1.525068164E0
1.217364062E1;-1.990749955E0;5.674449921E0;-1.488293171E0
1.218555156E1;-2.643438101E0;5.530117512E0;-1.555215955E0
1.219746406E1;-4.653026104E0;5.074845791E0;-1.471868992E0
1.220937500E1;-6.539091587E0;5.586189747E0;-1.262328506E0
1.222128594E1;-6.082105637E0;6.447489262E0;-1.326876044E0
1.223319844E1;-5.713302612E0;6.960720062E0;-1.489701033E0
1.224511562E1;-4.845931053E0;7.116314411E0;-1.360758901E0
1.225702188E1;-3.889361620E0;7.296721935E0;-6.705679744E-2
1.226893438E1;-5.352860451E0;6.935973644E0;4.187363088E-1
1.228084531E1;-7.868170261E0;6.368586063E0;2.351106144E-2
1.229275781E1;-8.745127678E0;5.615523338E0;2.691944540E-1
1.230467969E1;-1.064305973E1;5.157732964E0;8.133773804E-1
1.231657969E1;-1.532138729E1;4.732216358E0;8.893789053E-1
1.232849219E1;-2.159033585E1;3.531706095E0;-1.843535304E-1
1.234040312E1;-1.651996231E1;3.496089935E0;-1.801330328E0
1.235231406E1;-7.414258480E0;5.048519135E0;-1.240263581E0
1.236424062E1;-4.953784943E0;5.357916832E0;1.138749361E0
1.237613750E1;-7.930046082E0;5.678940773E0;3.235878468E0
1.238805000E1;-1.223622894E1;5.722888947E0;3.296700954E0
1.239996094E1;-1.611197090E1;5.093558788E0;2.707085371E0
1.241187344E1;-1.592894936E1;3.939955711E0;9.599025249E-1
1.242378906E1;-1.313083553E1;1.788018584E0;3.188981116E-1
1.243570469E1;-1.116829014E1;4.248654544E-1;1.071165919E0
1.244760781E1;-9.407842636E0;2.803610265E-1;2.382182837E0
1.245951875E1;-8.535864830E0;3.502142429E-1;3.135839224E0
1.247143125E1;-8.531316757E0;6.103873253E-1;3.861560106E0
1.248337344E1;-8.975670815E0;1.209320784E0;4.627283096E0
1.249525313E1;-9.354759216E0;1.818415403E0;4.599433899E0
1.250716562E1;-9.428720474E0;2.017517328E0;4.276273727E0
1.251907656E1;-9.575571060E0;1.863416791E0;3.667735100E0
1.253098750E1;-9.501800537E0;1.774371624E0;3.014060497E0
1.254290000E1;-9.798663139E0;1.522357941E0;2.363757133E0
1.255481094E1;-9.576079369E0;1.347044945E0;1.462483764E0
1.256672344E1;-9.023459435E0;8.773887157E-1;7.113938928E-1
1.257863438E1;-8.295842171E0;4.663234651E-1;3.903793693E-1
1.259054688E1;-7.555506706E0;1.395628005E-1;3.750277460E-1
1.260245781E1;-6.964196205E0;-1.796225905E-1;8.021628857E-1
1.261437656E1;-6.844457626E0;-5.896056890E-1;1.487479210E0
1.262628125E1;-6.994353771E0;-1.028185129E0;1.957623720E0
1.263819219E1;-7.054304600E0;-1.412962079E0;2.530518055E0
1.265010313E1;-7.254296780E0;-1.593484879E0;2.802010775E0
1.266201562E1;-6.664040089E0;-1.209493279E0;2.984286070E0
1.267392656E1;-6.826453209E0;-9.333843589E-1;2.954808950E0
1.268583906E1;-7.443333626E0;-1.028922439E0;1.801110148E0
1.269775000E1;-7.782476902E0;-9.062148929E-1;5.880925059E-1
1.270968125E1;-8.079942703E0;-6.489340067E-1;-5.462993979E-1
1.272157344E1;-8.324936867E0;-6.957837343E-1;-1.706759453E0
1.273348438E1;-8.991395950E0;-1.067028642E0;-2.714536428E0
1.274539688E1;-9.328460693E0;-1.531800628E0;-2.048545837E0
1.275730938E1;-1.031373215E1;-1.997195244E0;5.881882906E-1
1.276922188E1;-1.053926659E1;-1.711452007E0;3.543054581E0
1.278113750E1;-1.104364872E1;-1.489509463E0;4.358232498E0
1.279304375E1;-1.196921730E1;-1.039763570E0;3.772007227E0
1.280495469E1;-1.305220127E1;-6.575722694E-1;2.934582472E0
1.281686875E1;-1.447568893E1;-5.654721260E-1;1.723490000E0
1.282877813E1;-1.564088821E1;-7.716224790E-1;3.749224246E-1
1.284068906E1;-1.612350273E1;-9.123536348E-1;-5.030983686E-1
1.285260156E1;-1.577767372E1;-6.278746128E-1;-8.802425861E-1
1.286451250E1;-1.463111973E1;-5.410895869E-2;-1.291374922E0
1.287642500E1;-1.414321041E1;-2.781104669E-2;-1.034620762E0
1.288833594E1;-1.389784241E1;-3.458951116E-1;1.390073597E-1
1.290024688E1;-1.276868916E1;-1.856272370E-1;2.757162571E0
1.291216094E1;-1.123683071E1;5.061054826E-1;5.676010609E0
1.292407031E1;-9.902752876E0;1.461727142E0;7.481324673E0
1.293598281E1;-8.692091942E0;2.386674404E0;8.133563042E0
1.294789375E1;-7.494359016E0;2.729016304E0;6.710133076E0
1.295980938E1;-7.002302647E0;2.648370028E0;4.756321430E0
1.297171719E1;-7.227309704E0;2.568174124E0;4.523786545E0
1.298363438E1;-7.701160431E0;2.307560205E0;4.724056721E0
1.299554062E1;-8.232022285E0;2.193060160E0;4.657814026E0
1.300745156E1;-8.088360786E0;2.347514629E0;3.925293684E0
1.301936250E1;-8.368271828E0;2.144448280E0;3.027381897E0
1.303127500E1;-9.710747719E0;1.569035292E0;1.825176477E0
1.304318750E1;-1.132610607E1;7.258645296E-1;6.092094183E-1
1.305509844E1;-1.184976673E1;1.585344523E-1;1.680059135E-1
1.306700938E1;-1.020758343E1;4.621479809E-1;5.427176356E-1
1.307892031E1;-7.894123554E0;9.319764972E-1;8.107820153E-1
1.309083750E1;-6.458445549E0;7.616338730E-1;6.358041763E-1
1.310274375E1;-5.914041996E0;7.193331122E-1;1.112077951E0
1.311465625E1;-6.941174030E0;4.476008117E-1;1.374942183E0
1.312656719E1;-8.779413223E0;3.962595165E-1;1.601079345E0
1.313847969E1;-1.080729198E1;-4.548025504E-2;1.588811398E0
1.315039062E1;-1.081809425E1;-1.172871515E-1;2.168849945E0
1.316230156E1;-9.547425270E0;-2.447448671E-1;2.975466013E0
1.317421406E1;-7.493774891E0;-2.945825830E-2;3.374665499E0
1.318612500E1;-5.486505032E0;6.141223311E-1;3.432040215E0
1.319803906E1;-4.961360455E0;1.315068007E0;3.262492418E0
1.320994844E1;-4.497642040E0;2.509056330E0;2.476447344E0
1.322185938E1;-3.975897551E0;3.920658350E0;1.598742604E0
1.323377188E1;-3.957960129E0;5.030830383E0;3.894695640E-1
1.324568281E1;-4.388140678E0;5.374523163E0;-5.188809633E-1
1.325761406E1;-5.047551632E0;5.300695419E0;-7.293121219E-1
1.326951250E1;-5.552690029E0;5.077153683E0;-2.054703832E-1
1.328141875E1;-6.272013664E0;4.652575493E0;5.291377306E-1
1.329332969E1;-6.954360962E0;4.187439442E0;3.315586150E-1
1.330524219E1;-6.346741199E0;4.435115337E0;-6.065757871E-1
1.331715312E1;-5.612506866E0;4.980868816E0;-1.611690402E0
1.332907188E1;-6.631622791E0;5.078982830E0;-2.333475113E0
1.334097656E1;-8.925843239E0;4.910632133E0;-2.036986828E0
1.335288750E1;-1.134586334E1;4.609403133E0;-8.860749006E-1
1.336480000E1;-1.255694675E1;4.821750164E0;1.061713457E0
1.337671094E1;-1.257755566E1;5.219685555E0;2.587921381E0
1.338862344E1;-1.138368130E1;5.867240429E0;2.982236862E0
1.340055938E1;-1.000082874E1;6.743029594E0;2.382067919E0
1.341244531E1;-1.035104370E1;7.458024502E0;2.580029964E0
1.342435781E1;-1.444646931E1;7.319505215E0;2.877562284E0
1.343627188E1;-1.648430824E1;6.265942097E0;3.312148094E0
1.344817969E1;-1.363266087E1;4.782705307E0;3.661404848E0
1.346009219E1;-1.073674965E1;3.563252211E0;2.808437109E0
1.347200312E1;-8.800291061E0;2.410549402E0;1.856387377E0
1.348391563E1;-8.184061050E0;1.608731151E0;1.009883881E0
1.349582656E1;-8.329993248E0;1.125332236E0;7.558303475E-1
1.350773750E1;-8.994125366E0;1.043125033E0;1.237189293E0
1.351965000E1;-9.458188057E0;1.015610814E0;2.244669437E0
1.353156094E1;-9.704868317E0;8.571816683E-1;3.241653204E0
1.354347344E1;-9.400813103E0;8.622478247E-1;4.119386673E0
1.355538750E1;-9.980794907E0;5.044966340E-1;4.825715065E0
1.356729688E1;-9.543077469E0;7.708850503E-1;5.009828568E0
1.357920781E1;-9.141760826E0;1.078817725E0;4.583306789E0
1.359111875E1;-8.895282745E0;1.043517590E0;3.652469635E0
1.360303125E1;-8.824510574E0;7.997974157E-1;2.537327051E0
1.361494844E1;-8.544934273E0;3.619171083E-1;1.548100352E0
1.362685312E1;-8.313414574E0;-8.376832306E-2;8.765938878E-1
1.363876563E1;-8.337961197E0;-5.017097592E-1;6.950846314E-1
1.365067656E1;-8.356224060E0;-9.955569506E-1;7.951239347E-1
1.366258906E1;-8.319199562E0;-1.365327001E0;1.124326706E0
1.367450156E1;-7.989556789E0;-1.276119113E0;1.448252559E0
1.368641094E1;-8.002456665E0;-1.312587500E0;1.434845090E0
1.369832344E1;-7.866638184E0;-1.320229888E0;1.331607103E0
1.371023438E1;-7.369305134E0;-1.365757942E0;1.218696475E0
1.372214688E1;-6.269149780E0;-9.455372691E-1;1.221560001E0
1.373406563E1;-6.313299179E0;-1.018694520E0;2.069720268E0
1.374596875E1;-6.361058712E0;-7.383526564E-1;3.310213566E0
1.375788125E1;-6.232317924E0;-1.550197750E-1;4.161237240E0
1.376979844E1;-6.518865108E0;1.945911348E-1;4.398455143E0
1.378170469E1;-6.943951130E0;3.425815403E-1;3.666719913E0
1.379361563E1;-7.520436287E0;2.653924525E-1;2.591426611E0
1.380552812E1;-7.981818199E0;6.817728281E-2;1.453261256E0
1.381743906E1;-8.897226334E0;-4.704797864E-1;8.248216510E-1
1.382935156E1;-9.907494545E0;-1.078319669E0;9.126984477E-1
1.384126250E1;-1.101184368E1;-1.689252973E0;1.534980178E0
1.385317500E1;-1.145842838E1;-1.909758925E0;2.428266287E0
1.386508594E1;-1.152962303E1;-1.808081865E0;2.689665318E0
1.387699688E1;-1.184889412E1;-1.786524534E0;2.343549967E0
1.388890938E1;-1.255528927E1;-1.635249376E0;2.280103445E0
1.390082031E1;-1.373010540E1;-1.406124234E0;2.586053848E0
1.391273438E1;-1.503166962E1;-1.022975326E0;2.984401226E0
1.392464375E1;-1.553178978E1;-7.755681276E-1;2.624686718E0
1.393655469E1;-1.528059006E1;-3.815591335E-1;1.615482807E0
1.394846719E1;-1.396138477E1;2.088031173E-1;-1.477988660E-1
1.396037812E1;-1.335934830E1;-3.069558144E-1;-1.523296475E0
1.397229063E1;-1.312915134E1;-9.510056376E-1;-2.148250341E0
1.398420156E1;-1.274451733E1;-7.616146803E-1;4.332547262E-2
1.399611563E1;-1.192420673E1;5.998624563E-1;3.565866470E0
1.400802500E1;-1.062657833E1;2.203700066E0;6.321937561E0
1.401993594E1;-9.391284943E0;3.493743658E0;7.809713364E0
1.403184844E1;-8.603343964E0;3.955623627E0;8.067099571E0
1.404377344E1;-8.751056671E0;3.528440475E0;6.558934689E0
1.405567188E1;-9.256520271E0;3.159675837E0;3.878166199E0
1.406758281E1;-9.130919456E0;3.120535374E0;1.569676995E0
1.407949375E1;-8.900933266E0;3.078273058E0;1.295205712E0
1.409142500E1;-8.616693497E0;2.987159252E0;2.512475252E0
1.410331719E1;-7.377761364E0;3.151171684E0;4.472244263E0
1.411522813E1;-6.249651909E0;3.327902079E0;5.204841137E0
1.412714063E1;-6.374868870E0;2.718443632E0;5.408358097E0
1.413905156E1;-6.349863052E0;2.244315147E0;4.000452518E0
1.415096406E1;-7.395085812E0;1.043881416E0;2.462302446E0
1.416287500E1;-8.382741928E0;1.702756248E-2;1.399860978E0
1.417478750E1;-8.376048088E0;-4.111514688E-1;1.170094252E0
1.418669844E1;-7.809866905E0;-5.697721243E-1;1.166972160E0
1.419860938E1;-7.336581230E0;-7.069503069E-1;9.838540554E-1
1.421052188E1;-7.742675781E0;-1.022688031E0;9.177358150E-1
1.422243281E1;-8.085669518E0;-6.257102489E-1;9.973573685E-1
1.423434375E1;-8.635425568E0;-1.803695858E-1;1.397495508E0
1.424625625E1;-9.320636749E0;6.972873211E-2;1.844339728E0
1.425816719E1;-8.933886528E0;4.624639750E-1;2.026385307E0
1.427007969E1;-8.451675415E0;8.485242128E-1;2.162816525E0
1.428199531E1;-8.815201759E0;1.234670639E0;1.810983777E0
1.429390313E1;-9.296436310E0;1.315805435E0;1.218246460E0
1.430581406E1;-8.103347778E0;2.134517193E0;1.248307943E0
1.431772656E1;-6.829853058E0;3.278753996E0;8.105617762E-1
1.432964063E1;-6.079576969E0;4.264705181E0;5.763609409E-1
1.434154844E1;-5.804885864E0;4.730502129E0;5.934076309E-1
1.435346094E1;-5.538363457E0;5.339136600E0;2.349861115E-1
1.436537188E1;-4.651857376E0;5.743632317E0;1.483447384E-2
1.437729375E1;-3.802289009E0;5.745538235E0;-3.562380672E-1
1.438919531E1;-4.689216137E0;5.133120537E0;-5.397105217E-1
1.440110781E1;-6.094794750E0;4.837532043E0;-6.273670793E-1
1.441301875E1;-7.505898952E0;4.833270550E0;-8.115003109E-1
1.442493594E1;-9.722968102E0;4.879249096E0;-8.671223521E-1
1.443684219E1;-1.282050991E1;5.060930729E0;-1.147081137E0
1.444877812E1;-1.613425636E1;5.428124428E0;-1.521486402E0
1.446066719E1;-1.810248184E1;5.437663078E0;-2.414121389E0
1.447257656E1;-1.497110653E1;5.273535728E0;-2.459429502E0
1.448448750E1;-9.164850235E0;5.277835369E0;-1.618355870E0
1.449640000E1;-5.983358860E0;5.188119888E0;1.321599353E-3
1.450831094E1;-6.598496437E0;4.725033760E0;1.811127424E0
1.452022344E1;-1.033059788E1;3.688152790E0;2.739167929E0
1.453213438E1;-1.342059135E1;2.178531885E0;2.891755104E0
1.454404531E1;-1.267352486E1;1.316207647E0;2.920724869E0
1.455595781E1;-1.034194565E1;7.954687476E-1;2.473421097E0
1.456786875E1;-9.520706177E0;3.734092712E-1;2.598072767E0
1.457978125E1;-9.506244659E0;4.723089635E-1;2.820168495E0
1.459169219E1;-9.746479034E0;1.070351839E0;2.805640459E0
1.460360313E1;-1.008219433E1;1.467923284E0;2.665656328E0
1.461551562E1;-1.108675289E1;9.962273836E-1;2.719659805E0
1.462743281E1;-1.117941761E1;8.165377378E-1;2.981738806E0
1.463933906E1;-1.036296654E1;9.182338119E-1;2.852356195E0
1.465125156E1;-9.559760094E0;1.100403786E0;2.674715996E0
1.466316094E1;-9.151760101E0;1.100633621E0;2.593341827E0
1.467507344E1;-8.629220009E0;9.517909288E-1;2.417090416E0
1.468701562E1;-8.328719139E0;5.287929773E-1;2.499661446E0
1.469889688E1;-8.124713898E0;1.102482006E-1;2.779994011E0
1.471279375E1;-7.946479797E0;-1.753417552E-1;2.789752483E0
1.472470469E1;-7.498725891E0;-2.077783942E-1;2.228139877E0
1.473662344E1;-7.372886658E0;-5.856696367E-1;1.640727282E0
1.474852813E1;-7.756169319E0;-1.158621192E0;1.158975601E0
1.476043906E1;-7.934719563E0;-1.463345647E0;9.527677894E-1
1.477235156E1;-7.998147011E0;-1.580968022E0;1.019747972E0
1.478426406E1;-7.688863754E0;-1.318582654E0;1.477873683E0
1.479617500E1;-7.233017445E0;-8.817079067E-1;2.292007685E0
1.480808594E1;-7.365177155E0;-6.196959615E-1;2.944887161E0
1.481999844E1;-7.288064957E0;-4.072153866E-1;3.246393681E0
1.483190938E1;-7.566874504E0;-2.570031881E-1;2.997483253E0
1.484382188E1;-7.881673813E0;-2.755821943E-1;2.396270275E0
1.485573281E1;-8.274130821E0;-2.966990769E-1;2.035148144E0
1.486764375E1;-8.560018539E0;-4.394317865E-1;1.753388762E0
1.487955938E1;-8.811342239E0;-6.780283451E-1;1.766509056E0
1.489146719E1;-8.966322899E0;-7.797531486E-1;1.834035158E0
1.490337813E1;-9.193916321E0;-8.447797298E-1;2.067929506E0
1.491529688E1;-9.296580315E0;-8.515121937E-1;2.084650517E0
1.492720469E1;-9.415878296E0;-7.667286992E-1;2.308623314E0
1.493911406E1;-9.338257790E0;-3.783125877E-1;2.397122622E0
1.495102500E1;-9.046577454E0;6.129156332E-3;2.040894270E0
1.496294219E1;-8.854753494E0;3.148949742E-1;1.814306855E0
1.497484844E1;-8.666636467E0;5.536639690E-1;1.504430175E0
1.498676094E1;-8.695214272E0;5.463281274E-1;1.260365248E0
1.499867188E1;-8.903595924E0;3.702297807E-1;1.288281560E0
1.501058281E1;-9.111105919E0;2.107184827E-1;1.653598547E0
1.502249531E1;-9.355372429E0;1.592718810E-1;1.993086696E0
1.503440625E1;-9.582467079E0;2.841247022E-1;2.355147362E0
1.504631719E1;-9.763917923E0;4.817325473E-1;2.627397060E0
1.505822969E1;-9.881473541E0;6.202514768E-1;2.754251242E0
1.507014062E1;-1.008766174E1;6.163249612E-1;2.749194860E0
1.508205313E1;-1.026860619E1;5.482338667E-1;2.661385059E0
1.509396406E1;-1.053017807E1;5.106928349E-1;2.594931602E0
1.510587500E1;-1.090926647E1;4.473805130E-1;2.613730907E0
1.511779375E1;-1.148712063E1;3.493331969E-1;2.501960039E0
1.512969844E1;-1.198025036E1;2.579417229E-1;2.433006763E0
1.514161094E1;-1.254899693E1;1.713578105E-1;2.203096390E0
1.515352656E1;-1.304472160E1;-2.987580597E-1;1.335140944E0
1.516544844E1;-1.384432793E1;-1.248403788E0;4.028387964E-1
1.517734531E1;-1.529379654E1;-2.309245825E0;7.680120468E-1
1.518925781E1;-1.781134796E1;-2.499144316E0;4.427453518E0
1.520116875E1;-1.681366348E1;-1.832426190E-1;7.948232651E0
1.521308594E1;-1.368790054E1;1.056656957E0;7.210511684E0
1.522499375E1;-1.040787220E1;1.450780869E0;5.790616035E0
1.523690313E1;-8.156872749E0;1.641570091E0;5.170211315E0
1.524881562E1;-6.982181549E0;1.539299369E0;4.335822582E0
1.526072656E1;-7.002599716E0;1.173158765E0;3.912958622E0
1.527264063E1;-7.611109734E0;1.011636376E0;3.547536612E0
1.528455000E1;-8.087086678E0;1.288626313E0;2.955278158E0
1.529646250E1;-8.056173325E0;1.917324543E0;2.229930639E0
1.530837344E1;-7.752530098E0;2.798467636E0;1.661710024E0
1.532028438E1;-7.486007690E0;3.474417686E0;1.316293836E0
1.533219688E1;-7.285469532E0;3.777044773E0;1.442669272E0
1.534410938E1;-6.988904953E0;3.862240076E0;1.548531413E0
1.535602344E1;-6.722860813E0;3.840280294E0;1.405549645E0
1.536793125E1;-6.328018665E0;3.879775047E0;1.240215540E0
1.537984219E1;-6.760248661E0;3.361612320E0;1.108276010E0
1.539175781E1;-7.288993835E0;2.860975266E0;1.109492183E0
1.540366562E1;-7.757730484E0;2.257942915E0;1.140655160E0
1.541557656E1;-8.395067215E0;1.289488316E0;8.359882236E-1
1.542748906E1;-9.539495468E0;-8.935160935E-2;4.760439098E-1
1.543940000E1;-1.097412014E1;-1.710848689E0;1.331942230E-1
1.545131250E1;-1.169329071E1;-2.749654531E0;6.839085221E-1
1.546322812E1;-1.089609718E1;-2.795067549E0;1.672962785E0
1.547513438E1;-9.580896378E0;-2.362186432E0;2.253738880E0
1.548704688E1;-9.339062691E0;-1.786572456E0;2.883566856E0
1.549895781E1;-9.548239708E0;-9.398295283E-1;2.959137440E0
1.551087813E1;-1.004257488E1;6.234979630E-1;2.612926245E0
1.552278125E1;-1.063337803E1;1.491396070E0;2.773625135E0
1.553469219E1;-1.048948669E1;1.546462774E0;3.234576225E0
1.554660469E1;-9.115683556E0;1.652583361E0;2.646062374E0
1.555851719E1;-7.414938450E0;2.453510761E0;1.925981998E0
1.557042813E1;-6.419534683E0;3.172968388E0;1.575691104E0
1.558233906E1;-5.699052334E0;3.776115656E0;8.832018375E-1
1.559425000E1;-5.020784855E0;4.374350071E0;1.951465905E-1
1.560616250E1;-4.779994965E0;4.402400494E0;-4.901026487E-1
1.561807344E1;-5.342891216E0;4.286645889E0;-7.417715192E-1
1.562998438E1;-5.976013660E0;3.926864147E0;-6.127431989E-1
1.564189688E1;-6.731499195E0;3.545439243E0;-4.657009542E-1
1.565380781E1;-7.404279232E0;3.272682190E0;-4.115345478E-1
1.566572031E1;-7.121973991E0;3.183024168E0;-2.075294107E-1
1.567763281E1;-7.385566235E0;3.050864220E0;-2.965171039E-1
1.568954375E1;-8.201347351E0;3.443015337E0;-2.682271898E-1
1.570145625E1;-8.289368629E0;4.470003605E0;-2.589568496E-1
1.571336719E1;-8.021849632E0;5.159294128E0;-4.041891098E-1
1.572527812E1;-7.810900688E0;5.311881542E0;-7.360829711E-1
1.573719062E1;-7.730302811E0;5.037591934E0;-9.815652370E-1
1.574910156E1;-8.017395973E0;4.738613605E0;-6.637876630E-1
1.576101406E1;-8.379275322E0;4.394824982E0;-2.560933828E-1
1.577292500E1;-8.936452866E0;4.100817204E0;-2.266830206E-2
1.578483594E1;-9.896777153E0;3.867200613E0;-4.673481919E-3
1.579674844E1;-1.025415516E1;4.093768597E0;1.609669626E-1
1.580865938E1;-9.351684570E0;4.813073158E0;3.787914515E-1
1.582057344E1;-7.239768982E0;6.086520672E0;1.086019397E0
1.583248281E1;-8.186819077E0;6.947341442E0;1.348031402E0
1.584439375E1;-1.427230549E1;7.301156044E0;1.076260686E0
1.585630625E1;-2.335240173E1;7.085017681E0;-3.433093429E-1
1.586821719E1;-2.097336960E1;6.711244106E0;-5.401510596E-1
1.588012969E1;-1.440728092E1;5.037342548E0;2.914088249E0
1.589204219E1;-9.885993958E0;2.874028683E0;4.725751877E0
1.590395938E1;-7.540959358E0;1.080148935E0;4.486944675E0
1.591586406E1;-6.806265354E0;2.067824155E-1;3.325871944E0
1.592779063E1;-7.079596996E0;7.529572845E-1;2.431426764E0
1.593968906E1;-7.630119801E0;1.695640683E0;1.639185429E0
1.595159844E1;-8.401598930E0;2.086269140E0;1.095423937E0
1.596351094E1;-9.495499611E0;1.989686966E0;1.282765388E0
1.597542188E1;-1.090840435E1;1.470662355E0;2.193251371E0
1.598733906E1;-1.207655430E1;7.481688857E-1;3.528421164E0
1.599924375E1;-1.247436523E1;5.642846227E-1;3.988950729E0
1.601115625E1;-1.211717033E1;9.069810510E-1;3.893939257E0
1.602306719E1;-1.161992264E1;7.803086638E-1;3.578488827E0
1.603497969E1;-1.018836212E1;8.817653060E-1;3.120717525E0
1.604689062E1;-9.203291893E0;6.824049950E-1;2.440448046E0
1.605880312E1;-8.630484581E0;4.816080332E-1;1.992368460E0
1.607071563E1;-8.314832687E0;1.831181198E-1;1.933078527E0
1.608263281E1;-8.397768021E0;-2.591579556E-1;2.015687943E0
1.609453750E1;-8.975536346E0;-7.512047291E-1;2.402820826E0
1.610645312E1;-8.563312531E0;-6.392422318E-1;2.382518053E0
1.611836094E1;-8.207265854E0;-8.016265631E-1;2.237764597E0
1.613027188E1;-7.439359188E0;-6.373940110E-1;1.782645941E0
1.614218438E1;-7.227721691E0;-8.425482512E-1;1.244716644E0
1.615409531E1;-6.862241745E0;-9.515514970E-1;8.280681968E-1
1.616600625E1;-6.909196854E0;-1.048928499E0;4.887331724E-1
1.617791875E1;-7.121973991E0;-1.108860135E0;6.173688173E-1
1.618982969E1;-7.244815826E0;-8.331630230E-1;9.832507372E-1
1.620174219E1;-7.347230434E0;-4.633833766E-1;1.480909586E0
1.621365312E1;-7.052561760E0;-3.419590592E-1;1.392553926E0
1.622556719E1;-7.254344940E0;-2.336357683E-1;1.241556406E0
1.623747969E1;-7.650020599E0;5.153279752E-2;1.406430721E0
1.624938750E1;-7.881539345E0;2.258115262E-1;1.545074105E0
1.626130000E1;-8.009169579E0;5.653189123E-2;1.320986509E0
1.627321094E1;-8.205159187E0;-6.536170840E-2;1.359331965E0
1.628512969E1;-8.284043312E0;-1.123455167E-1;1.517416239E0
1.629703906E1;-8.485108376E0;-8.554004133E-2;1.877216935E0
1.630894688E1;-8.832880974E0;-5.318958685E-2;2.060181856E0
1.632085781E1;-8.999546051E0;-1.251209825E-1;2.173791409E0
1.633277031E1;-8.955013275E0;-1.649892330E-1;2.460549831E0
1.634468750E1;-8.751036644E0;-4.236779362E-2;2.934841156E0
1.635659375E1;-8.423615456E0;4.120325446E-1;3.386406660E0
1.636850469E1;-8.418022156E0;7.734228969E-1;3.297667980E0
1.638041562E1;-8.878810883E0;9.867271185E-1;3.003794193E0
1.639232813E1;-9.532294273E0;1.000048518E0;2.351125240E0
1.640423906E1;-1.016012001E1;8.783943057E-1;1.779246211E0
1.641615000E1;-1.074213219E1;7.875295281E-1;1.589184880E0
1.642806094E1;-1.110082150E1;6.869826913E-1;1.597440004E0
1.643997812E1;-1.106690979E1;7.214879394E-1;1.493522167E0
1.645188906E1;-1.084126186E1;8.604952097E-1;1.312252283E0
1.646379688E1;-1.055842972E1;1.141277552E0;1.276875615E0
1.647570781E1;-1.078194237E1;1.210968018E0;1.373045921E0
1.648762031E1;-1.139820004E1;1.226300478E0;1.523535848E0
1.649953125E1;-1.200869370E1;1.158209443E0;1.411583066E0
1.651144219E1;-1.266532707E1;1.035415649E0;1.203795075E0
1.652335469E1;-1.331855202E1;7.812280059E-1;9.964284897E-1
1.653526875E1;-1.375132751E1;4.698860049E-1;6.596887708E-1
1.654717813E1;-1.385828114E1;-2.989112735E-1;-1.765867472E-1
1.655908906E1;-1.416864681E1;-1.300453782E0;-5.983588696E-1
1.657100156E1;-1.528055191E1;-2.010123968E0;1.513690948E0
1.658291250E1;-1.559596348E1;-7.001315951E-1;6.652576447E0
1.659482344E1;-1.302982044E1;1.238721728E0;9.197105408E0
1.660673594E1;-1.035815907E1;1.992502570E0;8.818189621E0
1.661865000E1;-8.694399834E0;1.964078665E0;6.982258320E0
1.663055938E1;-7.984452248E0;1.417635441E0;4.899925232E0
1.664247656E1;-8.377886772E0;6.880456805E-1;3.692644358E0
1.665438281E1;-9.371614456E0;3.279481828E-1;2.938499451E0
1.666629375E1;-9.786165237E0;3.980695605E-1;1.851349950E0
1.667820469E1;-9.507116318E0;8.996739388E-1;6.526402831E-1
1.669011719E1;-8.840647697E0;1.406986237E0;1.137820408E-1
1.670203438E1;-8.400889397E0;1.707851052E0;6.011744738E-1
1.671394219E1;-7.767987251E0;1.903380752E0;1.688496351E0
1.672585156E1;-7.509969234E0;2.120592356E0;2.728738785E0
1.673776250E1;-7.296099663E0;2.502620935E0;2.961119890E0
1.674967500E1;-7.343169689E0;2.772016287E0;2.728815317E0
1.676158594E1;-7.634582520E0;2.967584133E0;2.433686733E0
1.677350000E1;-7.960328102E0;3.135255098E0;2.249467611E0
1.678540938E1;-9.086560249E0;2.621641397E0;1.606011391E0
1.679732188E1;-1.069746590E1;1.104023814E0;1.279365569E-1
1.680923281E1;-1.238945675E1;-1.271838307E0;-9.726875424E-1
1.682114375E1;-1.206416225E1;-2.325564623E0;-7.156364918E-1
1.683305625E1;-1.032990837E1;-2.214272738E0;-1.271129549E-1
1.684496875E1;-9.063853264E0;-1.950335860E0;3.374387920E-1
1.685687969E1;-9.363933563E0;-1.555024385E0;1.167920232E0
1.686879063E1;-8.796555519E0;-2.292400151E-1;2.275717497E0
1.688070469E1;-8.302545547E0;7.069789767E-1;3.242160797E0
1.689261406E1;-7.710708618E0;1.073397160E0;3.386454582E0
1.690452500E1;-6.692914009E0;1.602726579E0;2.320699692E0
1.691643750E1;-5.595220566E0;2.301967621E0;1.597947598E0
1.692834844E1;-5.142984867E0;2.598206758E0;1.341883063E0
1.694025938E1;-5.170968056E0;3.081701517E0;9.901556373E-1
1.695217500E1;-5.794226646E0;3.552200556E0;6.685568690E-1
1.696408281E1;-6.414746284E0;3.852021456E0;3.818560243E-1
1.697599531E1;-6.657317162E0;4.154696465E0;4.853621423E-1
1.698790625E1;-6.636420250E0;4.386435986E0;1.380276442E0
1.699981875E1;-5.499213219E0;4.564593315E0;2.325296640E0
1.701172969E1;-4.194009304E0;4.767066479E0;2.417913914E0
1.702364844E1;-4.092083454E0;4.578910828E0;1.537039161E0
1.703555781E1;-4.507754803E0;4.607200623E0;8.847532868E-1
1.704746406E1;-5.293254375E0;4.662650585E0;4.881010950E-1
1.705937813E1;-5.953182697E0;4.550189972E0;5.127900839E-1
1.707128750E1;-6.533833981E0;4.530979156E0;1.345254034E-1
1.708319844E1;-7.119072914E0;4.588267326E0;-2.296039462E-1
1.709514375E1;-6.858822823E0;4.428698540E0;-4.108737409E-1
1.710702188E1;-6.761915207E0;4.077402115E0;-4.687368274E-1
1.711894062E1;-7.350074768E0;3.899263859E0;-4.426208436E-1
1.713085000E1;-7.926933765E0;4.200492859E0;2.967565060E-1
1.714275625E1;-8.250897408E0;4.781029224E0;1.172766209E0
1.715466875E1;-8.876502991E0;5.233609676E0;1.682750225E0
1.716657969E1;-1.064725399E1;5.355158806E0;1.856751323E0
1.717849219E1;-1.350495434E1;5.175153255E0;1.537776589E0
1.719040312E1;-1.602769661E1;4.817679882E0;1.019144654E0
1.720232656E1;-1.666114426E1;4.435909748E0;6.320692599E-3
1.721422656E1;-1.456292343E1;4.619143009E0;-5.327098966E-1
1.722613750E1;-1.077869606E1;5.600832462E0;6.365703791E-2
1.723806719E1;-9.662720680E0;6.325720310E0;1.107825756E0
1.724996250E1;-1.181387234E1;6.927488804E0;1.916615963E0
1.726187344E1;-1.597661304E1;6.463023186E0;2.214607954E0
1.727378438E1;-1.592380619E1;6.125210762E0;2.251315594E0
1.728569688E1;-1.293732738E1;5.073849678E0;2.329682827E0
1.729760938E1;-1.046247959E1;3.458606243E0;2.224088907E0
1.730951875E1;-9.044239998E0;1.902662516E0;2.249208689E0
1.732143125E1;-7.848815441E0;1.516468287E0;2.377365828E0
1.733334688E1;-7.571404457E0;1.440763593E0;2.359083414E0
1.734525469E1;-7.765727043E0;1.686638474E0;2.560407162E0
1.735716562E1;-9.228422165E0;1.651807666E0;2.742318630E0
1.736907656E1;-1.004910660E1;2.117288351E0;3.421888828E0
1.738098906E1;-1.045803642E1;2.464878321E0;3.739321709E0
1.739290000E1;-1.028404427E1;2.725176096E0;3.779630423E0
1.740481250E1;-9.802560806E0;2.842961073E0;3.577176809E0
1.741672656E1;-9.196272850E0;2.944456339E0;2.668730497E0
1.742863438E1;-8.436065674E0;3.082994461E0;1.633046627E0
1.744054688E1;-8.396954536E0;2.666748047E0;9.673532844E-1
1.745245781E1;-8.364507675E0;2.063945532E0;8.243140578E-1
1.746437031E1;-8.229656219E0;1.474694252E0;9.917740822E-1
1.747628125E1;-8.363013268E0;6.866186857E-1;1.329672575E0
1.748819531E1;-8.490442276E0;2.849100158E-2;1.551002145E0
1.750010469E1;-8.505181313E0;-3.197983205E-1;1.763751030E0
1.751201562E1;-8.808574677E0;-9.586191773E-1;1.933624387E0
1.752392812E1;-8.630245209E0;-1.406334996E0;1.917611957E0
1.753583906E1;-9.009045601E0;-1.988652706E0;1.999359488E0
1.754775000E1;-8.971457481E0;-2.082448006E0;2.124930620E0
1.755966250E1;-8.436468124E0;-1.922333241E0;2.112260580E0
1.757157344E1;-7.541610718E0;-1.384289026E0;2.057835340E0
1.758348594E1;-7.077164650E0;-1.018924356E0;2.129862785E0
1.759540469E1;-6.901228905E0;-7.823389173E-1;2.330094576E0
1.760730781E1;-6.780637741E0;-6.038942933E-1;2.550667524E0
1.761922031E1;-6.987496376E0;-5.797032714E-1;3.067470551E0
1.763113125E1;-7.278344154E0;-5.491340756E-1;3.232746840E0
1.764304375E1;-7.294442654E0;-4.103087187E-1;2.759700537E0
1.765495469E1;-7.500785351E0;-2.908763289E-1;2.474129677E0
1.766686875E1;-7.721223831E0;-1.664448902E-2;2.269492388E0
1.767877812E1;-7.893788338E0;2.828509808E-1;2.244669437E0
1.769069063E1;-7.893491745E0;1.025896192E0;2.016770124E0
1.770260156E1;-7.651044846E0;9.682534933E-1;8.798786998E-1
1.771451250E1;-7.370406151E0;2.843162417E-1;1.109281555E-1
1.772642500E1;-7.049851418E0;1.331176143E-3;5.030026436E-1
1.773834688E1;-6.228687763E0;2.231012881E-1;1.165660143E0
1.775024844E1;-6.279177189E0;3.595708013E-1;1.721459746E0
1.776215938E1;-6.430327415E0;3.254773617E-1;2.467512131E0
1.777407813E1;-6.597328186E0;3.082582653E-1;2.486857414E0
1.778598281E1;-7.081904888E0;3.352074027E-1;2.270048141E0
1.779789375E1;-7.880074024E0;2.094351798E-1;2.070275784E0
1.780980625E1;-9.130058289E0;-3.820187971E-2;1.926154375E0
1.782171719E1;-1.041595554E1;-4.313010573E-1;2.280649424E0
1.783362969E1;-1.153376007E1;-9.685599208E-1;2.926777601E0
1.784554062E1;-1.248977470E1;-1.459735274E0;3.859702110E0
1.785745156E1;-1.327068615E1;-1.541415811E0;4.453598022E0
1.786936406E1;-1.369587803E1;-1.317586660E0;3.926117182E0
1.788127500E1;-1.373001003E1;-8.789497614E-1;2.832359791E0
1.789319531E1;-1.429010868E1;-5.828157067E-1;1.845728397E0
1.790509844E1;-1.498727131E1;-5.249909759E-1;1.572387218E0
1.791700938E1;-1.607489967E1;-7.090572119E-1;1.623958230E0
1.792892188E1;-1.716793060E1;-1.056417584E0;1.811261415E0
1.794083438E1;-1.798604774E1;-1.668758512E0;7.917433381E-1
1.795274531E1;-1.815839195E1;-2.453319311E0;-3.730740845E-1
1.796664062E1;-1.759162712E1;-2.598541975E0;1.325669408E0
1.797855312E1;-1.447862816E1;-8.176964521E-1;3.289977789E0
1.799046406E1;-1.212794304E1;3.430220783E-1;3.808916330E0
1.800237656E1;-1.052357864E1;1.177104473E0;3.550170183E0
1.801428750E1;-9.102294922E0;2.188357830E0;4.212750912E0
1.802620000E1;-7.955357552E0;2.674926758E0;4.807892323E0
1.803811719E1;-7.185487747E0;2.388656855E0;4.958238125E0
1.805002188E1;-6.998203754E0;2.177066565E0;4.518653393E0
1.806193438E1;-7.764434338E0;2.070994139E0;4.429004669E0
1.807384531E1;-8.507546425E0;2.208402157E0;3.712812901E0
1.808575781E1;-8.830476761E0;2.386415720E0;3.188540220E0
1.809766875E1;-8.596476555E0;2.540353298E0;2.516076088E0
1.810958125E1;-7.514623642E0;2.914519310E0;2.373994589E0
1.812149844E1;-6.420109272E0;2.929248333E0;2.581744432E0
1.813340469E1;-5.859540462E0;2.614535332E0;2.932734489E0
1.814531563E1;-5.960892200E0;2.225085020E0;3.030494452E0
1.815722656E1;-6.297976017E0;1.834293723E0;2.979995966E0
1.816913906E1;-6.648736477E0;1.709239721E0;2.788900137E0
1.818105938E1;-6.945962429E0;1.527309179E0;2.421198845E0
1.819296250E1;-7.117683887E0;1.410596609E0;1.953371763E0
1.820487344E1;-7.209257126E0;1.336098671E0;1.531216383E0
1.821678438E1;-7.288553238E0;1.196545362E0;1.197656274E0
1.822869688E1;-7.531938553E0;1.041669369E0;1.278388739E0
1.824060781E1;-8.027212143E0;6.621500254E-1;1.055948257E0
1.825252031E1;-8.521250725E0;2.217318118E-1;6.497480273E-1
1.826443125E1;-8.584525108E0;-4.283705354E-2;7.887649536E-1
1.827634219E1;-8.418885231E0;-1.152281389E-1;1.005555153E0
1.828825469E1;-8.412746429E0;-1.687624902E-1;1.360730171E0
1.830016562E1;-8.294032097E0;-8.214027435E-2;1.313152552E0
1.831208125E1;-8.538584709E0;-7.701668143E-2;1.328552127E0
1.832398906E1;-8.568924904E0;2.742510140E-1;1.228244662E0
1.833590156E1;-8.314267159E0;8.538202047E-1;1.130905986E0
1.834781250E1;-7.881443977E0;1.295560002E0;9.787305593E-1
1.835972344E1;-7.733874798E0;1.753494143E0;8.519144058E-1
1.837163594E1;-7.748527527E0;2.262759924E0;6.353445649E-1
1.838354688E1;-7.634113312E0;2.561077595E0;4.596579969E-1
1.839545938E1;-7.372963428E0;2.657822609E0;4.004158676E-1
1.840737031E1;-7.087095737E0;2.598570824E0;1.651424617E-1
1.841928594E1;-7.065662384E0;2.309523582E0;-2.265872620E-2
1.843119531E1;-7.348686218E0;1.756328821E0;-2.861549892E-2
1.844310469E1;-7.673368454E0;1.324558616E0;-5.094861146E-3
1.845501719E1;-8.100369453E0;9.776962399E-1;-4.143884405E-2
1.846692969E1;-8.400028229E0;6.861974001E-1;-3.089094758E-1
1.847884531E1;-8.640807152E0;7.891958952E-1;-2.642911375E-1
1.849075156E1;-8.686173439E0;1.065017581E0;-6.041049585E-2
1.850266250E1;-8.485596657E0;1.301162481E0;8.165185899E-2
1.851457344E1;-8.123239517E0;1.496873975E0;-3.893929720E-2
1.852648594E1;-7.926225185E0;1.589874387E0;-2.371025831E-1
1.853839688E1;-7.822450638E0;1.531637788E0;-4.660074115E-1
1.855030938E1;-8.173488617E0;1.265555859E0;-8.237681985E-1
1.856222031E1;-8.870402336E0;9.153799415E-1;-1.175485969E0
1.857413750E1;-9.808517456E0;5.112961531E-1;-1.552773952E0
1.858604375E1;-1.041381073E1;3.435105085E-1;-1.935597181E0
1.859797031E1;-1.067438602E1;2.310979366E-1;-2.324856043E0
1.860986719E1;-1.089672089E1;2.645879984E-1;-2.609861851E0
1.862177969E1;-1.080912113E1;4.713416994E-1;-2.785510063E0
1.863369062E1;-1.082533455E1;6.454768181E-1;-2.974383831E0
1.864560312E1;-1.113447475E1;9.374065399E-1;-3.017604113E0
1.865751406E1;-1.147024727E1;1.336826444E0;-2.832407713E0
1.866942500E1;-1.198642635E1;1.732951880E0;-2.805056334E0
1.868134375E1;-1.228187180E1;2.050605059E0;-3.070802927E0
1.869324844E1;-1.235981750E1;2.165574789E0;-3.702901125E0
1.870516250E1;-1.184185505E1;2.155001640E0;-4.424369812E0
1.871707344E1;-1.147707558E1;1.896303415E0;-4.824986935E0
1.872898281E1;-1.214418602E1;1.642518163E0;-4.411565304E0
1.874089531E1;-1.334074116E1;1.824774265E0;-3.177536726E0
1.875280625E1;-1.420037365E1;2.350761175E0;-1.565999389E0
1.876471875E1;-1.391184330E1;2.863810062E0;-1.077582315E-1
1.877662969E1;-1.250182247E1;2.722331762E0;8.122473359E-1
1.878854219E1;-1.016438198E1;1.937464595E0;1.403174520E0
1.880045312E1;-8.406272888E0;1.260518432E0;1.831631303E0
1.881236406E1;-7.446513176E0;8.410351276E-1;2.266629219E0
1.882427656E1;-6.890254021E0;6.347411275E-1;2.507715464E0
1.883618750E1;-7.103989124E0;6.793498993E-1;2.768300533E0
1.884809844E1;-7.902177811E0;1.236720085E0;3.451232195E0
1.886001094E1;-8.559624672E0;1.704451323E0;3.972392321E0
1.887192188E1;-9.030277252E0;2.196814299E0;4.045904160E0
1.888383438E1;-8.964618683E0;2.707803726E0;3.846974611E0
1.889575000E1;-8.626059532E0;3.050595999E0;3.626028061E0
1.890765781E1;-8.569700241E0;3.142054558E0;3.770791054E0
1.891956875E1;-8.943713188E0;2.887933969E0;4.340725899E0
1.893147969E1;-9.267437935E0;2.623192549E0;4.459181786E0
1.894339219E1;-9.600346565E0;2.252340555E0;4.093070030E0
1.895532500E1;-9.639927864E0;1.887598157E0;3.259992838E0
1.896721406E1;-9.359193802E0;1.370622993E0;2.271235704E0
1.897912813E1;-9.190373421E0;7.071610093E-1;1.525144815E0
1.899103750E1;-9.456100464E0;9.235872328E-2;1.024210811E0
1.900295000E1;-9.550202370E0;-1.640028208E-1;8.775228262E-1
1.901486719E1;-9.567555428E0;-4.270202219E-1;7.938693762E-1
1.902677188E1;-9.545117378E0;-5.304784775E-1;1.128732085E0
1.903868438E1;-9.588127136E0;-5.189192295E-1;1.447007537E0
1.905059531E1;-9.610363960E0;-4.830732942E-1;1.670942187E0
1.906250781E1;-9.909552574E0;-1.986517012E-1;1.680902004E0
1.907442500E1;-1.004179859E1;1.391031146E-1;1.589022040E0
1.908633125E1;-1.018885994E1;2.567062974E-1;1.001906395E0
1.909824375E1;-1.030819702E1;2.559497356E-1;9.516568780E-1
1.911016094E1;-1.034845829E1;4.490373135E-1;7.650048733E-1
1.912206875E1;-1.042515850E1;5.045157671E-1;3.406182826E-1
1.913399531E1;-1.056235600E1;3.535661399E-1;-7.439359426E-1
1.914588906E1;-1.043695736E1;-8.749370277E-2;-2.364283800E0
1.915780000E1;-1.036878967E1;-6.132029295E-1;-3.395830393E0
1.916971250E1;-1.014765167E1;-1.150816202E0;-3.276905537E0
1.918162344E1;-9.972012520E0;-1.477720499E0;-2.433935881E0
1.919353906E1;-9.883216858E0;-1.582720637E0;-1.321168303E0
1.920545313E1;-9.490509987E0;-1.606059194E0;-6.658275127E-1
1.921735781E1;-8.644246101E0;-1.476877689E0;-6.439157724E-1
1.922927031E1;-8.143426895E0;-1.088930845E0;-3.653647602E-1
1.924119062E1;-8.088638306E0;-3.856675625E-1;8.881722689E-1
1.925310000E1;-8.613858223E0;2.014768720E-1;1.597871065E0
1.926500469E1;-9.605269432E0;5.716779232E-1;1.728259325E0
1.927691562E1;-1.021109772E1;8.219868541E-1;1.223810554E0
1.928882813E1;-1.050226212E1;1.082236528E0;3.042838871E-1
1.930073906E1;-1.082190609E1;1.157797575E0;-5.639207363E-1
1.931265781E1;-1.127464104E1;1.088691354E0;-1.146755576E0
1.932456250E1;-1.188459682E1;9.365925193E-1;-1.422883630E0
1.933647344E1;-1.241103458E1;7.566730976E-1;-1.351593852E0
1.934838594E1;-1.292271328E1;6.492213011E-1;-1.084017992E0
1.936029688E1;-1.352528572E1;6.059245467E-1;-5.515666008E-1
1.937220781E1;-1.436112118E1;4.149055779E-1;-3.666959107E-1
1.938413281E1;-1.509522152E1;-2.192035317E-1;-1.374865532E0
1.939603125E1;-1.583434963E1;-6.553792357E-1;-1.381722569E0
1.940794375E1;-1.685726738E1;-1.069959164E0;1.030368656E-1
1.941985469E1;-1.690883827E1;-1.558261395E0;2.115056992E0
1.943176719E1;-1.667501259E1;-1.199868560E0;3.349095345E0
1.944369688E1;-1.520095921E1;-6.355073452E-1;3.900001287E0
1.945558906E1;-1.336795807E1;-3.020524792E-2;4.625731945E0
1.946750156E1;-1.034125614E1;1.254667044E0;3.570061207E0
1.947941250E1;-7.711407661E0;2.314398289E0;1.887291789E0
1.949132344E1;-6.181464672E0;2.554938793E0;1.196899772E0
1.950323594E1;-5.321716785E0;3.073532581E0;1.343424916E0
1.951514688E1;-5.664087296E0;3.572896004E0;1.648312092E0
1.952705938E1;-6.906850815E0;3.598638535E0;8.953069448E-1
1.953897031E1;-7.030286312E0;3.447803736E0;1.024622545E-1
1.955088281E1;-7.212886810E0;2.982763529E0;-1.065515503E-1
1.956279375E1;-7.702616215E0;1.970667362E0;7.955262065E-1
1.957470469E1;-8.125077248E0;1.372231960E0;2.206936836E0
1.958661719E1;-8.926856995E0;1.498923421E0;3.765945196E0
1.959852969E1;-9.801498413E0;2.283321619E0;4.298530579E0
1.961044688E1;-1.092487621E1;3.034593344E0;3.401710510E0
1.962235156E1;-1.210270882E1;3.760151148E0;2.060095787E0
1.963426562E1;-1.177710629E1;4.387843609E0;8.799744844E-1
1.964617500E1;-1.064506149E1;4.205080032E0;4.610274732E-2
1.965808750E1;-9.777814865E0;3.220392704E0;-4.477444589E-1
1.966999844E1;-1.074070549E1;1.304341912E0;-3.688890040E-1
1.968191094E1;-9.861123085E0;3.210145608E-2;7.793892622E-1
1.969382188E1;-9.653698921E0;-7.355083823E-1;2.020284891E0
1.970573438E1;-1.063057137E1;-1.137858748E0;1.457733631E0
1.971764531E1;-9.756678581E0;-7.121697068E-1;1.282621741E0
1.972955781E1;-9.529880524E0;-1.584578454E-1;6.611922979E-1
1.974146719E1;-1.079106903E1;2.832244933E-1;-4.910316169E-1
1.975337969E1;-1.224854374E1;6.330268979E-1;-1.616325617E0
1.976529219E1;-9.331851959E0;1.248585820E0;-9.492435455E-1
1.977720312E1;-4.366190910E0;2.510387421E0;8.949429989E-1
1.978913438E1;-1.826057673E0;3.601980686E0;1.081978083E0
1.980102656E1;-1.430995226E0;4.273458481E0;1.323323250E-1
1.981293750E1;-1.991650105E0;4.651972294E0;-1.073014140E0
1.982484844E1;-2.940117836E0;4.907835960E0;-2.585555792E0
1.983676094E1;-3.632750988E0;4.839735031E0;-2.821384668E0
1.984867188E1;-3.930359840E0;5.192583084E0;-2.307416677E0
1.986058281E1;-2.741293907E0;5.951794147E0;-2.212529898E0
1.987249531E1;-2.154111117E-1;6.488813400E0;-1.727387786E0
1.988442656E1;9.414958358E-1;6.322512150E0;-1.299448252E0
1.989631875E1;-1.018579602E0;5.855020046E0;-1.488159180E0
1.990823125E1;-4.115939140E0;5.531381607E0;-6.028982997E-1
1.992014844E1;-7.524037361E0;4.925945282E0;4.141968861E-2
1.993205312E1;-1.035605240E1;4.280315399E0;3.045424353E-3
1.994396406E1;-1.176059628E1;3.867574215E0;3.181415051E-2
1.995587656E1;-1.142236328E1;3.867057085E0;7.394252717E-2
1.996779375E1;-1.001143074E1;4.290983677E0;1.745756119E-1
1.997970000E1;-8.712164879E0;5.019453526E0;-2.323237658E-1
1.999161094E1;-8.337184906E0;5.685721874E0;-9.979607463E-1
2.000352188E1;-9.088533401E0;5.682972908E0;-1.776756167E0
2.001543438E1;-1.156304550E1;5.029403687E0;-2.354649305E0
2.002734844E1;-1.608485031E1;3.788958311E0;-2.780281067E0
2.003925781E1;-1.880294037E1;2.793736458E0;-2.838402748E0
2.005116875E1;-1.095148087E1;4.640403271E0;-1.163275480E0
2.006307969E1;-2.549978018E0;7.904907227E0;4.866741598E-1
2.007499219E1;-1.437813878E0;9.539303780E0;9.351847768E-1
2.008690469E1;-7.271592617E0;1.048885345E1;1.743649095E-1
2.009881562E1;-1.899465752E1;8.968536377E0;-7.780197859E-1
2.011072656E1;-2.392416573E1;5.261536121E0;-2.209407806E0
2.012263906E1;-2.164969254E1;2.631917238E0;-1.898640275E0
2.013455000E1;-1.604504967E1;1.877082944E0;-1.347648144E0
2.014646406E1;-1.107030010E1;1.907853127E0;-8.305964619E-2
2.015837344E1;-8.065433502E0;1.112164140E0;2.039764076E-1
2.017028594E1;-7.108480453E0;-3.236960620E-2;1.024909914E-1
2.018219688E1;-6.736680031E0;-4.303625524E-1;4.392306507E-1
2.019410938E1;-6.508167744E0;4.745307565E-1;1.125064135E0
2.020602031E1;-7.891345978E0;9.952409267E-1;2.266504526E0
2.021793906E1;-9.081752777E0;1.537489295E0;3.407044649E0
2.022984375E1;-9.570677757E0;1.888575077E0;4.080648899E0
2.024175469E1;-9.982231140E0;1.924200773E0;3.886641502E0
2.025366562E1;-9.852197647E0;1.836927414E0;3.034420967E0
2.026557812E1;-9.833934784E0;1.501844406E0;1.770607948E0
2.027748906E1;-9.644773483E0;1.323131561E0;7.092678547E-1
2.028940156E1;-9.599839211E0;9.912090898E-1;9.911995381E-3
2.030131250E1;-9.254882812E0;6.253176332E-1;-4.032889009E-1
2.031322344E1;-8.045877457E0;5.593429804E-1;-6.432070732E-1
2.032514375E1;-7.474554062E0;2.311841212E-2;-7.451521754E-1
2.033705000E1;-7.099047184E0;-4.188224673E-1;-4.161601365E-1
2.034895938E1;-6.967988968E0;-8.517611623E-1;1.161092073E-1
2.036087031E1;-6.812787056E0;-1.162317872E0;6.644101143E-1
2.037278125E1;-6.886758327E0;-1.537115812E0;7.618253827E-1
2.038469375E1;-6.908421040E0;-1.745583773E0;7.848767638E-1
2.039660469E1;-6.698286533E0;-1.589625478E0;7.983322144E-1
2.040851562E1;-6.778320312E0;-1.481551170E0;1.054205298E0
2.042042812E1;-6.334301472E0;-1.055373669E0;1.440639019E0
2.043233906E1;-6.128830433E0;-6.667085290E-1;1.876489162E0
2.044425156E1;-6.408483028E0;-4.310999513E-1;2.267711163E0
2.045616719E1;-6.827276707E0;-3.138223886E-1;2.332191944E0
2.046807500E1;-7.527858257E0;-2.581428289E-1;2.297705889E0
2.047999063E1;-8.137948990E0;-1.060248241E-1;1.957288623E0
2.049189844E1;-9.143647194E0;-2.220286876E-1;1.549000621E0
2.050380938E1;-1.002764416E1;-2.980685532E-1;1.296479344E0
2.051572188E1;-1.031266975E1;1.655446738E-1;1.176558614E0
2.052763281E1;-1.090973568E1;4.036145210E-1;1.197273135E0
2.053954375E1;-1.049523258E1;6.919913292E-1;8.744486570E-1
2.055145625E1;-1.010185528E1;6.982641816E-1;5.688335896E-1
2.056337656E1;-1.079302311E1;3.848823011E-1;3.349009454E-1
2.057527812E1;-1.180368233E1;-8.437166922E-3;-6.496905535E-2
2.058719062E1;-1.277004051E1;-3.703351021E-1;-4.340687692E-1
2.059910156E1;-1.351186943E1;-5.679621100E-1;-7.435336709E-1
2.061102031E1;-1.404706860E1;-7.370885015E-1;-1.274998665E0
2.062296250E1;-1.484196281E1;-1.157146335E0;-1.618193030E0
2.063483594E1;-1.550105762E1;-1.749414444E0;-1.611087084E0
2.064674844E1;-1.596224785E1;-2.245607853E0;-1.065007925E0
2.065865938E1;-1.647213745E1;-2.334480762E0;2.708799839E-1
2.067057188E1;-1.515924263E1;-1.191402674E0;2.879601955E0
2.068249062E1;-1.300836849E1;2.712151706E-1;5.200963020E0
2.069439531E1;-1.118528938E1;1.481081963E0;6.514411926E0
2.070630625E1;-9.890313148E0;2.310797453E0;7.220395088E0
2.071821875E1;-9.028506279E0;2.716288805E0;6.604108334E0
2.073012969E1;-8.977623940E0;2.368238926E0;5.368556499E0
2.074204062E1;-9.530742645E0;1.901446342E0;4.168774605E0
2.075395313E1;-1.054828835E1;1.624896884E0;2.914873600E0
2.076586562E1;-1.077598572E1;1.737251997E0;3.012920856E0
2.077777969E1;-9.287223816E0;2.363191843E0;3.524839640E0
2.078968750E1;-7.379006386E0;2.853313684E0;4.180132389E0
2.080160000E1;-5.852664471E0;3.094677925E0;4.485891342E0
2.081351094E1;-5.265175343E0;3.209839106E0;4.359457970E0
2.082542188E1;-5.526659966E0;3.080303192E0;3.870016336E0
2.083733438E1;-6.038598061E0;2.842300653E0;3.055460930E0
2.084924531E1;-7.151614666E0;2.272202730E0;1.995825648E0
2.086115625E1;-1.056967258E1;6.473346353E-1;1.334336549E-1
2.087306875E1;-1.264252472E1;-1.002959847E0;-7.721204758E-1
2.088497969E1;-1.154204369E1;-1.364809990E0;-7.296281457E-1
2.089689219E1;-8.183094025E0;-8.954027295E-1;-4.917211235E-1
2.090880938E1;-6.619843483E0;-5.783241987E-1;-1.015850186E0
2.092071562E1;-7.956544876E0;-6.460226178E-1;-1.708291650E0
2.093262656E1;-9.788761139E0;-4.180946648E-1;-1.879419565E0
2.094453906E1;-1.026742840E1;4.618893936E-2;-1.190665245E0
2.095645000E1;-9.366786957E0;5.635855198E-1;2.425709367E-1
2.096836250E1;-8.511961937E0;8.885073662E-1;1.948238492E0
2.098027344E1;-9.440969467E0;6.763236523E-1;2.951763391E0
2.099218438E1;-9.285202026E0;1.463412762E0;2.851417780E0
2.100409531E1;-8.365216255E0;1.986019015E0;2.691408157E0
2.101600781E1;-6.854216099E0;2.688056469E0;2.281233549E0
2.102792188E1;-5.604596138E0;3.765926123E0;4.436455667E-1
2.103982969E1;-3.559947968E0;5.099831581E0;-1.041401148E0
2.105174219E1;-2.415711164E0;5.642051220E0;-1.752488613E0
2.106365313E1;-2.839446545E0;5.928953171E0;-2.380171537E0
2.107556563E1;-4.836287498E0;6.359612942E0;-2.718606472E0
2.108747969E1;-4.872363091E0;7.049899578E0;-2.167375088E0
2.109939062E1;-3.636840343E0;7.026867390E0;-6.861878037E-1
2.111130000E1;-3.659958839E0;5.942446709E0;2.713013589E-1
2.112321250E1;-5.059857845E0;5.233456612E0;1.778604537E-1
2.113512500E1;-6.878417015E0;5.057176113E0;-2.823913097E-1
2.114703438E1;-7.322838306E0;5.203644276E0;-7.553323507E-1
2.115894688E1;-7.439253807E0;5.505821228E0;-8.565208912E-1
2.117085781E1;-8.838357925E0;5.856265068E0;-7.818887830E-1
2.118277031E1;-1.331677055E1;5.906610489E0;-1.030809164E0
2.119468125E1;-2.015073204E1;4.635911942E0;-1.939791799E0
2.120659375E1;-1.598184204E1;3.982151031E0;-2.512312412E0
2.121851563E1;-8.439167976E0;4.628107071E0;-1.590018034E0
2.123041719E1;-6.387337208E0;5.065077305E0;2.613414824E-1
2.124232812E1;-9.520993233E0;4.979642391E0;1.714401603E0
2.125424062E1;-1.581549358E1;4.227001667E0;2.334212542E0
2.126615156E1;-1.841595078E1;2.988049746E0;2.644357443E0
2.127806250E1;-1.519913006E1;2.377940178E0;2.513413906E0
2.128997344E1;-1.170520401E1;2.051764011E0;2.271819592E0
2.130188594E1;-9.672191620E0;1.836228132E0;1.637844563E0
2.131379688E1;-8.844276428E0;1.489059329E0;8.390336037E-1
2.132570938E1;-8.841163635E0;1.564764023E0;6.911103129E-1
2.133762031E1;-9.399769783E0;1.765216231E0;1.252933621E0
2.134953125E1;-9.609731674E0;1.876536965E0;1.701290965E0
2.136144375E1;-9.648805618E0;2.100299120E0;1.951676607E0
2.137335469E1;-1.011316490E1;2.059262514E0;2.245971918E0
2.138526719E1;-1.029803658E1;1.920216799E0;2.376206875E0
2.139717969E1;-9.921457291E0;2.005220652E0;2.613711596E0
2.140908906E1;-9.118279457E0;2.073694706E0;2.582941294E0
2.142100156E1;-8.922835350E0;1.739406705E0;2.393607855E0
2.143291250E1;-8.386524200E0;1.626476884E0;2.009932280E0
2.144482500E1;-8.243390083E0;1.167163730E0;1.681275487E0
2.145673594E1;-7.986875057E0;6.452373862E-1;1.633132815E0
2.146864844E1;-7.169389248E0;3.796246350E-1;1.578209877E0
2.148056094E1;-6.575933456E0;4.158153832E-1;1.649413466E0
2.149247031E1;-6.025401592E0;4.686218798E-1;1.807823420E0
2.150438281E1;-5.574870110E0;6.591429114E-1;1.910793185E0
2.151629375E1;-5.822095394E0;2.928395867E-1;2.077908516E0
2.152820469E1;-5.797923565E0;1.478180140E-1;2.279778004E0
2.154011719E1;-5.594684601E0;4.400542751E-2;2.335294724E0
2.155203125E1;-5.610294342E0;-2.659000456E-1;2.423085451E0
2.156394062E1;-5.991298199E0;-6.434081793E-1;2.581035614E0
2.157585313E1;-6.597510338E0;-7.985619903E-1;2.866117954E0
2.158777031E1;-7.065959454E0;-8.082728982E-1;2.782742500E0
2.159967969E1;-7.755671978E0;-9.996845722E-1;2.445744038E0
2.161158750E1;-8.361491203E0;-1.126672983E0;2.020217657E0
2.162349844E1;-9.014878273E0;-1.117804885E0;1.658961535E0
2.163541094E1;-9.913134575E0;-1.093211651E0;1.298614979E0
2.164732500E1;-1.021382713E1;-9.740282297E-1;5.746755004E-1
2.165923281E1;-1.002707005E1;-9.644706249E-1;2.253709882E-1
2.167114531E1;-9.705968857E0;-9.914867878E-1;3.667055070E-1
2.168305625E1;-9.628205299E0;-9.161269069E-1;1.157491207E0
2.169496875E1;-1.006284904E1;-7.885446548E-1;1.981067896E0
2.170688125E1;-1.118324947E1;-4.567179382E-1;2.890232325E0
2.171879375E1;-1.180420876E1;-2.897941694E-2;2.661883116E0
2.173070781E1;-1.222926617E1;9.110416472E-2;1.774955869E0
2.174261563E1;-1.277754784E1;1.942559481E-1;1.626850486E0
2.175453125E1;-1.313300133E1;9.074982256E-2;1.894962788E0
2.176643750E1;-1.357128334E1;-8.616252989E-2;2.567091703E0
2.177836250E1;-1.399363995E1;-8.326075971E-2;3.159455538E0
2.179026094E1;-1.408165073E1;7.938215137E-2;3.514046431E0
2.180217188E1;-1.386977386E1;-3.795384169E-1;2.816682577E0
2.181408438E1;-1.424154472E1;-1.627923131E0;1.890088081E0
2.182599531E1;-1.450483036E1;-2.508050680E0;1.393942475E0
2.183790781E1;-1.359710217E1;-1.728268862E0;2.828519583E0
2.184981875E1;-1.184784126E1;2.204485238E-1;5.041949272E0
2.186172969E1;-1.049166012E1;2.001159906E0;6.528662682E0
2.187364219E1;-9.723120689E0;3.020343065E0;6.261459827E0
2.188555312E1;-9.188850403E0;3.224721432E0;4.375174046E0
2.189746406E1;-9.039337158E0;2.522665024E0;2.396979094E0
2.190937812E1;-8.977815628E0;2.215469837E0;1.400655866E0
2.192128750E1;-9.203866959E0;2.067220688E0;8.047678471E-1
2.193320000E1;-9.517956734E0;2.173255205E0;1.181528926E0
2.194511094E1;-9.447740555E0;2.126242638E0;1.839733243E0
2.195702188E1;-9.126745224E0;1.898352861E0;2.832608700E0
2.196893438E1;-8.899218559E0;1.643820524E0;3.740059137E0
2.198084531E1;-8.794238091E0;1.219759464E0;4.008592606E0
2.199277812E1;-8.391638756E0;9.869952798E-1;3.580183744E0
2.200467500E1;-8.123650551E0;8.486391306E-1;2.791524172E0
2.201657969E1;-7.490164280E0;1.119768143E0;2.051955223E0
2.202849688E1;-7.245208263E0;1.251238585E0;1.720042348E0
2.204040312E1;-6.777171135E0;1.764928818E0;1.574992061E0
2.205232031E1;-6.594838142E0;2.243146658E0;1.877006173E0
2.206422656E1;-6.695461273E0;2.771978140E0;2.518910885E0
2.207613906E1;-7.083216667E0;3.010220289E0;2.950987577E0
2.208805000E1;-8.053328514E0;2.942119598E0;3.710859299E0
2.209996250E1;-9.857090950E0;1.914604783E0;3.669621468E0
2.211187344E1;-1.078622341E1;1.218983889E0;3.430364370E0
2.212378594E1;-1.067900181E1;6.910431981E-1;3.705027103E0
2.213569688E1;-1.009455776E1;6.435518265E-1;4.702250481E0
2.214760781E1;-8.677966118E0;1.111474633E0;3.640326262E0
2.215952031E1;-7.250648499E0;1.721545935E0;1.940548301E0
2.217145156E1;-5.979959488E0;2.399584055E0;6.461950541E-1
2.218334375E1;-4.787962914E0;3.955565929E0;-3.987303376E-1
2.219525469E1;-4.360837460E0;5.131760597E0;-1.085253239E0
2.220716719E1;-4.412360191E0;5.763159752E0;-1.164242744E0
2.221907813E1;-4.782427311E0;5.759893894E0;-8.652740717E-1
2.223099531E1;-5.109916210E0;5.787666321E0;-4.958774745E-1
2.224290156E1;-5.333879471E0;5.903162956E0;-4.278917238E-2
2.225481250E1;-6.226925850E0;5.841536045E0;-3.180648983E-1
2.226672344E1;-6.131981373E0;5.879010201E0;-8.823590875E-1
2.227863594E1;-5.323306084E0;5.818628311E0;-1.147339702E0
2.229054844E1;-5.806207180E0;5.571900845E0;-1.189037204E0
2.230245938E1;-6.759913445E0;5.335038185E0;-7.911208272E-1
2.231437031E1;-8.323767662E0;5.024442673E0;-4.407821000E-1
2.232628281E1;-1.206579971E1;4.578556538E0;-1.980770826E-1
2.233819375E1;-1.805332375E1;3.991929293E0;-1.776401848E-1
2.235011719E1;-1.903279305E1;3.987380028E0;-6.599377394E-1
2.236201719E1;-1.239314461E1;4.773224354E0;-6.867815256E-1
2.237392813E1;-7.388487339E0;5.916944027E0;1.164252385E-1
2.238584062E1;-5.962998390E0;6.257552624E0;8.956134319E-1
2.239775156E1;-8.881424904E0;5.728807449E0;1.326885700E0
2.240968125E1;-1.103306580E1;4.888231754E0;1.749395251E0
2.242157500E1;-1.212302113E1;3.373583555E0;2.185513496E0
2.243348594E1;-1.225264359E1;2.190780878E0;1.993785858E0
2.244539688E1;-1.195335865E1;1.953850627E0;1.711949944E0
2.245730938E1;-1.175012875E1;2.077142239E0;1.237821460E0
2.246922031E1;-1.136548615E1;2.182573557E0;1.773605466E0
2.248113281E1;-1.127803993E1;1.883681297E0;3.117106915E0
2.249304375E1;-1.094592571E1;1.516583085E0;4.233025551E0
2.250497188E1;-1.055697346E1;1.173867583E0;4.609288692E0
2.251686719E1;-1.015620327E1;7.084155083E-1;4.461901188E0
2.252877969E1;-9.579181671E0;5.489712954E-1;4.051257133E0
2.254069062E1;-9.013929367E0;4.219923913E-1;3.340801954E0
2.255260156E1;-8.403141022E0;4.539406300E-1;2.607927322E0
2.256451250E1;-7.997601032E0;4.084603786E-1;2.026931047E0
2.257642500E1;-7.460265636E0;5.149544477E-1;1.647459745E0
2.258834375E1;-6.939986229E0;7.233457565E-1;1.382718563E0
2.260024844E1;-7.511903763E0;1.530852467E-1;1.033145905E0
2.261216094E1;-6.697262287E0;4.058267474E-1;7.640663981E-1
2.262407188E1;-7.528567314E0;-2.544461787E-1;6.652050018E-1
2.263598281E1;-8.193762779E0;-1.041678786E0;6.912634969E-1
2.264789375E1;-7.857137680E0;-1.061751842E0;9.462076426E-1
2.265980625E1;-7.412879467E0;-1.160977125E0;7.216219306E-1
2.267172031E1;-7.387318611E0;-1.263659716E0;5.969032049E-1
2.268362969E1;-7.229608059E0;-1.264052272E0;3.878702521E-1
2.269554219E1;-7.153338432E0;-1.131040096E0;2.179489732E-1
2.270746562E1;-7.353101254E0;-1.076231956E0;3.989314437E-1
2.271936563E1;-7.635798931E0;-9.223135114E-1;8.156949282E-1
2.273127656E1;-7.707615376E0;-7.813141942E-1;1.131097555E0
2.274318750E1;-8.142028809E0;-7.819271088E-1;1.760159612E0
2.275510000E1;-8.134520531E0;-6.112971902E-1;2.135005474E0
2.276701250E1;-8.100992203E0;-5.184883475E-1;2.121837378E0
2.277892344E1;-8.330481529E0;-6.160759926E-1;1.984821916E0
2.279083438E1;-8.413234711E0;-7.172932625E-1;1.873702288E0
2.280274531E1;-8.520523071E0;-7.526795864E-1;1.780864596E0
2.281465625E1;-8.466146469E0;-6.757107377E-1;1.716929913E0
2.282657031E1;-8.731892586E0;-5.828253031E-1;1.757468462E0
2.283847969E1;-8.860519409E0;-3.440755010E-1;1.662361383E0
2.285039219E1;-9.120587349E0;-2.431551218E-1;1.699854493E0
2.286231094E1;-9.268146515E0;-2.357522547E-1;1.705284595E0
2.287421562E1;-9.130068779E0;-2.658521533E-1;1.617877007E0
2.288612656E1;-8.821464539E0;-2.842970788E-1;1.971606016E0
2.289803906E1;-8.434523582E0;-1.338358819E-1;2.251813650E0
2.290995000E1;-8.630522728E0;-1.179479510E-1;1.818865538E0
2.292186094E1;-9.422179222E0;-3.874776140E-2;1.955488205E0
2.293377188E1;-1.057865524E1;-1.051054522E-1;2.372443199E0
2.294569375E1;-1.137498665E1;-1.242111847E-1;2.679887533E0
2.295759688E1;-1.209718227E1;-4.529829696E-2;2.803859234E0
2.296950781E1;-1.224182129E1;1.167891622E-1;2.346605062E0
2.298141875E1;-1.230663776E1;9.720458835E-2;1.648685575E0
2.299333125E1;-1.290051460E1;-7.235277444E-2;1.348567605E0
2.300524844E1;-1.384092808E1;-6.233543530E-2;1.656567216E0
2.301715312E1;-1.460697651E1;-2.534214556E-1;1.318707108E0
2.302906406E1;-1.561673641E1;-1.178636670E0;-2.949177623E-1
2.304097656E1;-1.719467735E1;-2.312626362E0;-9.515994191E-1
2.305288750E1;-1.804701424E1;-2.193289757E0;2.452648878E0
2.306480000E1;-1.508995438E1;5.297697783E-1;6.987535000E0
2.307671406E1;-1.181064415E1;2.351680756E0;7.809723377E0
2.308862344E1;-1.006751251E1;2.862124443E0;7.204555035E0
2.310053438E1;-9.769512177E0;2.181941509E0;5.648141861E0
2.311244688E1;-9.118959427E0;2.021117926E0;3.765188694E0
2.312436563E1;-8.836959839E0;2.032370806E0;2.643303871E0
2.313627031E1;-9.614520073E0;2.428831577E0;2.496060610E0
2.314818125E1;-1.009770775E1;2.939236879E0;1.687078953E0
2.316009375E1;-1.002403450E1;3.348463297E0;6.798192263E-1
2.317200469E1;-9.190459251E0;3.335199356E0;5.062204003E-1
2.318391719E1;-8.038589478E0;3.012221575E0;1.400378227E0
2.319582813E1;-7.117358208E0;2.521142244E0;2.748419046E0
2.320773906E1;-7.041998386E0;1.837885022E0;3.473029137E0
2.321965156E1;-7.129300594E0;1.183635831E0;3.206037045E0
2.323156250E1;-7.264410019E0;5.447096229E-1;2.161801338E0
2.324347344E1;-7.845272541E0;-5.725972727E-2;1.424118996E0
2.325538594E1;-8.118709564E0;-7.723503709E-1;7.811034918E-1
2.326729688E1;-8.229502678E0;-1.359274507E0;5.372875929E-1
2.327920938E1;-8.124780655E0;-1.648369551E0;7.423174381E-1
2.329112031E1;-7.867231846E0;-1.586254358E0;1.053257227E0
2.330303281E1;-7.869271278E0;-1.326560140E0;1.330266356E0
2.331494375E1;-8.061880112E0;-6.510792375E-1;1.530163050E0
2.332688125E1;-8.424611092E0;-1.245176420E-1;1.148460150E0
2.333876719E1;-8.473827362E0;2.577980757E-1;8.326554298E-1
2.335067812E1;-8.691641808E0;3.887991905E-1;4.561816156E-1
2.336259688E1;-9.018727303E0;2.764824331E-1;1.608041674E-1
2.337450156E1;-8.837726593E0;8.509758711E-1;4.793862402E-1
2.338641250E1;-8.657969475E0;1.488005996E0;1.016070485E0
2.339832500E1;-8.742015839E0;1.934390545E0;1.989141107E0
2.341023594E1;-8.650518417E0;2.421735048E0;2.246201754E0
2.342214688E1;-8.635742188E0;2.658492804E0;1.713290811E0
2.343405938E1;-8.339654922E0;2.838709116E0;1.019633055E0
2.344597031E1;-7.089413166E0;3.271753073E0;5.095244050E-1
2.345788281E1;-5.661185741E0;3.665618658E0;4.526286423E-1
2.346979375E1;-4.592069149E0;3.949906111E0;5.255081058E-1
2.348171094E1;-3.866942167E0;4.167835712E0;2.750841975E-1
2.349361719E1;-3.925954580E0;4.461729050E0;-2.323429137E-1
2.350552812E1;-4.975591660E0;4.589014053E0;-1.008878350E0
2.351744063E1;-6.536084652E0;4.427482605E0;-1.744740963E0
2.352935156E1;-7.828771591E0;4.237421036E0;-1.947127700E0
2.354126875E1;-8.205129623E0;3.954071999E0;-1.449191213E0
2.355317656E1;-7.770486832E0;3.765485525E0;-7.695347071E-1
2.356508594E1;-7.454700947E0;3.820159435E0;-4.337144196E-1
2.357699844E1;-7.751745224E0;3.983721733E0;-6.758065224E-1
2.358890938E1;-8.275510788E0;4.074098110E0;-8.696985245E-1
2.360082188E1;-8.879059792E0;3.396184683E0;-6.630023122E-1
2.361273281E1;-9.779710770E0;2.900958538E0;-5.229894072E-2
2.362464531E1;-1.066700172E1;2.714976788E0;1.486703455E-1
2.363655625E1;-1.308901501E1;2.497391939E0;-7.048529573E-3
2.364846875E1;-1.563494110E1;2.341855049E0;-7.933043838E-1
2.366037969E1;-1.395229721E1;3.074126244E0;-6.318298578E-1
2.367229219E1;-7.129271984E0;5.359736443E0;4.540268183E-1
2.368420312E1;-4.894600391E0;7.574114799E0;1.160239697E0
2.369611406E1;-7.770563602E0;8.802359581E0;6.288131326E-2
2.370802656E1;-2.359211922E1;6.584887505E0;-1.512110710E0
2.371993750E1;-1.856283951E1;7.063306808E0;-1.244802952E0
2.373184844E1;-1.481473637E1;5.127384186E0;-3.057395518E-1
2.374376094E1;-1.192270279E1;3.033415318E0;6.128965020E-1
2.375567188E1;-1.020741081E1;1.878519416E0;9.776674509E-1
2.376758438E1;-9.854217529E0;1.219893694E0;8.262006640E-1
2.377949531E1;-1.009384823E1;8.518186808E-1;6.371737123E-1
2.379141250E1;-9.592800140E0;1.280936122E0;5.796554089E-1
2.380331875E1;-1.010604954E1;1.487393022E0;8.473463058E-1
2.381522969E1;-1.019532490E1;1.817811966E0;1.283809185E0
2.382714219E1;-1.030299664E1;1.917908788E0;1.895968437E0
2.383905938E1;-1.108817101E1;1.391625047E0;3.108756065E0
2.385096562E1;-1.086684036E1;1.180465937E0;3.900738716E0
2.386287656E1;-1.008968353E1;1.054176688E0;4.144477844E0
2.387478750E1;-8.790551186E0;8.440901637E-1;3.986661911E0
2.388670000E1;-7.576757908E0;6.472484469E-1;3.621804714E0
2.389861406E1;-6.688413143E0;6.048710942E-1;2.887512684E0
2.391052344E1;-6.865334988E0;2.575011849E-1;2.220660448E0
2.392243438E1;-7.173487663E0;1.710130423E-1;1.806779504E0
2.393434531E1;-7.778723240E0;-1.641464680E-1;1.514888048E0
2.394625781E1;-8.852580070E0;-9.397720098E-1;1.473621607E0
2.395816875E1;-9.597579002E0;-1.534597039E0;1.571123004E0
2.397008594E1;-9.479535103E0;-1.519935012E0;1.550619125E0
2.398199219E1;-8.629555702E0;-9.412947297E-1;1.596769810E0
2.399390469E1;-7.842753410E0;-4.974672198E-1;1.608376861E0
2.400581562E1;-7.425654888E0;-2.079412043E-1;1.724945664E0
2.401774688E1;-7.217225075E0;1.899559647E-1;1.793151736E0
2.402963750E1;-7.017500877E0;7.162110806E-1;1.779677153E0
2.404155000E1;-7.268710136E0;6.641611457E-1;1.471495509E0
2.405346094E1;-7.567765236E0;4.476391077E-1;1.138672709E0
2.406537344E1;-7.991692066E0;3.395169675E-1;1.140693426E0
2.407728594E1;-8.020374298E0;3.439893126E-1;9.589735866E-1
2.408919688E1;-8.051374435E0;2.814719379E-1;7.510227561E-1
2.410110781E1;-8.008451462E0;3.180840611E-1;9.181667566E-1
2.411302031E1;-8.345707893E0;2.207549810E-1;1.446078658E0
2.412493125E1;-8.496706009E0;4.855440855E-1;2.171224833E0
2.413684375E1;-8.663974762E0;6.068630815E-1;2.734398603E0
2.414875469E1;-8.644207954E0;6.277596951E-1;2.965812445E0
2.416067344E1;-8.491045952E0;5.399882793E-1;2.814480066E0
2.417257812E1;-8.363147736E0;3.844417334E-1;2.323294878E0
2.418448906E1;-8.435165405E0;2.427624762E-1;1.955823421E0
2.419640156E1;-8.465964317E0;2.417569160E-1;1.785365820E0
2.420831250E1;-8.798068047E0;7.363606989E-2;1.711787224E0
2.422022500E1;-9.069350243E0;-1.684560440E-2;1.678699374E0
2.423215938E1;-9.386601448E0;-2.092532441E-2;1.508414030E0
2.424404688E1;-9.968268394E0;-1.439298242E-1;1.401479483E0
2.425596562E1;-1.074766731E1;-1.631600708E-1;1.374080181E0
2.426787188E1;-1.132454491E1;-1.066952050E-1;1.186288595E0
2.427978125E1;-1.138158512E1;1.216829047E-1;9.021160007E-1
2.429169375E1;-1.126868343E1;4.350839257E-1;8.155800104E-1
2.430360469E1;-1.157704830E1;6.247047186E-1;6.957167387E-1
2.431551719E1;-1.188295937E1;7.052073479E-1;5.125698447E-1
2.432742812E1;-1.236716270E1;5.382547975E-1;4.587769210E-1
2.433934063E1;-1.304323769E1;3.890481889E-1;4.437700808E-1
2.435125156E1;-1.324843979E1;-2.552219033E-1;-4.579054117E-1
2.436316250E1;-1.341497040E1;-1.307799220E0;-1.054205298E0
2.437507500E1;-1.402967644E1;-2.012403250E0;2.289728165E0
2.438699844E1;-1.519405365E1;-6.950367689E-1;1.078375340E1
2.439889844E1;-1.288923264E1;1.597880602E0;1.315016174E1
2.441080938E1;-9.568762779E0;2.523000240E0;1.005583858E1
2.442272031E1;-7.980956554E0;2.577118635E0;7.398169518E0
2.443464688E1;-7.979146481E0;2.496893883E0;5.690433025E0
2.444654531E1;-9.365590096E0;2.385936975E0;4.500869274E0
2.445845469E1;-1.016922855E1;2.756751060E0;3.180093527E0
2.447036719E1;-9.817395210E0;3.113122940E0;1.223973393E0
2.448227812E1;-9.630523682E0;3.051094055E0;-4.789361060E-1
2.449419062E1;-9.727364540E0;2.944820404E0;-8.132528663E-1
