"Time (s)";"Linear Acceleration x (m/s^2)";"Linear Acceleration y (m/s^2)";"Linear Acceleration z (m/s^2)"
2.779375000E-2;-1.140999943E-1;1.658999920E-1;-8.226000071E-1
4.764687500E-2;7.279999554E-2;6.532999873E-1;-1.016000032E0
6.749843800E-2;2.044999897E-1;3.228999972E-1;2.821999788E-1
8.735156300E-2;1.491999924E-1;-1.494999975E-1;7.391999960E-1
1.072046880E-1;2.707999945E-1;6.799999624E-2;5.992999673E-1
1.270562500E-1;1.961999983E-1;2.412000000E-1;1.079999954E-1
1.469093750E-1;1.469999999E-1;1.428999901E-1;-1.307999939E-1
1.667625000E-1;-2.953999937E-1;-2.247999907E-1;3.515000045E-1
1.866140630E-1;-8.289999515E-2;-3.269999921E-1;7.536000013E-1
2.064671880E-1;2.233999968E-1;-8.659999818E-2;3.814999759E-1
2.263203130E-1;3.969999850E-1;1.622999907E-1;-7.479999959E-2
2.461718750E-1;9.699999541E-2;1.076999977E-1;-2.248999923E-1
2.660250000E-1;1.970999986E-1;9.139999747E-2;-1.056999937E-1
2.858765630E-1;2.229999900E-1;-4.219999909E-2;2.129999921E-2
3.057296880E-1;8.797000051E-1;-8.479999751E-2;5.103999972E-1
3.255828130E-1;4.736999869E-1;-5.568000078E-1;6.134999990E-1
3.454359380E-1;-1.054000020E0;-1.497900009E0;-2.122999877E-1
3.652875000E-1;1.507999897E-1;-1.123399973E0;-2.028100014E0
3.851406250E-1;1.120000005E0;-1.395999938E-1;-1.211499929E0
4.049937500E-1;2.480799913E0;7.861999869E-1;-5.977999568E-1
4.248453130E-1;1.929600000E0;5.498999953E-1;-1.082399964E0
4.446984380E-1;1.416399956E0;6.348999739E-1;-2.056900024E0
4.645515630E-1;1.660899997E0;5.536999702E-1;-1.590699911E0
4.844046880E-1;3.370999992E-1;-7.246999741E-1;-6.606000066E-1
5.042562500E-1;-2.700999975E-1;-1.543599963E0;3.920999765E-1
5.241093750E-1;1.261000037E-1;-1.315500021E0;8.389999866E-1
5.439609380E-1;1.384499907E0;-1.156000018E0;2.052000016E-1
5.638140630E-1;1.291800022E0;-1.441200018E0;1.394099951E0
5.836671880E-1;1.542400002E0;-1.307199955E0;6.886999607E-1
6.035203130E-1;1.144500017E0;-1.566100001E0;-1.475499988E0
6.233718750E-1;9.717999697E-1;-1.954899907E0;-1.089100003E0
6.432250000E-1;1.582199931E0;-1.240000010E0;-2.068399906E0
6.630781250E-1;7.497999668E-1;-2.062399864E0;-1.344699979E0
6.829296880E-1;1.062999964E-1;-2.372699976E0;1.208599925E0
7.027828130E-1;-4.618999958E-1;-2.865700006E0;-8.623999953E-1
7.226359380E-1;-5.440999866E-1;-8.780999780E-1;-4.459599972E0
7.424890630E-1;-8.173999786E-1;1.807699919E0;-1.414199948E0
7.623406250E-1;-3.384500027E0;3.027799845E0;2.714599848E0
7.821937500E-1;-2.101099968E0;3.046499968E0;5.713599682E0
8.020468750E-1;3.472999930E-1;2.905999899E0;5.715499878E0
8.219000000E-1;-1.708000004E-1;3.243299961E0;4.009500027E0
8.417515630E-1;-1.082800031E0;4.065199852E0;2.980899811E0
8.616046880E-1;-8.269999623E-1;4.653599739E0;2.564399958E0
8.814578130E-1;2.536000013E-1;3.898399830E0;3.471599817E0
9.013093750E-1;1.474200010E0;3.453999996E0;4.103699684E0
9.211625000E-1;1.271199942E0;2.252199888E0;3.186699867E0
9.410156250E-1;1.293399930E0;2.102200031E0;4.165000021E-1
9.608671880E-1;-1.137699962E0;9.596999884E-1;-1.443199992E0
9.807203130E-1;-2.885999918E0;2.321999967E-1;-1.705500007E0
1.000573438E0;-1.075299978E0;9.305999875E-1;-5.292999744E-1
1.020425000E0;1.829999983E-1;5.862999558E-1;9.177999496E-1
1.040278125E0;1.108199954E0;6.581000090E-1;1.289399981E0
1.060131250E0;9.402999878E-1;7.059999704E-1;3.865000010E-1
1.079984375E0;-9.705999494E-1;7.759999484E-2;-3.719999790E-1
1.099835938E0;-1.724699974E0;1.620000042E-2;-7.684999704E-1
1.119689063E0;-6.245999932E-1;9.753999710E-1;-7.135999799E-1
1.139542188E0;1.517399907E0;1.299000025E0;-9.684000015E-1
1.159393750E0;1.395299911E0;1.812999964E0;-7.885999680E-1
1.179246875E0;-7.601999640E-1;1.351899981E0;-1.488499999E0
1.199100000E0;-1.076099992E0;2.122400045E0;-1.783599973E0
1.218951563E0;2.024699926E0;3.347699881E0;-6.175000072E-1
1.238804688E0;4.992399693E0;4.162699699E0;6.945999861E-1
1.258657813E0;5.217599869E0;4.071399689E0;-2.202999890E-1
1.278510938E0;2.147899866E0;3.461599827E0;-2.513000011E0
1.298362500E0;2.253499985E0;4.425499916E0;-2.949100018E0
1.318215625E0;2.654199839E0;3.943599939E0;-2.464999914E0
1.338068750E0;2.263399839E0;2.281499863E0;-8.898999691E-1
1.357920313E0;2.862999916E0;1.114099979E0;-8.766999841E-1
1.377773438E0;-4.607999802E0;-2.500599861E0;2.847100019E0
1.397625000E0;-5.256799698E0;-2.927700043E0;2.139799833E0
1.417478125E0;-3.949100018E0;-1.047099948E0;2.598999977E0
1.437329688E0;-4.602799892E0;-1.874399900E0;2.045899868E0
1.457182813E0;7.092999816E-1;2.550799847E0;-2.549899817E0
1.477035938E0;-1.952299953E0;3.655200005E0;-1.318899989E0
1.496889063E0;-2.454399824E0;-8.716999888E-1;-2.852499962E0
1.516742188E0;-2.177500010E0;-4.488500118E0;-3.843899965E0
1.536593750E0;1.023999974E-1;-3.584199905E0;-3.550499916E0
1.556446875E0;4.394499779E0;1.217399955E0;-2.306200027E0
1.576300000E0;1.640999913E0;1.269899964E0;1.308300018E0
1.596151563E0;-1.588999927E-1;-2.766499996E0;3.500499964E0
1.616004688E0;-1.501500010E0;-4.379099846E0;2.676199913E0
1.635856250E0;9.598999619E-1;3.357000053E-1;3.930399895E0
1.655709375E0;1.336099982E0;1.173200011E0;-7.199999690E-1
1.675562500E0;-7.250999808E-1;1.169499993E0;-2.734400034E0
1.695415625E0;-2.179999948E-1;1.466799974E0;-2.134999990E0
1.715267188E0;-2.094199896E0;-1.174399972E0;-1.203999966E-1
1.735120313E0;-3.922599792E0;-1.477399945E0;4.993999898E-1
1.754973438E0;-2.883699894E0;4.176999927E-1;2.060999870E0
1.774825000E0;4.354999959E-1;1.104300022E0;1.717999935E0
1.794678125E0;2.839399815E0;8.669999838E-1;-2.759899855E0
1.814531250E0;1.733099937E0;5.497999787E-1;-1.270999908E0
1.834384375E0;3.027999997E-1;6.220999956E-1;4.685199738E0
1.854235938E0;9.977999926E-1;9.282999635E-1;2.699800014E0
1.874089063E0;4.735799789E0;1.114999950E-1;8.000999689E-1
1.893942188E0;6.142199993E0;-7.637000084E-1;-2.702100039E0
1.913793750E0;-9.016000032E-1;-1.399299979E0;-2.580899954E0
1.933646875E0;-2.664499998E0;-2.268100023E0;-2.141399860E0
1.953500000E0;-2.326499939E0;-3.582599878E0;5.565999746E-1
1.973351563E0;-1.882799983E0;-3.690199852E0;3.059199810E0
1.993204688E0;4.212999940E-1;-2.707299948E0;3.111399889E0
2.013057813E0;1.578999907E-1;-9.447999597E-1;2.540699959E0
2.032910938E0;-3.113699913E0;6.303799629E0;-5.259500027E0
2.052762500E0;6.277999878E-1;3.790199995E0;1.907599926E0
2.072615625E0;3.487900019E0;-1.662699938E0;4.490000010E-1
2.092468750E0;6.103999615E-1;-3.341999948E-1;5.555599689E0
2.112320313E0;-1.292099953E0;-1.977099895E0;4.044999778E-1
2.132173438E0;2.277400017E0;-4.281999767E-1;-7.633999586E-1
2.152026563E0;8.240300179E0;3.046099901E0;2.406999916E-1
2.171879688E0;4.726200104E0;8.485999703E-1;1.327899933E0
2.191731250E0;1.464399934E0;-1.825199962E0;5.363999605E-1
2.211584375E0;2.053499937E0;-1.179299951E0;-1.461199999E0
2.231437500E0;-2.509099960E0;-2.018699884E0;-3.486000001E-1
2.251289063E0;-7.695199966E0;-2.021299839E0;-4.257100105E0
2.271142188E0;-5.609200001E0;-3.585999906E-1;-3.858699799E0
2.290995313E0;-3.624499798E0;7.405999899E-1;-3.160199881E0
2.310846875E0;-4.967499733E0;-3.723999858E-1;-2.468299866E0
2.330700000E0;-4.242799759E0;-8.515999913E-1;-1.953399897E0
2.350553125E0;-1.725799918E0;-2.579799891E0;2.095799923E0
2.370404688E0;1.979999989E-1;-3.414499998E0;4.845200062E0
2.390257813E0;1.544499993E0;-1.386999965E0;3.786399841E0
2.410110938E0;2.748199940E0;7.619999647E-1;3.245299816E0
2.429964063E0;1.182899952E0;8.610999584E-1;3.066200018E0
2.449815625E0;-1.214499950E0;-2.437000036E0;4.084499836E0
2.469687500E0;-9.160000086E-2;-1.313499928E0;2.130300045E0
2.489521875E0;1.200209999E1;3.494899988E0;-7.884699821E0
2.509373438E0;1.008430004E1;-7.332999706E-1;-4.813199997E0
2.529226563E0;2.926299810E0;-4.621599674E0;4.878000021E-1
2.549079688E0;2.949000001E-1;-1.347000003E-1;1.361799955E0
2.568931250E0;-5.228999853E-1;1.809299946E0;-1.970999986E-1
2.588784375E0;2.908999920E-1;2.962999940E-1;-9.122999907E-1
2.608637500E0;2.099999934E-1;1.523899913E0;1.613600016E0
2.628490625E0;3.099999856E-3;2.215699911E0;2.710500002E0
2.648342188E0;9.276999831E-1;2.052199841E0;1.033499956E0
2.668195313E0;6.935999990E-1;6.116999984E-1;-1.571099997E0
2.688048438E0;-3.429999948E-2;1.930999905E-1;-1.447099924E0
2.707900000E0;2.639999986E-2;-2.043599844E0;-1.494799972E0
2.727751563E0;3.411999941E-1;-7.197999954E-1;6.811000109E-1
2.747604688E0;1.160699964E0;6.288999915E-1;1.065099955E0
2.767457813E0;1.665199995E0;7.415999770E-1;7.673000097E-1
2.787310938E0;1.198499918E0;4.833999872E-1;-2.970999777E-1
2.807162500E0;7.016999722E-1;6.117099762E0;1.422999948E-1
2.827015625E0;1.542699933E0;9.335999489E-1;-1.449399948E0
2.846868750E0;1.694999933E-1;-5.892099857E0;-1.090999961E0
2.866721875E0;6.589999795E-1;-2.891199827E0;1.178799987E0
2.886573438E0;-3.940000013E-2;-3.204999864E-1;4.206999779E0
2.906426563E0;6.586999893E-1;-1.246599913E0;3.464999795E-1
2.926279688E0;1.006399989E0;-1.829699993E0;-1.186499953E0
2.946131250E0;3.810099840E0;-1.931499958E0;-9.528999925E-1
2.965984375E0;7.437399864E0;-1.240499973E0;-1.567399979E0
2.985837500E0;4.421299934E0;-3.241600037E0;-1.513499975E0
3.005689063E0;5.073999763E-1;-2.320799828E0;1.477999985E-1
3.025542188E0;-1.494099975E0;-1.207899928E0;2.247799873E0
3.045395313E0;-2.543499947E0;2.037999928E-1;5.378000140E-1
3.065246875E0;-1.421899915E0;1.679899931E0;-3.332799911E0
3.085100000E0;-3.297999799E-1;3.093799829E0;-1.345399976E0
3.104953125E0;-4.098999798E-1;1.610700011E0;1.218099952E0
3.124804688E0;-2.711799860E0;-5.179999769E-2;-1.500999928E-1
3.144657813E0;-5.026999712E-1;-1.773000002E0;1.738999933E-1
3.164510938E0;2.183699846E0;-2.118200064E0;8.509999514E-1
3.184362500E0;4.727900028E0;-1.216699958E0;-1.601199985E0
3.204215625E0;6.802000046E0;2.206999958E-1;1.052000001E-1
3.224068750E0;4.364299774E0;-1.357000023E-1;-1.445000023E-1
3.243921875E0;2.066699982E0;1.957999945E0;1.507599950E0
3.263773438E0;-7.551999688E-1;3.171299934E0;-2.421399832E0
3.283626563E0;-3.998399973E0;2.311100006E0;1.752699971E0
3.303479688E0;-5.048199654E0;2.789700031E0;-8.889999986E-1
3.323332813E0;-4.043299675E0;5.214499950E0;-1.750399947E0
3.343184375E0;-4.135200024E0;5.908199787E0;-1.124499917E0
3.363037500E0;-3.437599897E0;6.184299946E0;-5.593999624E-1
3.382889063E0;-1.167400002E0;4.609799862E0;-8.235999942E-1
3.402742188E0;-5.315999985E-1;1.774099946E0;-1.162799954E0
3.422595313E0;-4.835999906E-1;-2.417399883E0;-1.903199911E0
3.442448438E0;-2.208899975E0;-3.067600012E0;6.613999605E-1
3.462300000E0;-6.758800030E0;-1.204999924E0;1.141899943E0
3.482153125E0;4.007400036E0;-9.316199303E0;1.952999979E-1
3.502006250E0;-1.999999955E-2;-7.691399574E0;-5.424000025E-1
3.521859375E0;3.363600016E0;-1.027499962E1;-9.023000002E-1
3.541710938E0;2.901399851E0;7.000000030E-2;-1.893799901E0
3.561564063E0;2.161999941E-1;-3.713599920E0;-3.236099958E0
3.581417188E0;8.459300041E0;-4.784599781E0;-6.631199837E0
3.601268750E0;6.181299686E0;6.772999763E-1;-4.539400101E0
3.621121875E0;1.297599912E0;-3.743000031E-1;4.181499958E0
3.640975000E0;-4.659999907E-1;-1.816999912E-1;3.019399881E0
3.660826563E0;-1.476400018E0;-9.761999846E-1;2.321999967E-1
3.680679688E0;-2.334899902E0;-1.753699899E0;1.944599986E0
3.700532813E0;-1.411899924E0;1.428000033E-1;1.066100001E0
3.720385938E0;2.798799992E0;2.996999919E-1;-9.028999805E-1
3.740237500E0;2.778899908E0;3.376999795E-1;-1.648299932E0
3.760090625E0;-1.753600001E0;4.545999765E-1;-7.152000070E-1
3.779943750E0;-3.401399851E0;4.454400063E0;-1.246699929E0
3.799795313E0;4.219599724E0;3.543599844E0;5.734999776E-1
3.819648438E0;6.531999707E-1;9.073999524E-1;2.166199923E0
3.839501563E0;-7.157999873E-1;-4.564999938E-1;2.355000019E0
3.859353125E0;-1.319399953E0;-3.345999956E0;3.807099819E0
3.879206250E0;1.264999956E-1;-1.469200015E0;2.768299818E0
3.899081250E0;-2.609999850E-2;-2.006299973E0;2.929100037E0
3.918912500E0;2.719999850E-1;-7.149999589E-2;-3.637199879E0
3.938764063E0;2.991499901E0;1.450299978E0;-3.819599867E0
3.958617188E0;4.009200096E0;7.120999694E-1;-9.009999782E-2
3.978470313E0;-1.986999959E-1;-2.738600016E0;6.269999743E-1
3.998321875E0;-1.383000016E-1;-2.747099876E0;7.389999926E-2
4.018175000E0;2.649699926E0;-1.677099943E0;-9.339999408E-2
4.038026563E0;5.025599957E0;-3.319700003E0;1.621799946E0
4.057879688E0;-6.362000108E-1;-1.055299997E0;-9.409999847E-2
4.077732813E0;5.724999905E-1;2.553999901E0;-1.079200029E0
4.097584375E0;-2.013700008E0;4.556299686E0;-2.496799946E0
4.117437500E0;-2.794800043E0;1.087000012E0;-2.493599892E0
4.137292188E0;-1.480799913E0;1.101899981E0;2.974299908E0
4.157142188E0;-7.951900005E0;-1.744699955E0;4.151999950E-1
4.176995313E0;-2.615999937E0;-2.705399990E0;4.420000017E-1
4.196848438E0;-4.594199657E0;-5.467799664E0;4.069699764E0
4.216700000E0;7.091999650E-1;-3.196300030E0;5.414700031E0
4.236553125E0;3.999699831E0;-4.781999886E-1;1.279099941E0
4.256406250E0;5.625999928E0;3.209800005E0;-2.411599874E0
4.276257813E0;2.588699818E0;3.507399797E0;-3.996399879E0
4.296110938E0;-3.119299889E0;-2.167899847E0;-3.157099962E0
4.315964063E0;-2.289599895E0;-1.641999930E-1;-2.006899834E0
4.335817188E0;-9.959999919E-1;3.455799818E0;-1.278999895E-1
4.355668750E0;6.006000042E-1;4.338399887E0;1.589299917E0
4.375521875E0;7.432000041E-1;2.867100000E0;-1.264400005E0
4.395375000E0;3.962000012E-1;-7.878999710E-1;-1.464900017E0
4.415226563E0;1.574899912E0;-2.904199839E0;-1.638499975E0
4.435079688E0;7.643799782E0;-5.012999773E-1;2.638399839E0
4.454932813E0;2.425299883E0;-2.975999832E0;5.004499912E0
4.474785938E0;1.863099933E0;-4.506000042E0;7.809999585E-2
4.494637500E0;9.236999750E-1;-3.897399902E0;1.169000030E0
4.514490625E0;-1.564599991E0;-3.115399837E0;-1.685099959E0
4.534343750E0;-4.315899849E0;-1.699000001E-1;-3.145200014E0
4.554195313E0;-6.349499702E0;1.667799950E0;-1.877799988E0
4.574048438E0;-5.792099953E0;1.465299964E0;1.399899960E0
4.593901563E0;-4.519299984E0;1.297699928E0;5.062299728E0
4.613753125E0;8.718000054E-1;2.385099888E0;6.957299709E0
4.633606250E0;1.629800034E1;3.453799963E0;5.074500084E0
4.653459375E0;2.681399822E0;-5.056799889E0;-1.518299937E0
4.673312500E0;9.422999620E-1;-3.987199783E0;-1.158100009E0
4.693164063E0;-2.969999984E-2;-3.026700020E0;-1.325299978E0
4.713017188E0;-1.903999895E-1;-1.700899959E0;4.226999879E-1
4.732870313E0;-5.379999802E-2;-1.155999973E-1;9.260999560E-1
4.752721875E0;1.511299968E0;8.456999660E-1;-2.877999842E-1
4.772575000E0;2.422499895E0;1.548999906E0;-1.124400020E0
4.792428125E0;2.299200058E0;2.466500044E0;-2.912899971E0
4.812281250E0;9.666999578E-1;2.354899883E0;-3.712099791E0
4.832132813E0;-6.983999610E-1;2.920300007E0;-2.700199842E0
4.851985938E0;-4.940999746E-1;9.982999563E-1;-2.247299910E0
4.871837500E0;1.592999995E-1;-3.360999823E-1;-1.916899920E0
4.891690625E0;-4.215999842E-1;-1.822799921E0;-1.403899908E0
4.911543750E0;6.164999604E-1;-1.604999900E0;5.519999862E-1
4.931395313E0;3.366999924E-1;-1.886799932E0;4.208999872E-1
4.951248438E0;-5.728999972E-1;-1.451299906E0;1.470099926E0
4.971101563E0;-9.669999778E-2;-4.247999787E-1;1.337399960E0
4.990954688E0;3.800999820E-1;-1.539999992E-2;4.478999972E-1
5.010806250E0;5.846999884E-1;1.112999991E-1;-1.315999925E-1
5.030659375E0;6.498999596E-1;1.500000013E-3;-3.240000010E-1
5.050512500E0;3.495999873E-1;-2.080000006E-2;-6.255999804E-1
5.070364063E0;2.889999934E-2;4.120000079E-2;-7.973999977E-1
5.090217188E0;-9.339999408E-2;8.399999887E-2;-9.149000049E-1
5.110070313E0;-9.889999777E-2;-1.594000012E-1;-8.805999756E-1
5.129923438E0;-1.819999963E-1;-1.609999873E-2;-1.112800002E0
5.149775000E0;-2.563999891E-1;1.798999906E-1;-1.136199951E0
5.169628125E0;-2.534999847E-1;3.519999981E-1;-1.103899956E0
5.189481250E0;-1.430999935E-1;5.862999558E-1;-1.122799993E0
5.209332813E0;1.635999978E-1;5.397999883E-1;-1.185999990E0
5.229185938E0;4.109999835E-1;3.118000031E-1;-1.195299983E0
5.249039063E0;5.315999985E-1;-1.655000001E-1;-1.288699985E0
5.268890625E0;6.511999965E-1;-6.620999575E-1;-1.317799926E0
5.288743750E0;9.387999773E-1;-8.618999720E-1;-1.158599973E0
5.308596875E0;9.244999886E-1;-6.746000051E-1;-1.073400021E0
5.328448438E0;5.282999873E-1;-3.716999888E-1;-7.060999870E-1
5.348301563E0;-3.865000010E-1;1.335999966E-1;-4.843999743E-1
5.368153125E0;-1.739799976E0;4.371999800E-1;9.999999311E-4
5.388007813E0;-2.451900005E0;2.653000057E-1;7.254999876E-1
5.407859375E0;-1.350199938E0;-5.419999734E-2;1.571399927E0
5.427710938E0;4.034000039E-1;-6.534000039E-1;2.741899967E0
5.447564063E0;7.233999968E-1;-1.317999959E0;3.420199871E0
5.467417188E0;4.757999778E-1;-8.689999580E-1;2.724200010E0
5.487270313E0;9.299999475E-2;8.126999736E-1;7.087999582E-1
5.507121875E0;7.066999674E-1;1.705199957E0;-5.615999699E-1
5.526975000E0;1.623199940E0;1.713999987E0;-6.398999691E-1
5.546828125E0;1.148800015E0;1.103299975E0;-9.034999609E-1
5.566679688E0;1.174999997E-1;3.551000059E-1;-8.852999806E-1
5.586532813E0;1.668999940E-1;3.896999955E-1;-3.058999777E-1
5.606385938E0;7.382000089E-1;7.123000026E-1;-1.439999975E-2
5.626239063E0;7.233999968E-1;9.522999525E-1;-2.599999867E-2
5.646090625E0;3.832999766E-1;9.229999781E-1;1.567000002E-1
5.665943750E0;1.210999936E-1;4.769999981E-1;9.549999982E-2
5.685796875E0;2.611999810E-1;2.567999959E-1;-2.802999914E-1
5.705648438E0;4.206999838E-1;3.538999856E-1;-9.718999863E-1
5.725501563E0;4.519999921E-1;5.626999736E-1;-1.343099952E0
5.745354688E0;8.029999584E-2;6.121000051E-1;-1.355299950E0
5.765206250E0;-5.067999959E-1;3.027999997E-1;-9.459999800E-1
5.785059375E0;-8.667999506E-1;-4.409999773E-2;-8.000999689E-1
5.804912500E0;-7.657999992E-1;-2.326999903E-1;-6.416999698E-1
5.824764063E0;-2.831999958E-1;-3.350000083E-2;-8.489999771E-1
5.844617188E0;1.280999929E-1;8.580999970E-1;-5.302999616E-1
5.864470313E0;2.238999903E-1;1.477699995E0;3.240000084E-2
5.884323438E0;5.083999634E-1;1.404599905E0;4.287000000E-1
5.904175000E0;5.410000086E-1;1.098199964E0;-9.049999714E-2
5.924028125E0;5.130000114E-1;8.707000017E-1;-3.213000000E-1
5.943881250E0;7.471999526E-1;8.666999936E-1;-5.065999627E-1
5.963734375E0;1.117499948E0;1.293900013E0;-2.920999825E-1
5.983585938E0;2.638599873E0;1.225199938E0;2.440999895E-1
6.003439063E0;2.840399981E0;1.025599957E0;4.495999813E-1
6.023292188E0;-2.760999799E-1;6.410999894E-1;4.840999842E-1
6.043143750E0;5.433999896E-1;5.934999585E-1;7.012000084E-1
6.062996875E0;1.079499960E0;1.972000003E-1;7.159999609E-1
6.082850000E0;1.331699967E0;9.539999813E-2;8.082999587E-1
6.102701563E0;1.564000010E0;4.712999761E-1;1.049499989E0
6.122554688E0;1.144599915E0;2.583999932E-1;1.463499904E0
6.142407813E0;-2.097999901E-1;-5.814999938E-1;8.086999655E-1
6.162259375E0;-1.660999954E-1;-1.388399959E0;-3.488999903E-1
6.182112500E0;-1.472999901E-1;-1.987899899E0;-7.229999900E-1
6.201965625E0;-2.021999955E-1;-1.891699910E0;-2.081999928E-1
6.221818750E0;-3.191999793E-1;-1.705599904E0;5.085999966E-1
6.241668750E0;-6.847000122E-1;-1.926099896E0;1.006999969E0
6.261521875E0;-1.091899991E0;-2.295399904E0;1.184199929E0
6.281378125E0;-1.000900030E0;-2.641899824E0;1.108399987E0
6.301228125E0;-4.407999814E-1;-2.262500048E0;1.178300023E0
6.321079688E0;7.145000100E-1;-1.602199912E0;6.639999747E-1
6.340934375E0;1.025200009E0;-1.018999934E0;3.276000023E-1
6.360785938E0;-1.591999978E-1;-1.099699974E0;-3.851999938E-1
6.380639063E0;-1.067000031E0;-1.279199958E0;-1.437000036E-1
6.400492188E0;-1.172099948E0;-1.487699986E0;4.213999808E-1
6.420343750E0;-6.104999781E-1;-1.352399945E0;5.688999891E-1
6.440196875E0;-3.944999874E-1;-1.183499932E0;4.050000012E-2
6.460050000E0;-5.478999615E-1;-1.328299999E0;-2.443999946E-1
6.479901563E0;-4.775999784E-1;-1.409299970E0;-1.469999999E-1
6.499754688E0;1.523000002E-1;-1.640499949E0;2.930999994E-1
6.519606250E0;6.069999933E-1;-1.507699966E0;3.671999872E-1
6.539459375E0;5.659999847E-1;-1.213299990E0;3.350000083E-2
6.559312500E0;1.898999959E-1;-8.023999929E-1;3.463999927E-1
6.579164063E0;-1.425999999E-1;-2.802999914E-1;4.407999814E-1
6.599018750E0;7.869999856E-2;1.706999987E-1;2.524999976E-1
6.618870313E0;4.879999757E-1;4.888999760E-1;3.502999842E-1
6.638723438E0;-1.024999991E-1;2.811000049E-1;6.821999550E-1
6.658575000E0;-5.953999758E-1;1.198999956E-1;9.860999584E-1
6.678428125E0;-9.860999584E-1;4.561999738E-1;9.957999587E-1
6.698281250E0;-9.736999869E-1;8.697999716E-1;1.324999928E0
6.718132813E0;-2.838999927E-1;1.302299976E0;1.817600012E0
6.737985938E0;7.432000041E-1;1.445599914E0;1.880299926E0
6.757839063E0;1.154299974E0;1.294799924E0;1.214200020E0
6.777690625E0;6.843999624E-1;1.020799994E0;2.664999962E-1
6.797543750E0;1.589999907E-2;7.911999822E-1;5.379999802E-2
6.817396875E0;-4.065999985E-1;4.423999786E-1;-7.310000062E-2
6.837250000E0;-4.736000001E-1;-1.890999973E-1;-1.049999967E-1
6.857101563E0;3.222999871E-1;-4.871999919E-1;2.547999918E-1
6.876954688E0;8.051999807E-1;-4.980999827E-1;1.013000011E-1
6.896807813E0;7.725999951E-1;2.371999919E-1;-4.350000024E-1
6.916659375E0;5.848000050E-1;9.009999633E-1;-1.085799932E0
6.936512500E0;2.766000032E-1;8.887999654E-1;-1.408900023E0
6.956365625E0;6.859999895E-2;3.340999782E-1;-1.272799969E0
6.976218750E0;6.082999706E-1;7.050000131E-2;-8.272999525E-1
6.996070313E0;1.139599919E0;3.105999827E-1;-7.619999647E-1
7.015923438E0;1.294499993E0;8.578000069E-1;-4.793999791E-1
7.035776563E0;2.210000008E-1;7.178999782E-1;6.319999695E-2
7.055628125E0;-8.219999671E-1;3.749999776E-2;2.874999940E-1
7.075481250E0;-5.604999661E-1;-3.565999866E-1;9.024999738E-1
7.095334375E0;3.639999777E-2;-1.359999925E-1;9.754999876E-1
7.115185938E0;5.559999868E-2;9.189999849E-2;3.385999799E-1
7.135039063E0;3.897999823E-1;-7.469999790E-2;-7.940999866E-1
7.154892188E0;5.953999758E-1;-2.569999918E-2;-1.352699995E0
7.174745313E0;5.041999817E-1;2.479999959E-1;-1.239199996E0
7.194596875E0;3.033999801E-1;3.136000037E-1;-6.064000130E-1
7.214450000E0;1.023999974E-1;1.923999935E-1;8.399999700E-3
7.234303125E0;-1.771000028E-1;-1.560999900E-1;4.581999779E-1
7.254154688E0;-5.399999674E-3;-3.972999752E-1;7.606999874E-1
7.274007813E0;1.476999968E-1;-4.512999952E-1;6.148999929E-1
7.293860938E0;2.428999990E-1;-3.059999943E-1;2.588000000E-1
7.313712500E0;2.300999910E-1;-1.083999947E-1;-2.048999965E-1
7.333565625E0;1.092999950E-1;-1.074999943E-1;-5.494999886E-1
7.353418750E0;1.447999924E-1;-7.559999824E-2;-4.099999964E-1
7.373270313E0;7.239999622E-2;-1.508999914E-1;-2.597999871E-1
7.393123438E0;-2.909999900E-2;-9.119999409E-2;1.248999983E-1
7.412976563E0;1.252999902E-1;2.840000018E-2;3.940999806E-1
7.432829688E0;7.499999553E-2;-1.459999979E-1;4.314000010E-1
7.452681250E0;2.317999899E-1;-4.253000021E-1;3.333999813E-1
7.472534375E0;2.806999981E-1;-4.079999924E-1;1.569999903E-1
7.492387500E0;6.459999830E-2;-1.114999950E-1;4.129999876E-2
7.512239063E0;-2.100999951E-1;4.869999737E-2;1.008999944E-1
7.532090625E0;-1.907999963E-1;-8.649999648E-2;4.171999991E-1
7.551945313E0;5.619999766E-2;-3.098999858E-1;5.224999785E-1
7.571796875E0;2.653000057E-1;-3.643999994E-1;4.350000024E-1
7.591648438E0;2.088999897E-1;-2.531999946E-1;-1.139999926E-2
7.611503125E0;9.290000051E-2;4.380000010E-2;-2.166000009E-1
7.631354688E0;-9.239999950E-2;6.189999729E-2;-5.299999844E-3
7.651207813E0;-1.290999949E-1;-4.359999895E-1;3.146999776E-1
7.671059375E0;1.500999928E-1;-7.524999976E-1;5.040999651E-1
7.690914063E0;3.509999812E-1;-6.416999698E-1;5.378999710E-1
7.710765625E0;-6.599999964E-2;-2.017999887E-1;3.084000051E-1
7.730618750E0;-1.879999936E-1;-5.590000004E-2;3.299999833E-1
7.750471875E0;1.389999967E-2;-2.423999906E-1;3.693999946E-1
7.770325000E0;3.059999943E-1;-4.456000030E-1;9.679999948E-2
7.790176563E0;6.275999546E-1;-4.915999770E-1;-3.613999784E-1
7.810029688E0;6.442999840E-1;-2.780999839E-1;-9.109999537E-1
7.829882813E0;4.892999828E-1;1.831000000E-1;-1.090799928E0
7.849734375E0;2.339999974E-1;5.940999985E-1;-9.347999692E-1
7.869587500E0;1.899999939E-2;8.122999668E-1;-5.407999754E-1
7.889440625E0;-4.649999738E-2;6.324999928E-1;-3.075000048E-1
7.909292188E0;1.738999933E-1;2.352999896E-1;-2.795999944E-1
7.929143750E0;6.796000004E-1;-2.549999952E-2;-6.187999845E-1
7.948996875E0;9.296999574E-1;-9.959999472E-2;-8.460999727E-1
7.968850000E0;6.599999666E-1;3.409999982E-2;-8.075999618E-1
7.988703125E0;5.069999695E-1;3.079999983E-1;-1.253700018E0
8.008556250E0;3.344999850E-1;1.212999970E-1;-1.178699970E0
8.028407813E0;2.700999975E-1;-2.430999875E-1;-1.310999990E0
8.048260938E0;5.058999658E-1;-6.090999842E-1;-9.866999984E-1
8.068112500E0;5.212999582E-1;-5.956999660E-1;-3.958999813E-1
8.087965625E0;2.370999902E-1;-5.159999803E-2;-2.122000009E-1
8.107818750E0;-5.619999766E-2;2.787999809E-1;7.589999586E-2
8.127671875E0;1.264999956E-1;1.247999966E-1;-2.687999904E-1
8.147523438E0;5.054000020E-1;-1.877999902E-1;-5.153999925E-1
8.167376563E0;7.044999599E-1;-4.999999702E-2;-9.262999892E-1
8.187228125E0;6.559999585E-1;5.062000155E-1;-1.378399968E0
8.207081250E0;3.603999913E-1;8.794999719E-1;-1.424099922E0
8.226934375E0;1.261999905E-1;6.796000004E-1;-1.419299960E0
8.246787500E0;7.119999826E-2;1.273999959E-1;-1.068899989E0
8.266639063E0;-1.310999990E-1;5.889999866E-2;-5.363000035E-1
8.286492188E0;-1.860999912E-1;4.025000036E-1;-5.812999606E-1
8.306343750E0;4.270000011E-2;3.334999979E-1;-5.227000117E-1
8.326198438E0;4.459999874E-2;2.674999833E-1;-4.711999893E-1
8.346050000E0;-2.049999870E-2;1.005999967E-1;-6.776999831E-1
8.365903125E0;4.189999774E-2;-2.391999960E-1;-8.084999919E-1
8.385756250E0;1.530999988E-1;-1.208999977E-1;-5.884999633E-1
8.405607813E0;6.859999895E-2;7.140000165E-2;-5.866999626E-1
8.425460938E0;3.999999724E-3;-5.939999968E-2;-5.902000070E-1
8.445314063E0;3.911999762E-1;-1.946999878E-1;-4.912000000E-1
8.465165625E0;4.253000021E-1;-6.983000040E-1;-6.241999865E-1
8.485018750E0;5.681999922E-1;1.555999964E-1;-4.377999902E-1
8.504871875E0;-5.619999766E-1;1.013599992E0;-1.895999908E-1
8.524723438E0;-7.881999612E-1;1.286800027E0;1.159999967E-1
8.544576563E0;-3.258000016E-1;7.221999764E-1;1.576000005E-1
8.564428125E0;4.129000008E-1;-1.950000040E-2;-3.322999775E-1
8.584284375E0;4.070999920E-1;-6.175999641E-1;-6.413999796E-1
8.604132813E0;4.829999804E-2;-9.275999665E-1;-1.743000001E-1
8.623985938E0;-2.679999918E-2;-7.084000111E-1;-3.201999962E-1
8.643839063E0;-4.149999842E-2;-3.492999971E-1;-1.947999895E-1
8.663692188E0;-1.516999900E-1;-1.520999968E-1;2.469999939E-1
8.683543750E0;3.289999813E-2;-4.941999912E-1;2.389999852E-2
8.703396875E0;4.050000012E-1;-7.889999747E-1;-1.889999956E-2
8.723250000E0;-1.454999894E-1;-2.827000022E-1;3.051999807E-1
8.743101563E0;-6.911999583E-1;5.389999971E-2;9.349999577E-2
8.762956250E0;-4.429000020E-1;-3.339999914E-2;-5.428000093E-1
8.782807813E0;-3.188999891E-1;-7.364999652E-1;-6.401000023E-1
8.802660938E0;-3.905999959E-1;-1.223099947E0;-3.067999780E-1
8.822512500E0;-9.041000009E-1;-7.698999643E-1;2.799999900E-2
8.842367188E0;-9.664999843E-1;4.600999951E-1;1.899999939E-2
8.862218750E0;-4.210999906E-1;1.087899923E0;-7.834999561E-1
8.882070313E0;2.734999955E-1;-2.838000059E-1;-1.943199992E0
8.901923438E0;3.310999870E-1;-1.140200019E0;-1.959599972E0
8.921778125E0;-8.739999682E-2;-1.303099990E0;-1.639999986E0
8.941629688E0;-4.811999798E-1;-3.351999819E-1;-1.363099933E0
8.961482813E0;-4.041000009E-1;-7.069999725E-2;-1.372599959E0
8.981335938E0;9.884999990E-1;-1.152300000E0;-1.283599973E0
9.001187500E0;3.473500013E0;-2.140300035E0;-8.977999687E-1
9.021040625E0;2.291800022E0;-2.407399893E0;-1.467999935E0
9.040893750E0;-2.699999837E-3;-2.011499882E0;-6.305999756E-1
9.060745313E0;-7.989000082E-1;-1.064399958E0;4.453999996E-1
9.080596875E0;-1.287400007E0;-1.456999928E-1;-4.930999875E-1
9.100450000E0;-3.998999894E-1;7.229999900E-1;-2.532999992E0
9.120303125E0;7.572999597E-1;8.726999760E-1;-2.975199938E0
9.140156250E0;3.351699829E0;9.386999607E-1;-1.618600011E0
9.160007813E0;3.321300030E0;-8.599999361E-3;-5.672000051E-1
9.179860938E0;2.615099907E0;-1.938699961E0;-5.874999762E-1
9.199714063E0;3.097999811E0;-2.450099945E0;1.579999924E-1
9.219565625E0;3.026199818E0;-1.363600016E0;1.213400006E0
9.239418750E0;1.171999931E0;5.583999753E-1;1.496899962E0
9.259271875E0;-9.092999697E-1;1.450199962E0;2.181200027E0
9.279125000E0;-1.737800002E0;1.550599933E0;2.196300030E0
9.298976563E0;-1.758499980E0;1.448699951E0;2.358899832E0
9.318829688E0;-1.318499923E0;1.947199941E0;2.369299889E0
9.338681250E0;-7.899999619E-1;1.998399973E0;2.267600060E0
9.358534375E0;-2.987999916E-1;2.092799902E0;2.232499838E0
9.378387500E0;6.067999601E-1;2.100899935E0;2.311100006E0
9.398240625E0;1.110100031E0;1.305899978E0;2.068799973E0
9.418092188E0;4.280999899E-1;6.107999682E-1;1.390999913E0
9.437945313E0;4.052999914E-1;4.221999943E-1;1.083599925E0
9.457798438E0;4.043999910E-1;3.762999773E-1;1.049099922E0
9.477651563E0;2.576999962E-1;4.882999957E-1;1.155300021E0
9.497503125E0;-1.235999987E-1;6.123999953E-1;1.168499947E0
9.517356250E0;-8.183000088E-1;4.610999823E-1;9.089999795E-1
9.537207813E0;-1.659500003E0;5.739999935E-2;2.933000028E-1
9.557060938E0;-1.902300000E0;-3.349999785E-1;-4.339999706E-2
9.576914063E0;-1.409999967E0;-9.369999915E-2;-5.031999946E-1
9.596765625E0;-7.716999650E-1;7.231999636E-1;-5.900999904E-1
9.616618750E0;-2.610000074E-1;1.156299949E0;-1.010999918E0
9.636471875E0;1.624999940E-1;4.193999767E-1;-1.381099939E0
9.656325000E0;8.514999747E-1;-4.619999975E-2;-1.384699941E0
9.676178125E0;1.334200025E0;4.538999796E-1;-6.043999791E-1
9.696029688E0;6.398999691E-1;6.234999895E-1;3.046000004E-1
9.715882813E0;-3.772999942E-1;6.771000028E-1;9.819999933E-1
9.735735938E0;-3.458999991E-1;1.566799998E0;2.181999922E0
9.755585938E0;9.659999609E-2;2.345399857E0;3.015199900E0
9.775439063E0;5.595999956E-1;2.306799889E0;2.132099867E0
9.795292188E0;1.826999933E-1;6.136999726E-1;-1.564999968E-1
9.815145313E0;3.000000026E-3;-4.746999741E-1;-1.247499943E0
9.834998438E0;-1.779000014E-1;-7.139999866E-1;-1.151899934E0
9.854853125E0;-5.590000004E-2;-1.092999950E-1;-9.758999944E-1
9.874703125E0;3.477999866E-1;7.247999907E-1;-4.008999765E-1
9.894556250E0;5.539999902E-2;1.501199961E0;3.759999946E-2
9.914407813E0;-9.928999543E-1;1.545499921E0;3.402999938E-1
9.934260938E0;-2.307699919E0;1.722700000E0;3.832999766E-1
9.954114063E0;-2.565899849E0;2.102999926E0;2.651999891E-1
9.973965625E0;-3.424399853E0;2.358599901E0;2.192000002E-1
9.993818750E0;-3.590199947E0;1.999899983E0;4.027999938E-1
1.001367188E1;-2.157700062E0;2.551800013E0;-6.556999683E-1
1.003352500E1;-1.206900001E0;3.320699930E0;-1.608699918E0
1.005337656E1;-6.539999843E-1;3.441699982E0;-1.225600004E0
1.007322969E1;4.089999944E-2;1.857699990E0;-1.385399938E0
1.009308125E1;1.018299937E0;1.916700006E0;-6.507999897E-1
1.011293594E1;1.398699999E0;3.119299889E0;7.770999670E-1
1.013278906E1;1.948699951E0;3.374699831E0;1.241999984E0
1.015264062E1;3.488799810E0;3.112399817E0;1.303399920E0
1.017249375E1;5.687299728E0;4.417699814E0;1.929999888E-2
1.019234688E1;6.101799965E0;6.184999943E0;-7.888000011E-1
1.021219844E1;5.121599674E0;6.453599930E0;-1.382900000E0
1.023205000E1;5.297699928E0;2.713899851E0;-8.003000021E-1
1.025190469E1;8.298299789E0;6.137999892E-1;-2.321999967E-1
1.027175625E1;1.242200017E0;1.891999990E-1;1.448499918E0
1.029160938E1;4.213999808E-1;-1.703699946E0;2.229599953E0
1.031146094E1;7.926999927E-1;-3.544299841E0;1.841099977E0
1.033131406E1;1.750999987E-1;-5.254899979E0;6.929999590E-1
1.035116719E1;-2.750000060E-1;-7.132499695E0;4.565999806E-1
1.037102031E1;-1.246999949E-1;-9.012999535E0;4.896999896E-1
1.039087188E1;-1.400799990E0;-8.527899742E0;1.276700020E0
1.041072500E1;-3.020499945E0;-3.721199989E0;1.024299979E0
1.043057656E1;-3.039899826E0;-1.798999906E-1;-1.777699947E0
1.045042969E1;-1.868600011E0;2.413499832E0;-3.845999956E0
1.047028281E1;-5.453999639E-1;3.103399992E0;-4.134500027E0
1.049013594E1;-2.241999954E-1;1.465799928E0;-3.104899883E0
1.050998750E1;-4.996999800E-1;-8.021999598E-1;-2.477799892E0
1.052984062E1;-1.881999969E-1;-2.057699919E0;-1.495700002E0
1.054969375E1;-4.190999866E-1;-2.180500031E0;-5.680000037E-2
1.056954531E1;-1.079599977E0;-1.397599936E0;-2.096000016E-1
1.058939844E1;-1.099799991E0;-8.053999543E-1;2.919999883E-2
1.060925156E1;-8.713999987E-1;-3.597999811E-1;4.360000044E-2
1.062910312E1;-3.554999828E-1;-5.756999850E-1;1.474999934E-1
1.064895625E1;6.887999773E-1;-1.784699917E0;5.311999917E-1
1.066880938E1;8.877999783E-1;-2.614300013E0;1.009299994E0
1.068866406E1;-7.019999623E-2;-2.429199934E0;9.218999743E-1
1.070851406E1;-9.009999633E-1;-1.856999993E0;6.455999613E-1
1.072836719E1;-9.194999933E-1;-1.455399990E0;9.481999874E-1
1.074821875E1;1.811999977E-1;-1.181499958E0;5.769000053E-1
1.076807188E1;9.391999841E-1;1.636999995E-1;-1.210899949E0
1.078792500E1;6.376999617E-1;7.540000081E-1;-1.610099912E0
1.080777812E1;9.449999928E-1;7.909999788E-2;-1.049299955E0
1.082762969E1;1.253799915E0;-1.178499937E0;-4.629999772E-2
1.084748281E1;9.434999824E-1;-2.267499924E0;8.774999976E-1
1.086733594E1;3.799999831E-3;-2.662999868E0;1.232200027E0
1.088718906E1;-5.924000144E-1;-2.089200020E0;9.157999754E-1
1.090704062E1;-5.619999766E-1;-9.959999919E-1;4.785999954E-1
1.092689375E1;2.630000003E-2;-2.867999971E-1;2.788999975E-1
1.094674688E1;4.977999926E-1;-1.206999943E-1;-1.200999990E-1
1.096660156E1;4.007000029E-1;-5.299000144E-1;-3.483999968E-1
1.098645156E1;2.444999963E-1;-5.058000088E-1;-5.148999691E-1
1.100630312E1;3.813000023E-1;-3.240999877E-1;-4.268999994E-1
1.102615625E1;5.166999698E-1;-2.687000036E-1;-1.747999936E-1
1.104600938E1;5.044999719E-1;-4.872999787E-1;2.135999948E-1
1.106586250E1;2.078000009E-1;-7.601000071E-1;4.416999817E-1
1.108571562E1;-1.049999986E-2;-9.131999612E-1;7.094999552E-1
1.110556719E1;1.533999890E-1;-7.378000021E-1;8.165999651E-1
1.112542031E1;1.116999984E-1;-2.879999876E-1;9.620999694E-1
1.114527188E1;1.876000017E-1;3.720000014E-2;9.199000001E-1
1.116512500E1;-1.009999961E-2;1.500999928E-1;6.068999767E-1
1.118497812E1;-1.486999989E-1;1.274999976E-1;5.636000037E-1
1.120482969E1;3.308999836E-1;-6.849999726E-2;8.050999641E-1
1.122468438E1;7.232999802E-1;-3.773999810E-1;1.206900001E0
1.124453594E1;5.486999750E-1;-8.754999638E-1;1.435999990E0
1.126438906E1;1.789999902E-1;-1.491400003E0;1.760100007E0
1.128424062E1;4.429999739E-2;-1.591799974E0;2.081199884E0
1.130409375E1;-7.893999815E-1;-8.712999821E-1;2.135200024E0
1.132394531E1;-1.543900013E0;-1.888999939E-1;1.738499999E0
1.134379844E1;-1.087800026E0;-1.759999990E-2;1.231899977E0
1.136365156E1;2.642000020E-1;2.403999865E-1;8.202999830E-1
1.138350312E1;1.686399937E0;6.979999542E-1;2.190000005E-2
1.140335625E1;1.872900009E0;1.199299932E0;-7.554999590E-1
1.142320938E1;6.119999662E-2;1.458599925E0;-1.172299981E0
1.144306094E1;-5.041999817E-1;1.601599932E0;-2.123100042E0
1.146291406E1;-1.351799965E0;7.105999589E-1;-1.719900012E0
1.148276719E1;-1.631199956E0;1.460999995E-1;-1.650099993E0
1.150262031E1;-9.846999645E-1;-3.522999883E-1;-1.372699976E0
1.152247188E1;8.639999479E-2;-7.786999941E-1;-5.892999768E-1
1.154232500E1;3.337999880E-1;-1.224499941E0;-4.095999897E-1
1.156217812E1;-1.218999997E-1;-1.261399984E0;-7.699999958E-2
1.158202969E1;-8.043999672E-1;-1.012300014E0;5.868999958E-1
1.160188281E1;-6.039999723E-1;-5.694000125E-1;1.014500022E0
1.162173594E1;-6.983000040E-1;-5.710999966E-1;7.660999894E-1
1.164158906E1;-1.523899913E0;-8.320999742E-1;8.650999665E-1
1.166144063E1;-1.242100000E0;-5.216000080E-1;1.383700013E0
1.168129375E1;-3.281999826E-1;-1.429999918E-1;1.835500002E0
1.170114688E1;-1.867999882E-1;5.749999732E-2;1.095199943E0
1.172099844E1;-1.314999908E-1;-9.439999610E-2;7.932999730E-1
1.174085156E1;4.296000004E-1;-3.102999926E-1;6.567999721E-1
1.176070469E1;3.085999787E-1;-1.163999960E-1;1.186999977E-1
1.178055781E1;-3.382999897E-1;1.543999910E-1;7.769999653E-2
1.180040938E1;1.576000005E-1;1.274999976E-1;5.295999646E-1
1.182026250E1;1.439899921E0;2.443999946E-1;9.039999843E-1
1.184011406E1;9.954999685E-1;2.913999856E-1;8.021000028E-1
1.185996719E1;5.070999861E-1;3.231000006E-1;4.879999757E-1
1.187982031E1;1.388799906E0;4.259999990E-1;1.781999916E-1
1.189967344E1;2.307899952E0;1.549999975E-2;1.532000005E-1
1.191952500E1;2.660799980E0;-8.276999593E-1;4.505999982E-1
1.193937813E1;1.907399893E0;-1.266899943E0;1.033200026E0
1.195923125E1;6.416000128E-1;-1.359499931E0;1.500599980E0
1.197908281E1;1.870999932E-1;-1.288499951E0;1.540599942E0
1.199893594E1;7.509999722E-2;-1.291599989E0;1.358399987E0
1.201878906E1;-1.533000022E-1;-1.046399951E0;1.337999940E0
1.203864219E1;-7.750000060E-2;-6.936999559E-1;1.199000001E0
1.205849375E1;3.398000002E-1;-3.881999850E-1;1.050699949E0
1.207834688E1;1.258799911E0;-4.987999797E-1;8.653999567E-1
1.209820000E1;2.445799828E0;-2.724999785E-1;8.162999749E-1
1.211805156E1;2.725600004E0;3.033999801E-1;7.372999787E-1
1.213790469E1;2.710599899E0;5.845000148E-1;4.338999987E-1
1.215775781E1;1.898000002E0;1.590600014E0;-7.602999806E-1
1.217760938E1;-4.134999812E-1;2.621099949E0;-4.983099937E0
1.219746250E1;-5.209000111E-1;3.858299971E0;-9.776999474E0
1.221731563E1;2.662299871E0;4.889299870E0;-7.936499596E0
1.223716719E1;1.784899950E0;3.258699894E0;-2.337299824E0
1.225702031E1;6.640999913E-1;6.518999934E-1;-7.609999925E-2
1.227687344E1;7.869999856E-2;-1.402400017E0;-2.307999879E-1
1.229672500E1;2.714000046E-1;-1.535599947E0;-1.852800012E0
1.231657813E1;4.221999943E-1;-2.960000001E-2;-3.497799873E0
1.233643125E1;3.071999848E-1;1.151499987E0;-4.066199780E0
1.235628438E1;4.529999942E-2;9.633999467E-1;-3.694000006E0
1.237613750E1;-9.739999473E-2;2.339999974E-1;-2.593499899E0
1.239598906E1;1.546999961E-1;4.400999844E-1;-2.290899992E0
1.241584219E1;3.278999925E-1;8.445000052E-1;-2.737699986E0
1.243569375E1;1.388999969E-1;8.773999810E-1;-3.197000027E0
1.245554688E1;1.149000004E-1;5.870000124E-1;-2.883199930E0
1.247539844E1;6.119999662E-2;6.369999796E-2;-2.091099977E0
1.249525313E1;-3.238999844E-1;-3.050000072E-1;-1.644699931E0
1.251510469E1;2.635000050E-1;3.037000000E-1;-1.415199995E0
1.253495781E1;5.723999739E-1;1.493299961E0;-1.673299909E0
1.255481094E1;4.179999977E-2;1.648099899E0;-1.572499990E0
1.257466406E1;3.127000034E-1;1.214399934E0;-9.211999774E-1
1.259451406E1;-1.721999943E-1;-3.393999934E-1;-1.425999999E-1
1.261436875E1;-7.197999954E-1;-2.072799921E0;3.335999846E-1
1.263422188E1;-9.713999629E-1;-2.844899893E0;7.806999683E-1
1.265407344E1;-1.279199958E0;-3.196399927E0;1.554799914E0
1.267392500E1;-8.064999580E-1;-2.887099981E0;2.253000021E0
1.269377813E1;3.458999991E-1;-2.155900002E0;2.053799868E0
1.271363125E1;1.327899933E0;-1.126500010E0;1.035899997E0
1.273348281E1;1.809599996E0;-3.993999958E-1;-5.034999847E-1
1.275333750E1;2.009700060E0;-1.807999909E-1;-1.944599986E0
1.277318906E1;1.102399945E0;-9.530999660E-1;-2.254499912E0
1.279304219E1;2.031999975E-1;-1.121799946E0;-1.891699910E0
1.281289375E1;-4.384999871E-1;-1.160999984E-1;-1.490700006E0
1.283274844E1;-1.171599984E0;6.097999811E-1;-5.880999565E-1
1.285260000E1;-9.702999592E-1;1.052399993E0;1.365000010E-1
1.287245156E1;-5.029000044E-1;9.629999995E-1;-5.819999799E-2
1.289230469E1;-3.238999844E-1;4.068000019E-1;-8.309999853E-2
1.291215781E1;-2.187999934E-1;3.680000082E-2;-3.765999973E-1
1.293201094E1;-6.301999688E-1;-5.199999735E-2;-1.309399962E0
1.295186406E1;-5.277000070E-1;3.048999906E-1;-2.455699921E0
1.297171563E1;-5.504999757E-1;7.242000103E-1;-3.401599884E0
1.299156875E1;-5.680000037E-2;1.437099934E0;-3.924499989E0
1.301142031E1;9.888999462E-1;8.569999784E-2;-3.211400032E0
1.303127344E1;1.999499917E0;-2.434599876E0;-2.823299885E0
1.305112656E1;4.070199966E0;-4.745999813E0;-3.309599876E0
1.307097813E1;4.382999897E0;-2.931200027E0;-1.377399921E0
1.309083125E1;-8.317999840E-1;2.999999821E-1;-3.168999851E-1
1.311068438E1;-2.066599846E0;2.146199942E0;9.681999683E-1
1.313053750E1;9.128999710E-1;2.170399904E0;1.508899927E0
1.315038906E1;3.244499922E0;1.478599906E0;1.348799944E0
1.317024219E1;2.364799976E0;5.083000064E-1;2.252300024E0
1.319009531E1;-6.093999743E-1;6.239999831E-2;4.480199814E0
1.320994688E1;-2.053799868E0;-3.939999938E-1;4.654799938E0
1.322980000E1;-1.921199918E0;-8.326999545E-1;3.134799957E0
1.324965312E1;-6.635999680E-1;-1.007099986E0;1.958899975E0
1.326950469E1;6.130999923E-1;-8.845999837E-1;9.175999761E-1
1.328935781E1;6.401000023E-1;-5.202000141E-1;3.350000083E-2
1.330921094E1;-1.870999932E-1;-1.312000006E-1;-2.545000017E-1
1.332906406E1;-9.651999474E-1;6.255999804E-1;8.269999921E-2
1.334892188E1;-7.181000113E-1;1.301100016E0;3.260999918E-1
1.336876875E1;-3.953999877E-1;1.489399910E0;2.184000015E-1
1.338862188E1;-4.341000021E-1;1.294499993E0;3.111000061E-1
1.340847344E1;-5.938000083E-1;8.027999997E-1;8.599999547E-1
1.342832656E1;-8.624999523E-1;3.206999898E-1;1.313799977E0
1.344817969E1;-7.754999995E-1;7.169999927E-2;1.631799936E0
1.346803281E1;-5.760999918E-1;-1.400000006E-1;1.557299972E0
1.348788438E1;-6.683999896E-1;-2.202999890E-1;1.271099925E0
1.350773750E1;-5.277000070E-1;-3.795999885E-1;1.156000018E0
1.352758906E1;4.262999892E-1;-3.984999955E-1;1.394999981E0
1.354744219E1;3.998999894E-1;-3.524999917E-1;1.090700030E0
1.356729531E1;-3.309999779E-2;-9.099999815E-2;1.066799998E0
1.358714844E1;-5.489999801E-2;2.543999851E-1;9.501999617E-1
1.360700000E1;1.542999893E-1;4.922999740E-1;6.760999560E-1
1.362685312E1;3.384999931E-1;5.346999764E-1;5.554000139E-1
1.364670625E1;8.980000019E-2;5.497999787E-1;7.853999734E-1
1.366655781E1;-1.899999976E-1;4.387999773E-1;9.851999879E-1
1.368640938E1;-4.679999873E-2;-3.700000001E-3;8.534999490E-1
1.370626250E1;1.187999994E-1;-5.389999747E-1;1.577000022E-1
1.372611719E1;-6.780000031E-2;-9.610999823E-1;-2.418999970E-1
1.374596875E1;2.113999873E-1;-9.560999870E-1;-5.609999895E-1
1.376582188E1;7.921999693E-1;-7.881000042E-1;-9.090999961E-1
1.378567344E1;1.417999983E0;-8.240000159E-2;-9.822999835E-1
1.380552656E1;1.596199989E0;8.967999816E-1;-8.427999616E-1
1.382537812E1;6.420999765E-1;1.183399916E0;-2.414999902E-1
1.384523125E1;-7.265999913E-1;1.089900017E0;3.301999867E-1
1.386508594E1;-8.780999780E-1;1.046999931E0;3.246999979E-1
1.388493750E1;1.106999964E-1;1.346400023E0;3.427999914E-1
1.390479062E1;6.610999703E-1;1.442399979E0;7.299999595E-1
1.392464219E1;7.674999833E-1;3.222000003E-1;-7.949999571E-1
1.394449531E1;6.667000055E-1;-1.037299991E0;-1.550999999E0
1.396434844E1;8.047999740E-1;-1.523000002E0;-1.673799992E0
1.398420000E1;5.394999981E-1;-1.401199937E0;-1.248700023E0
1.400405312E1;4.869999737E-2;-8.197999597E-1;-3.082000017E-1
1.402390625E1;-3.428999782E-1;-1.697999984E-1;6.577999592E-1
1.404375938E1;-5.242999792E-1;3.630000055E-1;1.425799966E0
1.406361094E1;-5.347999930E-1;4.632999897E-1;2.174399853E0
1.408346406E1;-6.517999768E-1;5.920999646E-1;2.535799980E0
1.410331719E1;-9.747999907E-1;7.389000058E-1;2.958600044E0
1.412316875E1;-7.960000038E-1;8.908999562E-1;2.913599968E0
1.414302188E1;-6.013999581E-1;1.026899934E0;2.052599907E0
1.416287500E1;-6.402999759E-1;8.589999676E-1;1.191299915E0
1.418272656E1;-5.530999899E-1;8.308999538E-1;9.554999471E-1
1.420257969E1;-2.502000034E-1;6.327999830E-1;8.878999949E-1
1.422243125E1;1.299999934E-2;5.254999995E-1;9.226999879E-1
1.424228438E1;-4.991999865E-1;3.551999927E-1;1.166999936E0
1.426213750E1;-1.109799981E0;4.398999810E-1;1.567999959E0
1.428199062E1;-1.083199978E0;6.635000110E-1;1.843699932E0
1.430184219E1;-2.131999880E-1;9.325999618E-1;2.052099943E0
1.432169531E1;2.467999905E-1;1.091899991E0;1.898000002E0
1.434154844E1;-8.889999986E-2;7.696999907E-1;1.783399940E0
1.436140000E1;-1.801999956E-1;2.062999904E-1;1.496599913E0
1.438125312E1;2.761999965E-1;-6.340000033E-2;1.180099964E0
1.440110625E1;1.308799982E0;-3.199999779E-2;9.775999784E-1
1.442095781E1;1.664099932E0;-3.630000055E-1;3.209999800E-1
1.444081094E1;1.857199907E0;-9.709999561E-1;-4.655999839E-1
1.446066406E1;2.712399960E0;-1.264299989E0;-1.221899986E0
1.448051719E1;3.182600021E0;-1.512199998E0;-2.226599932E0
1.450036875E1;2.871899843E0;-1.867899895E0;-3.230899811E0
1.452022188E1;2.885299921E0;-1.342399955E0;-3.326200008E0
1.454007500E1;3.638499975E0;-4.444999993E-1;-2.433399916E0
1.455992656E1;3.241099834E0;-9.599999785E-1;-2.513399839E0
1.457977969E1;1.494099975E0;-8.482999802E-1;-2.223500013E0
1.459963281E1;-4.013999999E-1;-1.511999965E-1;-1.592899919E0
1.461949063E1;-1.757900000E0;2.465999871E-1;-1.182699919E0
1.463933750E1;-2.093099833E0;7.639999688E-2;-1.240000010E0
1.465919062E1;-2.044499874E0;-3.005999923E-1;-1.699499965E0
1.467904375E1;-2.074300051E0;-4.894999862E-1;-1.743999958E0
1.469889531E1;-2.046099901E0;-6.316999793E-1;-1.428599954E0
1.471874844E1;-1.998299956E0;-1.076999977E-1;-8.643999696E-1
1.473860156E1;-1.585999966E0;3.539999947E-2;-8.819999695E-1
1.475845312E1;-3.483999968E-1;-3.281999826E-1;-9.871999621E-1
1.477830625E1;6.624999642E-1;-6.601999998E-1;-7.917999625E-1
1.479815938E1;7.397999763E-1;-9.147999883E-1;-2.365999967E-1
1.481801250E1;2.089999914E-1;-1.093199968E0;-1.329999976E-2
1.483786406E1;-3.629999980E-2;-1.024299979E0;-2.819999866E-2
1.485771719E1;6.239999831E-2;-1.067199945E0;-3.000000026E-3
1.487757031E1;4.756999910E-1;-7.046999931E-1;-1.618999988E-1
1.489742188E1;8.410000056E-2;-3.019999862E-1;-1.399999950E-2
1.491727500E1;2.403999865E-1;-3.376999795E-1;9.657999873E-1
1.493712813E1;7.906999588E-1;-1.394400001E0;1.753099918E0
1.495697969E1;8.738999963E-1;-2.033599854E0;1.441999912E0
1.497683281E1;6.329999864E-2;-1.537699938E0;7.264999747E-1
1.499668594E1;-7.999999821E-2;-6.184999943E-1;-6.506999731E-1
1.501653750E1;-5.225999951E-1;-2.116999924E-1;-1.985399961E0
1.503639063E1;-7.371999621E-1;-5.647000074E-1;-2.306999922E0
1.505624375E1;-1.044299960E0;-9.971999526E-1;-2.024299860E0
1.507609531E1;-1.225199938E0;-1.037799954E0;-1.594399929E0
1.509594844E1;-1.908100009E0;-1.272400022E0;-3.964999914E-1
1.511580156E1;-2.601899862E0;-1.344900012E0;7.412999868E-1
1.513565469E1;-3.253199816E0;-1.578999996E0;1.195899963E0
1.515550625E1;-3.261399984E0;-1.429899931E0;1.110499978E0
1.517535938E1;-1.494300008E0;-1.255599976E0;3.208999932E-1
1.519521250E1;7.261999846E-1;-1.526600003E0;-4.946999848E-1
1.521506563E1;1.409699917E0;-2.218099833E0;-1.107100010E0
1.523491719E1;1.368499994E0;-2.562799931E0;-9.179999828E-1
1.525476875E1;5.432999730E-1;-2.252899885E0;-2.575999796E-1
1.527462188E1;2.453999966E-1;-5.873999596E-1;3.471999764E-1
1.529447656E1;3.579999879E-2;3.064000010E-1;6.046000123E-1
1.531432813E1;-5.392000079E-1;2.912999988E-1;6.457999945E-1
1.533418125E1;-9.441999793E-1;-1.964999884E-1;-7.580000162E-2
1.535403438E1;-3.726999760E-1;-1.106199980E0;-7.163999677E-1
1.537388594E1;1.975999922E-1;-1.795699954E0;-6.924999952E-1
1.539373906E1;4.687999785E-1;-1.766499996E0;-4.126999974E-1
1.541359219E1;7.328000069E-1;-1.893099904E0;-4.432999790E-1
1.543344375E1;1.098600030E0;-2.366299868E0;-5.780000091E-1
1.545329688E1;9.909999967E-1;-2.386299849E0;-7.128999829E-1
1.547314844E1;6.098999977E-1;-2.336999893E0;-1.169700027E0
1.549300156E1;1.031000018E0;-2.597300053E0;-7.802000046E-1
1.551285469E1;1.271700025E0;-3.376099825E0;-7.681999803E-1
1.553270625E1;1.252699971E0;-3.683899879E0;-5.011999607E-1
1.555255938E1;9.664999843E-1;-3.250499964E0;2.057999969E-1
1.557241406E1;5.776000023E-1;-3.569599867E0;1.232800007E0
1.559226406E1;3.078599930E0;-1.574999928E0;2.809900045E0
1.561211719E1;4.713699818E0;-4.743999839E-1;1.176699996E0
1.563197031E1;3.017299891E0;2.181999981E-1;-1.933599949E0
1.565182188E1;1.230199933E0;2.050999880E0;-2.709899902E0
1.567167500E1;6.855999827E-1;3.014999866E0;-1.579699993E0
1.569152813E1;3.431900024E0;4.061500072E0;-8.930000067E-1
1.571138125E1;2.798099995E0;4.152899742E0;-2.613299847E0
1.573123438E1;-1.005999967E-1;3.513299942E0;-2.209800005E0
1.575108594E1;6.516999602E-1;2.065999985E0;-1.193300009E0
1.577093906E1;2.871599913E0;2.613999844E0;-6.183999777E-1
1.579079063E1;3.250499964E0;3.420099974E0;1.516999900E-1
1.581064375E1;2.819200039E0;3.735999823E0;1.071599960E0
1.583049688E1;1.334800005E0;3.845399857E0;2.429299831E0
1.585034844E1;-4.649999738E-1;3.899899960E0;1.563599944E0
1.587020156E1;-1.202999949E0;3.605899811E0;-3.154999912E-1
1.589005469E1;-2.433599949E0;2.067299843E0;-1.884099960E0
1.590990625E1;-3.026700020E0;7.620999813E-1;-2.342599869E0
1.592975938E1;-2.870800018E0;-5.810000002E-2;-2.185600042E0
1.594961250E1;-2.409699917E0;-2.987999916E-1;-1.770200014E0
1.596946563E1;-2.205100060E0;-1.590999961E-1;-1.556299925E0
1.598931719E1;-1.913800001E0;3.574000001E-1;-1.479599953E0
1.600917031E1;-1.338400006E0;4.538999796E-1;-1.055199981E0
1.602902344E1;-7.023999691E-1;-2.116999924E-1;-7.902999520E-1
1.604887500E1;-5.144999623E-1;-7.364999652E-1;-5.679999590E-1
1.606872812E1;-8.633999825E-1;-9.706999660E-1;-2.308999896E-1
1.608858125E1;-5.860999823E-1;-6.273999810E-1;5.324999690E-1
1.610843438E1;-3.131999969E-1;-3.475999832E-1;9.996999502E-1
1.612828594E1;-3.700000001E-3;1.114699960E0;6.566999555E-1
1.614813750E1;1.963899970E0;1.951399922E0;6.116999984E-1
1.616799219E1;3.595199823E0;1.999599934E0;2.908000052E-1
1.618784375E1;2.279899836E0;8.779000044E-1;-4.483999908E-1
1.620769688E1;-7.077999711E-1;-6.965999603E-1;-6.882999539E-1
1.622755000E1;-1.566100001E0;-9.287999868E-1;4.765999913E-1
1.624740156E1;-1.711899996E0;3.819999844E-2;1.213099957E0
1.626725469E1;-1.444399953E0;1.391499996E0;1.413399935E0
1.628710781E1;-3.480999768E-1;2.281899929E0;1.102200031E0
1.630695938E1;7.134999633E-1;2.751999855E0;3.856999874E-1
1.632681250E1;9.639999866E-1;2.383800030E0;-5.471999645E-1
1.634666562E1;5.782999992E-1;1.450699925E0;-1.629799962E0
1.636651875E1;3.580999970E-1;3.396999836E-1;-1.842999935E0
1.638637031E1;3.638999760E-1;-2.538999915E-1;-1.269899964E0
1.640622344E1;2.213999927E-1;-5.598999858E-1;-5.157999992E-1
1.642607500E1;1.738999933E-1;-6.295999885E-1;3.353999853E-1
1.644592813E1;-1.105999947E-1;-2.030999959E-1;8.500999808E-1
1.646578125E1;2.636999786E-1;5.507000089E-1;6.811999679E-1
1.648563438E1;2.694000006E-1;8.959999681E-1;-9.309999645E-2
1.650548594E1;-5.799999926E-3;9.892999530E-1;-7.536999583E-1
1.652533906E1;-1.539999992E-2;1.117599964E0;-1.123499990E0
1.654519219E1;-4.588999748E-1;9.740999937E-1;-1.241799951E0
1.656504375E1;-2.023200035E0;4.069999754E-1;-1.154999971E0
1.658489688E1;-3.130599976E0;-5.475000143E-1;-9.726999998E-1
1.660475000E1;-1.429000020E0;-7.512999773E-1;-6.247999668E-1
1.662460312E1;6.976999640E-1;-8.862999678E-1;-1.479699969E0
1.664445469E1;2.587699890E0;-7.103999853E-1;-1.463999897E-1
1.666430625E1;2.687199831E0;3.380999863E-1;-1.156999946E0
1.668415938E1;2.485199928E0;-6.780999899E-1;-4.586100101E0
1.670401250E1;9.857999682E-1;-2.310699940E0;-3.668900013E0
1.672386563E1;-4.482999742E-1;-2.247099876E0;-3.137599945E0
1.674371875E1;-2.338399887E0;-1.801999956E-1;-1.032999992E0
1.676357031E1;-4.240200043E0;8.853999972E-1;-1.806000024E-1
1.678342344E1;-4.939099789E0;3.517999947E-1;-1.197999939E-1
1.680327500E1;-3.341399908E0;-2.479999959E-1;-1.379999965E-1
1.682312812E1;-1.643799901E0;-7.505999804E-1;-1.152499914E0
1.684298906E1;3.091000021E-1;-1.485700011E0;-2.248699903E0
1.686283281E1;6.232999563E-1;-2.030400038E0;-1.887899995E0
1.688268750E1;1.004799962E0;-1.893099904E0;-1.545699954E0
1.690253906E1;1.631299973E0;-1.499199986E0;-2.342999935E0
1.692239219E1;1.747599959E0;-1.125299931E0;-2.626499891E0
1.694224531E1;1.532799959E0;-5.819999799E-2;-1.520499945E0
1.696209688E1;9.502999783E-1;3.446999788E-1;-1.164399981E0
1.698195000E1;5.482999682E-1;-8.904999495E-1;-1.007499933E0
1.700180313E1;9.670999646E-1;-9.695999622E-1;-1.414099932E0
1.702165469E1;1.719900012E0;-8.223999739E-1;-1.884699941E0
1.704150781E1;3.578699827E0;-2.763499975E0;-1.947799921E0
1.706135938E1;4.326499939E0;-4.159999847E0;-3.454599857E0
1.708121250E1;4.700900078E0;-3.190500021E0;-2.252799988E0
1.710106562E1;3.018699884E0;-1.164099932E0;-4.529999942E-2
1.712091875E1;-9.759999812E-2;1.512300014E0;-1.060899973E0
1.714077031E1;-3.774999976E-1;3.075500011E0;-4.595999718E0
1.716062344E1;1.228299975E0;1.998499990E0;-4.598700047E0
1.718047656E1;2.507900000E0;9.131000042E-1;-9.114999771E-1
1.720032813E1;2.055000067E0;-1.464200020E0;7.874999642E-1
1.722018125E1;2.325099945E0;-2.719599962E0;1.316799998E0
1.724003438E1;1.481599927E0;-5.339999795E-1;2.736799955E0
1.725988594E1;-4.450999796E-1;1.381600022E0;2.839799881E0
1.727973906E1;-7.272999883E-1;2.699499846E0;2.862499952E0
1.729959219E1;4.393000007E-1;3.241499901E0;2.971199989E0
1.731944531E1;9.935999513E-1;3.290599823E0;3.507599831E0
1.733929688E1;1.720299959E0;3.157799959E0;3.301100016E0
1.735915000E1;8.199999928E-1;1.641399980E0;2.770400047E0
1.737900469E1;-1.105000004E-1;4.520999789E-1;2.224499941E0
1.739885469E1;-6.979999542E-1;-3.714999855E-1;1.864299893E0
1.741870781E1;-1.020200014E0;-3.862999976E-1;1.710399985E0
1.743856094E1;-1.449299932E0;-1.296999902E-1;1.372399926E0
1.745841406E1;-1.906599998E0;1.517999917E-1;1.085899949E0
1.747826563E1;-2.128799915E0;5.607999563E-1;9.687999487E-1
1.749811875E1;-2.077299833E0;5.220000148E-1;6.915999651E-1
1.751797031E1;-2.213599920E0;7.739999890E-1;3.159999847E-1
1.753782344E1;-2.390300035E0;8.500999808E-1;-1.171999946E-1
1.755767500E1;-2.343299866E0;1.263599992E0;-2.419999987E-2
1.757752812E1;-1.826099992E0;1.824199915E0;5.156999826E-1
1.759738281E1;-1.797899961E0;2.357399940E0;1.232999921E0
1.761723438E1;-1.003399968E0;1.148999929E0;7.990999818E-1
1.763708750E1;5.773999691E-1;5.896999836E-1;-2.773000002E-1
1.765694062E1;1.169000030E0;1.675699949E0;1.003600001E0
1.767679219E1;5.319999903E-2;1.894599915E0;1.988499999E0
1.769664531E1;-2.426599979E0;1.332499981E0;1.896899939E0
1.771649688E1;-4.308099747E0;1.090299964E0;2.257699966E0
1.773634844E1;-5.020799637E0;7.877999544E-1;2.608700037E0
1.775620313E1;-4.426399708E0;5.849999934E-2;1.969899893E0
1.777605625E1;-2.451599836E0;-6.374999881E-1;-3.199999919E-3
1.779590781E1;-7.202000022E-1;-3.704999983E-1;-1.386299968E0
1.781576094E1;-3.434000015E-1;6.273999810E-1;-2.562700033E0
1.783561406E1;-6.520000100E-2;2.885999918E0;-2.809799910E0
1.785546719E1;-7.052999735E-1;4.336899757E0;-3.273000002E0
1.787531875E1;-5.794000030E-1;5.196399689E0;-2.964999914E0
1.789517188E1;2.319799900E0;5.186699867E0;-2.378799915E0
1.791502500E1;4.376399994E0;5.017699718E0;7.899000049E-1
1.793487656E1;4.434199810E0;4.578999996E0;3.922799826E0
1.795472969E1;2.362200022E0;3.261299849E0;3.644999981E0
1.797458281E1;2.992599964E0;2.973999977E0;2.951999903E0
1.799443438E1;4.123300076E0;3.682799816E0;1.786799908E0
1.801428750E1;3.983799934E0;3.769599915E0;5.248000026E-1
1.803414063E1;3.818799973E0;2.978999853E0;-7.458999753E-1
1.805399219E1;4.592599869E0;3.077299833E0;-1.367599964E0
1.807384375E1;4.764400005E0;2.821899891E0;-9.851999879E-1
1.809369688E1;5.187099934E0;2.952800035E0;-1.019899964E0
1.811355000E1;5.789799690E0;5.035899639E0;-5.564999580E-1
1.813340312E1;3.537199974E0;6.710899830E0;7.171999812E-1
1.815325469E1;4.296000004E-1;5.531799793E0;8.384999633E-1
1.817310781E1;7.511000037E-1;9.585999846E-1;4.763000011E-1
1.819296094E1;2.028199911E0;-3.042299986E0;7.520999908E-1
1.821281250E1;1.819299936E0;-5.311399937E0;1.396299958E0
1.823266563E1;-9.408999681E-1;-6.147399902E0;2.114799976E0
1.825251875E1;-2.638599873E0;-5.434499741E0;1.501399994E0
1.827237188E1;-3.915899992E0;-8.519599915E0;6.250000000E-2
1.829222344E1;-6.319999695E-2;-7.025899887E0;-3.457999825E-1
1.831207656E1;1.690999985E0;-6.044399738E0;-2.132799864E0
1.833192969E1;1.337399960E0;-3.609299898E0;-3.961599827E0
1.835178125E1;-7.319999933E-1;-1.334200025E0;-3.343499899E0
1.837163438E1;-1.985999942E0;6.480000168E-2;-1.652699947E0
1.839148750E1;-2.390799999E0;-9.592999816E-1;5.303999782E-1
1.841133906E1;-1.277699947E0;-2.340100050E0;1.163800001E0
1.843119219E1;-1.629400015E0;-2.444399834E0;9.853000045E-1
1.845104531E1;-2.047999859E0;-1.363999963E0;2.789999843E-1
1.847089844E1;-2.493000031E0;-5.493000150E-1;6.660000086E-1
1.849075000E1;-2.609699965E0;-4.728999734E-1;5.291999578E-1
1.851060312E1;-2.541100025E0;-8.619999886E-1;7.860999703E-1
1.853045625E1;-3.188699961E0;-1.715399981E0;1.188599944E0
1.855030781E1;-4.023099899E0;-2.285099983E0;1.049999952E0
1.857016094E1;-4.260299683E0;-2.431399822E0;7.497999668E-1
1.859001406E1;-3.185599804E0;-2.007099867E0;6.811000109E-1
1.860986719E1;-9.824999571E-1;-2.165099859E0;5.935999751E-1
1.862971875E1;1.748199940E0;-1.717999935E0;-5.823000073E-1
1.864957188E1;2.712599993E0;-9.825999737E-1;-1.385499954E0
1.866942344E1;3.558399916E0;-6.660999656E-1;-1.215600014E0
1.868927656E1;2.786000013E0;-4.779999703E-2;-1.118299961E0
1.870912969E1;-7.154999971E-1;-5.361999869E-1;-2.902999818E-1
1.872898281E1;-1.816499949E0;-1.214999914E0;9.589999914E-1
1.874883438E1;1.023800015E0;-1.635399938E0;1.502699971E0
1.876868750E1;4.783899784E0;-1.806299925E0;1.330999970E0
1.878854062E1;8.810400009E0;-9.726999998E-1;6.180999875E-1
1.880839375E1;4.514800072E0;-6.369000077E-1;-8.563999534E-1
1.882824531E1;-1.545599937E0;-1.473199964E0;4.505999982E-1
1.884809844E1;-2.789999962E0;-1.560400009E0;1.098199964E0
1.886795156E1;-1.628899932E0;-1.632799983E0;1.495299935E0
1.888780312E1;1.684999913E-1;-1.628799915E0;1.670499921E0
1.890765625E1;1.034699917E0;-7.258999944E-1;1.511999965E0
1.892750938E1;-9.032999873E-1;-3.289999813E-2;2.283699989E0
1.894736094E1;-3.875599861E0;-7.231999636E-1;1.687099934E0
1.896721406E1;-3.922099829E0;-1.258099914E0;-6.688999534E-1
1.898706719E1;-1.324399948E0;-1.185099959E0;-1.467399955E0
1.900691875E1;2.502399921E0;-1.001999974E-1;-5.378999710E-1
1.902677188E1;2.633199930E0;2.703000009E-1;-1.049199939E0
1.904662500E1;-2.078999877E-1;-5.099999718E-3;-5.888000131E-1
1.906647812E1;-2.589599848E0;-3.820999861E-1;1.669999957E-1
1.908632969E1;-2.462499857E0;4.232999980E-1;1.017099977E0
1.910618281E1;-1.200500011E0;1.489599943E0;1.704899907E0
1.912603594E1;-2.486999929E-1;1.985799909E0;9.819999933E-1
1.914588750E1;-7.748000026E-1;1.901299953E0;-7.677999735E-1
1.916574062E1;-2.430899858E0;1.014199972E0;-5.970000029E-1
1.918559375E1;-2.087300062E0;4.822999835E-1;-3.698999882E-1
1.920544688E1;-3.648999929E-1;6.266999841E-1;-5.511999726E-1
1.922529688E1;1.406599998E0;1.239899993E0;1.043300033E0
1.924515000E1;1.172500014E0;1.295400023E0;2.476599932E0
1.926500469E1;2.768000066E-1;7.479000092E-1;2.808300018E0
1.928485625E1;-3.799999831E-3;-1.708000004E-1;2.420399904E0
1.930470938E1;2.048999965E-1;-5.783999562E-1;1.469499946E0
1.932456250E1;4.754000008E-1;2.449999936E-2;1.681399941E0
1.934441406E1;1.316999942E-1;6.231999993E-1;1.154999971E0
1.936426719E1;5.920999646E-1;2.584999800E-1;3.341999948E-1
1.938412031E1;2.730199814E0;-1.600999981E-1;-6.617999673E-1
1.940397188E1;3.006599903E0;1.080699921E0;-1.572699904E0
1.942382500E1;2.108899832E0;1.094999984E-1;1.013100028E0
1.944367812E1;3.050099850E0;-1.218500018E0;2.761199951E0
1.946352969E1;4.739699841E0;3.285999894E-1;4.114099979E0
1.948338281E1;5.658899784E0;1.287999898E-1;5.015199661E0
1.950323594E1;5.988999844E0;-2.032999992E0;6.018899918E0
1.952308750E1;5.529699802E0;-1.923599958E0;7.107800007E0
1.954294062E1;4.073699951E0;-5.045999885E-1;5.309999943E0
1.956279219E1;2.913899899E0;1.325299978E0;3.507599831E0
1.958264531E1;9.107999802E-1;5.629000068E-1;5.888999701E-1
1.960249844E1;2.499999944E-3;-1.350499988E0;-2.551300049E0
1.962235156E1;4.820000008E-2;-3.713799953E0;-3.475499868E0
1.964220312E1;1.669399977E0;-5.217000008E0;-2.907699823E0
1.966205625E1;1.836599946E0;-5.620299816E0;-4.585499763E0
1.968190938E1;-6.173999906E-1;-4.018499851E0;-7.527199745E0
1.970176094E1;-2.353600025E0;-6.650000066E-2;-8.222599983E0
1.972161406E1;-3.006799936E0;2.537799835E0;-7.124899864E0
1.974146719E1;-2.417799950E0;3.009399891E0;-2.872200012E0
1.976132031E1;-2.533599854E0;1.882900000E0;-1.191999912E0
1.978117188E1;-2.497099876E0;-1.375999898E-1;-9.060999751E-1
1.980102500E1;-1.642199993E0;-1.586099982E0;-4.161999822E-1
1.982087812E1;-1.144599915E0;-2.348599911E0;-1.506000012E-1
1.984072969E1;-1.678900003E0;-2.553499937E0;-3.454000056E-1
1.986058281E1;-3.023699999E0;-2.417799950E0;-8.206999898E-1
1.988043594E1;-3.900099993E0;-2.094699860E0;-6.755999923E-1
1.990028750E1;-3.836699963E0;-1.712999940E0;4.270000011E-2
1.992014063E1;-3.611399889E0;-1.565799952E0;2.595999837E-1
1.993999375E1;-3.222599983E0;-1.698799968E0;-1.282999963E-1
1.995984688E1;-2.567600012E0;-1.690299988E0;-3.349999785E-1
1.997969844E1;-1.074699998E0;-1.162999988E0;-1.618999988E-1
1.999955156E1;8.585000038E-1;-1.281999946E0;4.199000001E-1
2.001940469E1;1.121299982E0;-2.376799822E0;7.691999674E-1
2.003925625E1;3.319999874E-1;-3.640599966E0;1.295699954E0
2.005910938E1;-5.518999696E-1;-4.342899799E0;1.643700004E0
2.007896250E1;-2.985000014E-1;-4.619699955E0;1.782599926E0
2.009881406E1;1.346199989E0;-4.200599670E0;1.410099983E0
2.011866719E1;-6.805999875E-1;-4.147900105E0;7.681999803E-1
2.013852031E1;-3.932199955E0;-2.254600048E0;1.259000003E-1
2.015837344E1;-4.659599781E0;1.274799943E0;-9.003999829E-1
2.017822500E1;-3.475299835E0;2.760299921E0;-6.658799648E0
2.019807656E1;8.151999712E-1;1.438199997E0;-7.771499634E0
2.021793125E1;4.120299816E0;-5.514999628E-1;-6.723599911E0
2.023778281E1;1.648599982E0;1.136000007E-1;-4.770299911E0
2.025763594E1;-2.422999889E-1;1.639999896E-1;-2.479799986E0
2.027748906E1;1.088500023E0;-1.254299998E0;-7.465999722E-1
2.029734062E1;3.026499987E0;-3.542599916E0;-8.039999604E-1
2.031719219E1;4.258500099E0;-4.955899715E0;-6.096000075E-1
2.033704688E1;3.528299809E0;-4.632400036E0;-6.394999623E-1
2.035690000E1;2.817600012E0;-4.165999889E0;5.279999971E-1
2.037675156E1;4.342799664E0;-3.711399794E0;3.227999806E-1
2.039660469E1;5.449800014E0;-4.042599678E0;-8.726999760E-1
2.041645781E1;7.479799747E0;-3.249599934E0;4.672999978E-1
2.043630938E1;9.731800079E0;-2.564299822E0;2.564100027E0
2.045616250E1;8.368000031E0;-4.329499722E0;9.077000022E-1
2.047601563E1;5.627099991E0;-2.334499836E0;-1.799699903E0
2.049586719E1;2.525300026E0;1.143899918E0;-5.054500103E0
2.051572031E1;4.784999788E-1;4.431900024E0;-3.862299919E0
2.053557344E1;4.400999844E-1;5.473700047E0;2.576999962E-1
2.055542656E1;-2.084499836E0;4.057199955E0;3.247299910E0
2.057527812E1;-4.789499760E0;3.738099813E0;4.219999790E0
2.059513125E1;-4.534399986E0;4.021299839E0;1.954800010E0
2.061498281E1;-4.463799953E0;4.306699753E0;1.312699914E0
2.063483594E1;-2.589499950E0;4.308499813E0;4.048500061E0
2.065468906E1;-7.053999901E-1;3.423699856E0;2.870999813E0
2.067454219E1;-1.135900021E0;2.273799896E0;-3.513000011E-1
2.069439375E1;-1.639400005E0;1.431699991E0;-2.742300034E0
2.071424688E1;-2.345399857E0;6.789000034E-1;-3.801399946E0
2.073410000E1;-2.942499876E0;-3.382000029E-1;-3.971999884E0
2.075395156E1;-3.097599983E0;-4.893999994E-1;-2.818899870E0
2.077380469E1;-1.182799935E0;4.732999802E-1;-1.719399929E0
2.079365625E1;1.146600008E0;1.459399939E0;-1.925499916E0
2.081350938E1;1.298200011E0;2.024299860E0;-1.629899979E0
2.083336250E1;3.528999984E-1;2.175299883E0;-5.432000160E-1
2.085321406E1;-6.628999710E-1;1.767699957E0;6.685000062E-1
2.087306719E1;-1.046499968E0;7.581999898E-1;1.895299911E0
2.089292031E1;-7.088999748E-1;-4.275999963E-1;2.450000048E0
2.091277188E1;1.023000002E0;-4.584999979E-1;2.358199835E0
2.093262500E1;1.918599963E0;-2.741000056E-1;2.568399906E0
2.095247813E1;3.093999922E-1;2.483999878E-1;3.304699898E0
2.097233125E1;-1.466300011E0;6.310999990E-1;3.282599926E0
2.099218281E1;-1.975499988E0;7.683999538E-1;2.279199839E0
2.101203594E1;-7.386999726E-1;1.327999949E0;6.499999762E-1
2.103188906E1;1.460500002E0;2.233299971E0;-7.077999711E-1
2.105174062E1;1.189800024E0;2.899399996E0;-2.473199844E0
2.107159375E1;-5.406000018E-1;3.252399921E0;-4.220299721E0
2.109144688E1;-5.087999701E-1;2.889799833E0;-4.887000084E0
2.111130000E1;3.544999957E-1;2.072499990E0;-3.479199886E0
2.113115156E1;6.067000031E-1;1.432600021E0;-1.513000011E0
2.115100469E1;3.619999886E-1;1.041800022E0;-1.535999924E-1
2.117085781E1;-5.269999802E-2;8.506000042E-1;4.296999872E-1
2.119070938E1;-8.649999648E-2;8.675000072E-1;4.668999910E-1
2.121056250E1;8.859999478E-2;9.239999652E-1;6.080999970E-1
2.123041563E1;2.714999914E-1;9.872999787E-1;7.953000069E-1
2.125026719E1;-1.149999946E-1;8.254999518E-1;7.092999816E-1
2.127012031E1;-9.213999510E-1;4.711000025E-1;2.445999980E-1
2.128997344E1;-1.537499905E0;-3.610000014E-2;-5.074999928E-1
2.130982656E1;-1.522399902E0;-2.074999958E-1;-1.495700002E0
2.132967812E1;2.578999996E-1;1.036999971E-1;-1.777300000E0
2.134953125E1;1.416700006E0;1.814000010E-1;-1.442899942E0
2.136938438E1;1.164399981E0;-2.275999933E-1;-7.685999870E-1
2.138923594E1;6.733999848E-1;-3.386999965E-1;-3.779000044E-1
2.140908906E1;3.058999777E-1;-2.001999915E-1;-2.574999928E-1
2.142894219E1;-6.994000077E-1;-5.155999660E-1;-4.777999818E-1
2.144879531E1;-1.276600003E0;-9.444999695E-1;-4.501999915E-1
2.146864688E1;2.150999904E-1;-6.947000027E-1;-3.771999776E-1
2.148850000E1;2.179499865E0;-1.189999934E-2;-5.108000040E-1
2.150835313E1;3.728399992E0;1.307299972E0;-1.101400018E0
2.152820469E1;2.522199869E0;1.986499906E0;-2.694799900E0
2.154805781E1;1.426399946E0;1.334699988E0;-3.696399927E0
2.156790938E1;1.101300001E0;2.029999942E-1;-3.250699997E0
2.158776250E1;9.699999355E-3;-1.055500031E0;-2.225899935E0
2.160761406E1;-2.416699886E0;-2.379299879E0;7.270000130E-2
2.162746875E1;-5.603099823E0;-4.286099911E0;1.425300002E0
2.164732031E1;-8.076199532E0;-5.096799850E0;1.605799913E0
2.166717344E1;-9.877499580E0;-5.505199909E0;1.226899981E0
2.168702656E1;-5.163700104E0;-1.721300006E0;4.643999934E-1
2.170687969E1;5.951799870E0;2.285399914E0;2.559999824E-1
2.172673125E1;2.596789932E1;9.440000057E-1;4.609499931E0
2.174658438E1;3.535499811E0;1.531599998E0;-6.269000053E0
2.176643750E1;-3.010900021E0;3.855799913E0;-7.413699627E0
2.178628906E1;-4.546899796E0;2.304199934E0;-4.135999680E0
2.180614219E1;-7.205499649E0;-1.263499975E0;-3.469499826E0
2.182599531E1;-6.437200069E0;-1.325500011E0;-8.382100105E0
2.184584688E1;1.081399918E0;-1.937199950E0;-5.161499977E0
2.186570000E1;4.836299896E0;-2.224999964E-1;-3.605899811E0
2.188555312E1;1.395399928E0;-1.113699913E0;-2.323099852E0
2.190540469E1;1.315999925E-1;-2.023299932E0;-1.979999900E0
2.192525781E1;1.726499915E0;-1.760999918E0;-7.267000079E-1
2.194510938E1;3.147799969E0;-2.145900011E0;-1.212999940E0
2.196496250E1;2.389400005E0;-4.140299797E0;7.074999809E-1
2.198481563E1;2.379799843E0;-2.790799856E0;-7.062999606E-1
2.200466875E1;3.762199879E0;2.850399971E0;3.372599840E0
2.202452188E1;2.510200024E0;8.130000114E0;5.880399704E0
2.204437344E1;5.110999942E-1;6.915400028E0;1.393700004E0
2.206422656E1;-5.365999937E-1;7.805999517E-1;-2.976799965E0
2.208407969E1;2.202399969E0;-5.447999835E-1;5.588999987E-1
2.210393125E1;2.316999912E0;-9.766999483E-1;2.907599926E0
2.212378438E1;1.868099928E0;7.414999604E-1;4.827799797E0
2.214363750E1;1.517799973E0;1.661299944E0;5.609799862E0
2.216348906E1;1.722399950E0;2.397699833E0;4.066599846E0
2.218334219E1;1.761500001E0;2.115499973E0;2.167500019E0
2.220319375E1;6.518999934E-1;1.389999986E0;7.936999798E-1
2.222304688E1;1.208999977E-1;1.053300023E0;2.592999935E-1
2.224290000E1;-7.909999788E-2;9.002999663E-1;4.979999736E-2
2.226275312E1;-4.903999865E-1;5.291999578E-1;-1.050999984E-1
2.228260469E1;-7.942000031E-1;5.929999799E-2;-4.779999703E-2
2.230245781E1;-1.054700017E0;-3.859999776E-1;2.723000050E-1
2.232231094E1;-1.430400014E0;-6.948999763E-1;4.720000029E-1
2.234216250E1;-1.710799932E0;-7.235999703E-1;9.868999720E-1
2.236201562E1;-1.784199953E0;-5.697999597E-1;1.214900017E0
2.238186875E1;-1.804699898E0;-2.973999977E-1;9.012999535E-1
2.240172031E1;-1.867599964E0;4.244999886E-1;7.549999654E-2
2.242157344E1;-2.233899832E0;1.030599952E0;3.039000034E-1
2.244142656E1;-1.864499927E0;1.804299951E0;1.767199993E0
2.246127969E1;-7.515999675E-1;2.545199871E0;2.075000048E0
2.248113125E1;-3.931999803E-1;5.622000098E-1;-8.089999557E-1
2.250098438E1;1.202999949E-1;-1.425099969E0;-3.084800005E0
2.252083750E1;-8.783999681E-1;-2.312399864E0;-2.845000029E0
2.254068906E1;-1.358799934E0;-6.938999891E-1;-7.378000021E-1
2.256054219E1;-1.930699944E0;7.326999903E-1;6.506999731E-1
2.258039531E1;-2.314399958E0;8.145999908E-1;-2.759999968E-2
2.260024844E1;-2.177199841E0;3.989000022E-1;-1.922999978E0
2.262010000E1;-1.702199936E0;8.089999557E-1;-2.663699865E0
2.263995312E1;-8.835999966E-1;2.281599998E0;-3.439699888E0
2.265980625E1;-6.726999879E-1;3.100699902E0;-3.216699839E0
2.267965781E1;-9.298999906E-1;2.537099838E0;-1.686999917E0
2.269951094E1;-8.097999692E-1;1.865399957E0;-1.986999959E-1
2.271936563E1;-8.914999962E-1;1.953299999E0;5.898000002E-1
2.273921562E1;-8.727999926E-1;1.809899926E0;4.122999907E-1
2.275906875E1;-7.852999568E-1;1.925999999E0;1.005699992E0
2.277892188E1;-1.147599936E0;1.757399917E0;1.415799975E0
2.279877344E1;-7.992999554E-1;2.648499966E0;1.456399918E0
2.281862656E1;-4.572999775E-1;3.654099941E0;1.613199949E0
2.283847969E1;-1.375000030E-1;4.470200062E0;2.327399969E0
2.285833281E1;3.937999904E-1;4.473599911E0;1.733999968E0
2.287818438E1;4.686999917E-1;1.929999948E0;-3.423999846E-1
2.289803750E1;1.979399920E0;2.751999795E-1;-1.600799918E0
2.291789063E1;3.678999901E0;1.047500014E0;-1.360999942E0
2.293774219E1;2.822399855E0;2.231899977E0;-2.125599861E0
2.295759531E1;1.585600019E0;3.408699989E0;-2.164199829E0
2.297744844E1;1.743399978E0;3.913800001E0;-1.967099905E0
2.299730000E1;2.413300037E0;4.513599873E0;-1.250299931E0
2.301715312E1;2.389499903E0;3.960999966E0;-1.515100002E0
2.303700469E1;2.695799828E0;4.486000061E0;-1.393199921E0
2.305685781E1;2.685999870E0;5.723099709E0;-6.029999852E-1
2.307671094E1;2.125299931E0;6.451999664E0;-5.198999643E-1
2.309656406E1;2.644599915E0;5.963199615E0;-9.948999882E-1
2.311641719E1;2.960899830E0;2.031199932E0;6.610999703E-1
2.313626875E1;4.139400005E0;-1.382799983E0;2.913699865E0
2.315612188E1;3.880899906E0;-3.603899956E0;4.066199780E0
2.317597500E1;-4.824000001E-1;-5.877599716E0;3.145499945E0
2.319582656E1;-1.157699943E0;-7.883399963E0;3.740999997E-1
2.321567969E1;2.911199808E0;-8.739099503E0;-9.986999631E-1
2.323553281E1;3.876499891E0;-1.024759960E1;-4.594999850E-1
2.325538594E1;2.638599873E0;-6.220399857E0;-2.561499834E0
2.327523750E1;-5.867999792E-1;-3.289000034E0;-4.220299721E0
2.329509062E1;-3.330999851E0;-1.832499981E0;-5.120899677E0
2.331494375E1;-4.743799686E0;-1.583099961E0;-5.238699913E0
2.333479531E1;-3.793499947E0;-1.215899944E0;-2.368099928E0
2.335464688E1;-1.964999914E0;-6.933999658E-1;9.429999441E-2
2.337450000E1;-1.378899932E0;-6.467999816E-1;5.153999925E-1
2.339435313E1;-1.795499921E0;-5.999000072E-1;7.429999858E-2
2.341420625E1;-2.123199940E0;-8.203999996E-1;-3.463000059E-1
2.343405781E1;-1.368099928E0;-7.705999613E-1;-2.603999972E-1
2.345391094E1;-6.108999848E-1;-4.226999879E-1;3.929999843E-2
2.347376406E1;5.978999734E-1;2.636999786E-1;-2.678999901E-1
2.349361562E1;9.769999981E-1;-9.559999406E-2;1.970999986E-1
2.351346875E1;8.219999820E-2;-6.254999638E-1;1.312399983E0
2.353332188E1;-1.192199945E0;-1.371699929E0;1.239599943E0
2.355317500E1;-6.801999807E-1;-1.910399914E0;9.796999693E-1
2.357302656E1;8.517000079E-1;-2.681900024E0;1.329100013E0
2.359287969E1;8.611999750E-1;-2.980099916E0;1.161199927E0
2.361273281E1;-1.018899918E0;-2.289899826E0;6.574999690E-1
2.363258438E1;-2.525300026E0;-9.146999717E-1;1.484999955E-1
2.365243750E1;-2.868299961E0;-9.429999441E-2;1.728999913E-1
2.367229063E1;-5.780000091E-1;4.782999754E-1;3.716999888E-1
2.369214219E1;2.477900028E0;4.360999763E-1;-1.283999979E-1
2.371199531E1;4.392199993E0;1.109999940E-1;-1.058899999E0
2.373184844E1;2.440799952E0;-7.455999851E-1;-2.039999962E0
2.375170156E1;-6.899999827E-2;-1.935899973E0;-1.879199982E0
2.377155312E1;5.749999732E-2;-2.838099957E0;-4.468999803E-1
2.379140625E1;6.340000033E-1;-3.471699953E0;9.394999743E-1
2.381125938E1;1.489000022E-1;-3.616999865E0;1.249300003E0
2.383111094E1;-2.721000016E-1;-2.775499821E0;1.010699987E0
2.385096406E1;-5.034999847E-1;-1.056299925E0;2.251999974E-1
2.387081719E1;-3.177999854E-1;6.410999894E-1;-7.394999862E-1
2.389066875E1;-1.090000011E-2;1.941699982E0;-1.473899961E0
2.391052188E1;4.010999799E-1;2.390499830E0;-1.831399918E0
2.393037500E1;4.775999784E-1;1.671199918E0;-1.730299950E0
2.395022813E1;3.332999945E-1;3.709999919E-1;-1.645799994E0
2.397007969E1;9.032999873E-1;-8.287999630E-1;-1.587799907E0
2.398993281E1;1.899499893E0;-1.113999963E0;-1.559199929E0
2.400978594E1;1.893199921E0;-3.623999953E-1;-9.106000066E-1
2.402963750E1;1.152300000E0;5.436999798E-1;-8.998000026E-1
2.404949062E1;2.621999979E-1;7.845999599E-1;-1.003799915E0
2.406934219E1;-6.222999692E-1;9.109999537E-1;-6.606999636E-1
2.408919531E1;-1.370199919E0;8.658999801E-1;-1.934999973E-1
2.410904844E1;-1.856599927E0;6.117999554E-1;-1.465999931E-1
2.412890156E1;-9.833999872E-1;4.824999869E-1;-1.972000003E-1
2.414875469E1;1.549299955E0;6.525999904E-1;1.873999983E-1
2.416860469E1;2.828399897E0;3.656999767E-1;8.557999730E-1
2.418845938E1;1.525399923E0;-5.421000123E-1;1.621099949E0
2.420831250E1;-1.051100016E0;-1.382799983E0;2.832199812E0
2.422816406E1;-2.162499905E0;-1.880299926E0;3.656699896E0
2.424801719E1;-1.627799988E0;-1.802500010E0;3.753000021E0
2.426786875E1;-9.997999668E-1;-1.135699987E0;2.436199903E0
2.428772188E1;-1.577899933E0;-1.181800008E0;1.374799967E0
2.430757344E1;-2.166399956E0;-1.567499995E0;1.231799960E0
2.432742656E1;-2.030499935E0;-1.983899951E0;1.764099956E0
2.434728125E1;-1.945499897E0;-1.410499930E0;2.641700029E0
2.436713281E1;-2.118599892E0;-6.509999931E-2;3.349399805E0
2.438698594E1;-1.152300000E0;8.714999557E-1;3.822099924E0
2.440683750E1;-4.059999883E-1;1.475199938E0;4.110499859E0
2.442669063E1;2.719999850E-1;1.237900019E0;2.947700024E0
2.444654375E1;1.188099980E0;1.010599971E0;-5.260999799E-1
2.446639688E1;1.801999927E0;9.474999905E-1;-4.380799770E0
2.448624844E1;2.324599981E0;-3.533999920E-1;-5.932699680E0
2.450610156E1;2.554199934E0;-2.346699953E0;-4.876100063E0
2.452595469E1;2.937799931E0;-2.039799929E0;-4.054500103E0
2.454580625E1;1.103500009E0;-2.917000055E-1;-5.514299870E0
2.456565781E1;-1.062999964E0;-7.254999876E-1;-6.464599609E0
2.458551250E1;-7.499999832E-3;5.561999679E-1;-5.385699749E0
2.460536406E1;2.228199959E0;1.519400001E0;-4.151799679E0
2.462521719E1;1.116099954E0;3.240000010E-1;-2.181299925E0
2.464507031E1;9.496999979E-1;-6.615999937E-1;-1.617699981E0
2.466492344E1;1.670699954E0;-4.379999936E-1;-6.919999719E-1
2.468477500E1;2.036900043E0;2.419800043E0;1.209100008E0
2.470462813E1;9.030999541E-1;3.777799845E0;4.149099827E0
2.472447969E1;9.474999905E-1;3.654199839E0;5.763299942E0
2.474433281E1;7.170000076E-1;3.183399916E0;7.089299679E0
2.476418594E1;5.277999640E-1;2.018199921E0;5.514899731E0
2.478403750E1;7.177999616E-1;1.258999944E0;5.719899654E0
2.480389062E1;1.873399973E0;7.918999791E-1;4.357599735E0
2.482374219E1;4.453700066E0;-2.893999815E-1;2.222300053E0
2.484359531E1;6.787299633E0;-2.488699913E0;2.965199947E0
2.486344844E1;7.296499729E0;-3.004499912E0;4.408499718E0
2.488330156E1;3.754799843E0;-2.141399860E0;2.059799910E0
2.490315313E1;1.674600005E0;-8.376999497E-1;4.239999875E-2
2.492300625E1;-4.196999967E-1;-2.486999929E-1;-7.903999686E-1
2.494285938E1;-2.697499990E0;-5.073999763E-1;-1.395599961E0
2.496271250E1;-4.469599724E0;-1.042299986E0;-1.900599957E0
2.498256406E1;-5.561100006E0;-1.272499919E0;-2.566299915E0
2.500241719E1;-5.552499771E0;-1.174399972E0;-3.437599897E0
2.502227031E1;-2.554299831E0;-1.238999963E0;-4.872200012E0
2.504212188E1;1.247699976E0;-4.592999816E-1;-6.905099869E0
2.506197500E1;7.831999660E-1;-6.341999769E-1;-1.134789944E1
2.508182656E1;9.910000116E-2;-4.510999918E-1;-9.366899490E0
2.510167969E1;-9.029999971E-1;1.310999990E-1;-4.381099701E0
2.512153281E1;-1.596099973E0;6.291999817E-1;-1.880999923E0
2.514138594E1;-1.467199922E0;8.220999837E-1;-2.228000015E-1
2.516123906E1;2.539999969E-2;-4.814999998E-1;6.419999599E-1
2.518109063E1;1.826799989E0;-1.398599982E0;-1.957999915E-1
2.520094375E1;1.977899909E0;-1.081399918E0;-1.867399931E0
2.522079688E1;8.481000066E-1;-2.155499935E0;-2.253299952E0
2.524064844E1;-5.917999744E-1;-2.856699944E0;-9.986999631E-1
2.526050781E1;-1.354599953E0;-3.393199921E0;-2.786999941E-1
2.528035469E1;-7.908999920E-1;-3.825699806E0;1.555999964E-1
2.530020781E1;-9.200000018E-2;-4.087100029E0;7.179999948E-1
2.532005938E1;2.610000074E-1;-3.897499800E0;1.660699964E0
2.533991250E1;2.749999985E-2;-3.262199879E0;2.476599932E0
2.535976562E1;1.411999911E-1;-1.620800018E0;2.438199997E0
2.537961719E1;4.472999871E-1;-4.105999768E-1;1.810299993E0
2.539947031E1;4.728999734E-1;3.170000017E-1;4.373999834E-1
2.541932344E1;3.755999804E-1;1.010599971E0;-1.602399945E0
2.543917500E1;4.671999812E-1;9.554999471E-1;-3.835199833E0
2.545902813E1;1.043799996E0;1.130999997E-1;-5.446899891E0
2.547888125E1;2.060099840E0;-4.652999938E-1;-6.460700035E0
2.549873281E1;3.085399866E0;-1.194100022E0;-5.839900017E0
2.551858594E1;3.226899862E0;-1.358500004E0;-3.199699879E0
2.553843750E1;1.977599978E0;-3.881999850E-1;-1.119899988E0
2.555829219E1;-6.419999599E-1;1.412799954E0;-6.143999696E-1
2.557814375E1;-1.326699972E0;2.257999897E0;-2.876999974E-1
2.559799688E1;1.180400014E0;1.588799953E0;-7.271999717E-1
2.561784844E1;3.011799812E0;7.506999969E-1;-1.933699965E0
2.563770156E1;2.266899824E0;6.881999969E-1;-2.547099829E0
2.565755469E1;-1.045999974E-1;4.557999969E-1;-2.967000008E0
2.567740625E1;-1.551199913E0;3.290999830E-1;-2.531599998E0
2.569725938E1;-2.015300035E0;3.003999889E-1;-1.506799936E0
2.571711250E1;-1.623299956E0;1.305999905E-1;-1.010699987E0
2.573696562E1;-6.991999745E-1;-4.416999817E-1;-1.057199955E0
2.575681875E1;-8.249999583E-2;-1.348299980E0;-9.633999467E-1
2.577667031E1;3.700000048E-2;-1.798200011E0;-8.430999517E-1
2.579652188E1;-2.425999939E-1;-1.655599952E0;-1.073899984E0
2.581637500E1;2.793000042E-1;-1.169399977E0;-1.308499932E0
2.583622812E1;1.540399909E0;-1.190799952E0;-1.341899991E0
2.585607969E1;2.869899988E0;-1.453499913E0;-4.854999781E-1
2.587593281E1;3.780200005E0;-8.452999592E-1;4.697999954E-1
2.589578594E1;3.403199911E0;4.072999954E-1;2.699999809E-1
2.591563906E1;2.405099869E0;1.789299965E0;9.365999699E-1
2.593549062E1;1.968899965E0;2.614099979E0;1.163299918E0
2.595534375E1;1.773399949E0;2.631099939E0;6.225999594E-1
2.597519531E1;1.820499897E0;2.979499817E0;1.877999902E-1
2.599504844E1;1.980399966E0;3.122299910E0;7.239999771E-1
2.601490156E1;1.730299950E0;3.269099951E0;1.130900025E0
2.603475469E1;8.867999911E-1;3.322499990E0;1.325099945E0
2.605460781E1;3.414999843E-1;2.986500025E0;1.057999969E0
2.607445938E1;-3.350000083E-2;2.156999826E0;1.604999900E-1
2.609431250E1;-3.987999856E-1;1.492699981E0;-4.974999726E-1
2.611416563E1;-7.731999755E-1;9.004999995E-1;-6.517999768E-1
2.613401719E1;-1.246799946E0;1.468999982E-1;-4.833999872E-1
2.615387031E1;-1.621799946E0;-5.121999979E-1;-5.988999605E-1
2.617372344E1;-2.009899855E0;-6.297999620E-1;-4.689999819E-1
2.619357500E1;-2.306799889E0;-5.130000114E-1;-1.318999976E-1
2.621342812E1;-2.587499857E0;6.279999763E-2;2.358999997E-1
2.623328125E1;-2.838999987E0;5.439999700E-1;3.075000048E-1
2.625313281E1;-2.440599918E0;3.695999980E-1;1.999999949E-4
2.627298594E1;-1.607299924E0;-3.972999752E-1;-7.317000031E-1
2.629285156E1;-4.393999875E-1;-5.453999639E-1;-8.161999583E-1
2.631269219E1;4.723999798E-1;-9.099999443E-3;-4.341000021E-1
2.633254375E1;5.683000088E-1;4.969999790E-1;9.380000085E-2
2.635239531E1;1.731999964E-1;9.199000001E-1;4.306999743E-1
2.637225000E1;-2.312999964E-1;1.353799939E0;1.158800006E0
2.639210156E1;-5.541999936E-1;1.355099916E0;1.224900007E0
2.641195469E1;-8.514999747E-1;1.092800021E0;9.269999713E-2
2.643180781E1;-1.441499949E0;7.245000005E-1;-9.879999757E-1
2.645165938E1;-1.851699948E0;5.920000076E-1;-7.680000067E-1
2.647151250E1;-1.499599934E0;9.228999615E-1;-9.687999487E-1
2.649136562E1;-2.387999892E-1;1.564299941E0;-1.725299954E0
2.651121875E1;8.798999786E-1;2.396399975E0;-2.493499994E0
2.653107031E1;-1.166999936E-1;2.217999935E0;-3.168399811E0
2.655092344E1;-2.467999905E-1;1.555699944E0;-2.049000025E0
2.657077656E1;6.748999953E-1;1.693399906E0;-3.920999765E-1
2.659062813E1;1.048699975E0;1.836199999E0;-1.228999943E-1
2.661048125E1;9.535999894E-1;2.274199963E0;-8.695999980E-1
2.663033438E1;8.179999888E-2;1.984899998E0;-1.878799915E0
2.665018594E1;-5.681999922E-1;1.057399988E0;-1.247599959E0
2.667003906E1;1.070999950E-1;7.787999511E-1;-1.143999994E-1
2.668989219E1;1.709499955E0;8.452999592E-1;-7.641999722E-1
2.670974531E1;1.782499909E0;1.353199959E0;-1.522099972E0
2.672959688E1;1.771399975E0;2.523000002E0;-9.995999932E-1
2.674945000E1;2.119600058E0;3.618399858E0;-5.629000068E-1
2.676930312E1;2.094099998E0;4.061100006E0;2.216999978E-1
2.678915469E1;1.934599996E0;3.781699896E0;6.229999661E-2
2.680902656E1;7.991999984E-1;2.377599955E0;-2.002099991E0
2.682886094E1;1.706999987E-1;2.069999874E-1;-2.432499886E0
2.684871406E1;4.091999829E-1;-1.051399946E0;2.232999951E-1
2.686856563E1;1.254299998E0;-1.516099930E0;1.341099977E0
2.688841875E1;8.581999540E-1;-6.085999608E-1;1.107699990E0
2.690827188E1;-5.790000036E-2;-2.421000004E-1;4.206999838E-1
2.692812344E1;-7.509999871E-1;-8.562999964E-1;1.410000026E-1
2.694797656E1;-1.513899922E0;-2.215899944E0;4.144999981E-1
2.696782969E1;-7.666999698E-1;-3.423199892E0;4.505999982E-1
2.698768125E1;2.078999996E0;-4.401099682E0;1.086400032E0
2.700753438E1;3.378000021E0;-4.737699986E0;2.529000044E0
2.702738750E1;8.141999841E-1;-3.211899996E0;2.388299942E0
2.704724062E1;-1.925499916E0;-1.658499956E0;1.734699965E0
2.706709219E1;-4.015599728E0;-1.868999898E-1;2.576299906E0
2.708694531E1;-6.121500015E0;1.236599922E0;2.175899982E0
2.710679688E1;-7.978999615E0;1.624399900E0;2.300600052E0
2.712665000E1;-7.675199986E0;1.372900009E0;3.371699810E0
2.714650313E1;-4.251699924E0;-2.296999991E-1;-2.392699957E0
2.716635469E1;1.961199999E0;3.416999876E-1;-4.946399689E0
2.718620781E1;6.362599850E0;1.666399956E0;-5.672100067E0
2.720606094E1;9.858699799E0;3.876099825E0;-4.761399746E0
2.722591250E1;8.665800095E0;7.820399761E0;-8.232500076E0
2.724576562E1;-5.918999910E-1;6.490799904E0;-6.679800034E0
2.726561875E1;-1.778599977E0;4.512000084E0;-2.632699966E0
2.728547031E1;8.039000034E-1;1.620899916E0;-1.258999944E0
2.730532344E1;2.737399817E0;-1.692999899E-1;-1.958799958E0
2.732517656E1;2.935699940E0;-1.479599953E0;-1.240999997E-1
2.734502813E1;5.318500042E0;-2.298000008E-1;1.279299974E0
2.736488125E1;6.140699863E0;1.234599948E0;3.671299934E0
2.738473438E1;4.634999931E-1;1.202899933E0;4.946199894E0
2.740458750E1;-2.150799990E0;2.451999933E-1;2.781899929E0
2.742443906E1;-1.750699997E0;-1.719599962E0;5.157999992E-1
2.744429219E1;-6.189000010E-1;-4.011699677E0;3.350999951E-1
2.746414531E1;6.870000064E-2;-4.854300022E0;7.218999863E-1
2.748399688E1;-6.370999813E-1;-3.948799849E0;8.450999856E-1
2.750385000E1;-5.816000104E-1;-1.700699925E0;9.369999766E-1
2.752370312E1;-6.046999693E-1;8.123999834E-1;1.084499955E0
2.754355469E1;-1.271899939E0;2.770099878E0;1.943999976E-1
2.756340781E1;-1.917599916E0;3.218099833E0;-8.223999739E-1
2.758326094E1;-1.266299963E0;1.878999949E0;-1.568399906E0
2.760311406E1;-1.134999990E-1;-4.438999891E-1;-1.463199973E0
2.762296563E1;8.517999649E-1;-8.534999490E-1;-5.399000049E-1
2.764281875E1;3.145000041E-1;5.036999583E-1;2.760999799E-1
2.766267188E1;-3.795999885E-1;1.271499991E0;-1.499999966E-2
2.768252344E1;-1.508999914E-1;1.151399970E0;-6.072999835E-1
2.770237656E1;7.637999654E-1;5.604000092E-1;-1.037599921E0
2.772222969E1;7.761999965E-1;-5.647999644E-1;-1.350700021E0
2.774208125E1;2.868999839E-1;-1.323799968E0;-8.683999777E-1
2.776193438E1;1.877999902E-1;-1.005599976E0;1.030999944E-1
2.778178750E1;1.074000001E-1;-4.470999837E-1;6.701999903E-1
2.780164062E1;-6.979999691E-2;-3.590000048E-2;2.234999985E-1
2.782149219E1;-1.298999935E-1;9.139999747E-2;-2.466999888E-1
2.784134531E1;-3.075999916E-1;-1.715999991E-1;-5.709999800E-1
2.786119844E1;-4.453999996E-1;-3.978999853E-1;-6.735999584E-1
2.788105000E1;-2.492999882E-1;-5.209000111E-1;-5.722000003E-1
2.790090313E1;2.219000012E-1;-6.065999866E-1;-5.839999914E-1
2.792075625E1;5.658000112E-1;-2.404999882E-1;-6.457999945E-1
2.794060781E1;4.087999761E-1;3.416000009E-1;-6.480000019E-1
2.796046094E1;2.412000000E-1;4.896999896E-1;-5.699999928E-1
2.798031406E1;2.595999837E-1;1.084999964E-1;-6.055999994E-1
2.800016719E1;1.990999877E-1;-1.146999970E-1;-4.884999990E-1
2.802001875E1;4.959999770E-2;6.729999930E-2;-3.238999844E-1
2.803987188E1;-1.195999980E-1;4.214999974E-1;-1.052999943E-1
2.805972344E1;-1.017999947E-1;8.230999708E-1;-1.394999921E-1
2.807957656E1;7.310000062E-2;8.574000001E-1;9.879999608E-2
2.809942969E1;3.170000017E-1;8.337000012E-1;3.249000013E-1
2.811928125E1;4.339999855E-1;7.814999819E-1;5.726999640E-1
2.813913438E1;2.575999796E-1;4.298000038E-1;4.657000005E-1
2.815898750E1;1.703999937E-1;1.394999921E-1;2.349999920E-2
2.817883906E1;3.399999812E-2;1.237000003E-1;-3.570999801E-1
2.819869219E1;-4.409999773E-2;2.624000013E-1;-3.955000043E-1
2.821854531E1;7.389999926E-2;8.429999650E-2;-4.238999784E-1
2.823839844E1;1.634999961E-1;-1.930999905E-1;-5.018999577E-1
2.825825000E1;2.430999875E-1;-3.206999898E-1;-4.699999988E-1
2.827810312E1;4.787999988E-1;-2.649999857E-1;-5.648999810E-1
2.829795625E1;5.476999879E-1;-1.599999964E-1;-7.956999540E-1
2.831780938E1;4.588999748E-1;-2.609999850E-2;-7.713999748E-1
2.833766094E1;1.532000005E-1;-9.999999747E-5;-3.222000003E-1
2.835751406E1;3.460000083E-2;-3.599999845E-2;9.039999545E-2
2.837736563E1;1.326999962E-1;-4.349999875E-2;2.167999893E-1
2.839721875E1;2.511999905E-1;-1.094999984E-1;2.999999851E-4
2.841707188E1;3.502999842E-1;-1.620000042E-2;-3.170000017E-2
2.843692344E1;3.114999831E-1;1.233999953E-1;-7.499999832E-3
2.845677813E1;1.351999938E-1;-2.309999987E-2;-2.879999951E-2
2.847662969E1;-4.089999944E-2;-5.249999836E-2;-1.406999975E-1
2.849648125E1;-5.020000041E-2;1.237000003E-1;-3.030999899E-1
2.851633438E1;9.730000049E-2;3.926999867E-1;-2.496999949E-1
2.853618750E1;3.731999993E-1;1.653999984E-1;-4.208999872E-1
2.855604062E1;6.006000042E-1;-2.101999968E-1;-6.187999845E-1
2.857589219E1;6.013000011E-1;-4.068999887E-1;-4.294999838E-1
2.859574531E1;1.396999955E-1;-3.084000051E-1;-1.480000019E-1
2.861559844E1;-1.850000024E-1;-1.719999909E-1;-6.589999795E-2
2.863545000E1;-1.086999997E-1;-1.580999941E-1;-5.219999701E-2
2.865530313E1;2.331999987E-1;-1.754999906E-1;-5.769999698E-2
2.867515625E1;6.062999964E-1;-2.202999890E-1;-2.586999834E-1
2.869500781E1;8.319000006E-1;-2.937999964E-1;-3.772999942E-1
2.871486094E1;7.929999828E-1;-5.417000055E-1;-6.464999914E-1
2.873471406E1;3.619999886E-1;-9.092999697E-1;-7.985000014E-1
2.875456719E1;7.299999706E-3;-1.191900015E0;-5.442000031E-1
2.877441875E1;-4.439999908E-2;-1.178099990E0;-3.048999906E-1
2.879427188E1;-1.653999984E-1;-1.162999988E0;-1.599999890E-2
2.881412500E1;-1.386999935E-1;-2.942999899E-1;-3.662000000E-1
2.883397656E1;-6.933999658E-1;-4.403999746E-1;-9.030999541E-1
2.885382969E1;-2.983999848E-1;-6.750999689E-1;-8.078999519E-1
2.887368281E1;-3.290999830E-1;-8.088999987E-1;-1.769999973E-2
2.889353438E1;-6.571999788E-1;-8.680999875E-1;2.979999781E-1
2.891338750E1;-4.957000017E-1;-1.513599992E0;5.593000054E-1
2.893323906E1;-4.421999753E-1;-1.809399962E0;1.030999944E-1
2.895309375E1;-6.750000119E-1;-1.990199924E0;-5.927999616E-1
2.897294531E1;-8.995999694E-1;-1.575500011E0;-1.527199984E0
2.899279844E1;-7.541999817E-1;-1.009299994E0;-1.822999954E0
2.901265156E1;-5.507999659E-1;-1.063400030E0;-1.946599960E0
2.903250312E1;-4.641999900E-1;-1.328699946E0;-1.761299968E0
2.905235625E1;2.415999919E-1;-1.929699898E0;-1.726399899E0
2.907220938E1;9.074999690E-1;-2.621199846E0;-1.390799999E0
2.909206250E1;6.593999863E-1;-3.399199963E0;-4.711999893E-1
2.911191406E1;-1.271999925E-1;-3.617299795E0;4.995999932E-1
2.913176563E1;-9.697999954E-1;-3.529500008E0;1.242100000E0
2.915162031E1;-7.440000027E-2;-3.764499903E0;1.825299978E0
2.917147188E1;3.549700022E0;-3.918399811E0;2.695199966E0
2.919132500E1;6.276399612E0;-4.720200062E0;2.612699986E0
2.921117656E1;3.533799887E0;-3.552599907E0;-1.817999929E-1
2.923102969E1;1.658999920E-1;2.184399843E0;-3.112599850E0
2.925088281E1;-2.198600054E0;5.842999935E0;-5.636600018E0
2.927073438E1;1.535799980E0;9.480199814E0;-5.122499943E0
2.929058750E1;1.778800011E0;7.250599861E0;-2.084300041E0
2.931044063E1;3.480299950E0;4.572400093E0;-8.496999741E-1
2.933029375E1;1.819099903E0;2.183099985E0;-9.019999951E-2
2.935014688E1;1.966199994E0;2.437299967E0;1.288299918E0
2.936999844E1;2.542700052E0;3.543599844E0;1.775599957E0
2.938985000E1;2.766000032E0;4.195899963E0;1.041299939E0
2.940970469E1;2.619400024E0;3.837699890E0;8.010999560E-1
2.942955625E1;1.718999982E0;2.751399994E0;3.565999866E-1
2.944940938E1;9.749999642E-1;1.221599936E0;-6.959999800E-1
2.946926250E1;1.346400023E0;3.479999900E-1;-8.254999518E-1
2.948911406E1;1.068599939E0;-1.530999988E-1;-6.076999903E-1
2.950896719E1;-5.738999844E-1;-4.535000026E-1;1.097999960E-1
2.952882031E1;-2.314300060E0;-7.285000086E-1;1.376899958E0
2.954867344E1;-4.581299782E0;-1.408499956E0;2.151099920E0
2.956852500E1;-7.533599854E0;-1.939799905E0;2.244099855E0
2.958837813E1;-9.710599899E0;-1.809899926E0;2.944000006E0
2.960822969E1;-1.067079926E1;-1.609200001E0;3.596499920E0
2.962808281E1;-1.014999962E1;-4.360000044E-2;2.805599928E0
2.964793594E1;-7.556099892E0;1.869300008E0;1.027199984E0
2.966778906E1;1.815599918E0;3.625399828E0;8.112999797E-1
2.968764062E1;3.664199829E0;2.125999928E-1;-1.673499942E0
2.970749375E1;7.798399925E0;-3.227999806E-1;-2.786599874E0
2.972734531E1;6.700399876E0;-1.589100003E0;-4.248300076E0
2.974719844E1;1.943899989E0;-1.858599901E0;-5.579199791E0
2.976705156E1;-1.161299944E0;8.281999826E-1;-3.350499868E0
2.978690313E1;-1.539499998E0;2.216500044E0;-2.900999784E-1
2.980675625E1;1.704100013E0;-1.120299935E0;-2.730000019E-1
2.982660938E1;3.247200012E0;-3.893199921E0;-1.904299974E0
2.984646094E1;1.842299938E0;-4.884299755E0;-2.451400042E0
2.986631406E1;1.658999920E-1;-4.722399712E0;-1.862299919E0
2.988616719E1;3.033999801E-1;-3.264799833E0;-8.635999560E-1
2.990602031E1;9.686999917E-1;-1.312399983E0;3.650999963E-1
2.992587188E1;1.789599895E0;-4.984999895E-1;8.819999695E-1
2.994572500E1;2.789999962E0;-7.358999848E-1;4.685999751E-1
2.996557812E1;3.808699846E0;3.319000006E-1;3.881999850E-1
2.998542969E1;4.139800072E0;3.694700003E0;8.191999793E-1
3.000528281E1;2.059399843E0;6.282199860E0;4.202999771E-1
3.002513594E1;-7.415999770E-1;6.327099800E0;-5.027999878E-1
3.004498750E1;-1.707299948E0;5.017699718E0;-3.995999992E-1
3.006484063E1;4.402999878E-1;3.710999966E0;-4.781000018E-1
3.008469375E1;2.533099890E0;1.978599906E0;-7.073999643E-1
3.010454688E1;1.785499930E0;2.233099937E0;-9.916999936E-1
3.012439844E1;-4.134999812E-1;3.879799843E0;-4.736999869E-1
3.014425156E1;-1.585799932E0;4.114599705E0;4.985999763E-1
3.016410469E1;-2.427999973E-1;4.013000011E0;9.924999475E-1
3.018395625E1;1.085600019E0;2.411399841E0;-5.271999836E-1
3.020380938E1;1.106199980E0;6.183999777E-1;-1.618099928E0
3.022366250E1;3.809999824E-1;1.420000009E-2;-1.047199965E0
3.024351562E1;4.788999856E-1;5.611999631E-1;-6.976000071E-1
3.026336719E1;1.875000000E-1;1.040799975E0;-1.026700020E0
3.028322031E1;-1.044999957E-1;1.544099927E0;-1.432899952E0
3.030307344E1;-5.659999847E-1;1.370800018E0;-1.712599993E0
3.032292500E1;-3.319999874E-1;1.648599982E0;-1.555499911E0
3.034277813E1;-4.889999926E-1;2.034299850E0;-1.525599957E0
3.036263125E1;-1.548399925E0;1.766699910E0;-1.448400021E0
3.038248281E1;-2.609200001E0;1.166399956E0;-8.050999641E-1
3.040233594E1;-3.168599844E0;4.961999953E-1;-3.457999825E-1
3.042218906E1;-3.313699961E0;1.838999987E-1;-5.549999699E-2
3.044204062E1;-2.378399849E0;7.339999825E-2;3.298999965E-1
3.046189375E1;-6.359999776E-1;-4.316999912E-1;4.457999766E-1
3.048174688E1;1.228299975E0;-7.633999586E-1;-7.100000046E-3
3.050160000E1;3.317600012E0;-2.617999911E-1;-1.527999938E-1
3.052145156E1;3.395599842E0;-1.607999951E-1;5.285999775E-1
3.054130469E1;7.762999535E-1;-9.157999754E-1;1.186699986E0
3.056115781E1;-1.555499911E0;-1.749399900E0;4.628999829E-1
3.058100938E1;-1.937599897E0;-1.878799915E0;-1.025200009E0
3.060086250E1;-8.375999928E-1;-1.572499990E0;-7.820999622E-1
3.062071563E1;5.594999790E-1;-8.324999809E-1;1.093999967E-1
3.064056719E1;7.853999734E-1;-1.098999977E-1;2.474999875E-1
3.066042031E1;9.782999754E-1;5.978999734E-1;-3.456999958E-1
3.068027344E1;1.535499930E0;5.709999800E-1;-1.208899975E0
3.070012656E1;2.177099943E0;4.514999986E-1;-2.059200048E0
3.071997812E1;1.468400002E0;4.181999862E-1;-2.457399845E0
3.073983125E1;5.034999847E-1;8.519999683E-2;-2.171999931E0
3.075968438E1;5.873999596E-1;5.279999971E-2;-1.189999938E0
3.077953594E1;4.429999739E-2;4.183000028E-1;-6.875000000E-1
3.079938906E1;-6.839999557E-1;5.367999673E-1;-5.162000060E-1
3.081924219E1;-3.804999888E-1;-2.838000059E-1;-7.405999899E-1
3.083909531E1;-4.393000007E-1;-5.841000080E-1;-6.629999876E-1
3.085894688E1;-3.896999955E-1;3.245999813E-1;-3.088999987E-1
3.087880000E1;4.350999892E-1;8.205999732E-1;-3.173999786E-1
3.089865313E1;7.813999653E-1;1.289999932E-1;-2.045899868E0
3.091850469E1;4.165000021E-1;-1.563999951E-1;-2.125799894E0
3.093835625E1;5.194000006E-1;7.859999686E-2;-1.349499941E0
3.095821094E1;6.419000030E-1;6.007999778E-1;-6.717999578E-1
3.097806406E1;9.640000015E-2;7.951999903E-1;-1.169999987E-1
3.099791562E1;-4.768999815E-1;6.184999943E-1;3.455999792E-1
3.101776719E1;-7.718999982E-1;1.392000020E-1;4.118999839E-1
3.103762031E1;-2.201000005E-1;1.709000021E-1;-1.265999973E-1
3.105747188E1;3.035999835E-1;6.735999584E-1;-1.340099931E0
3.107732500E1;4.149999917E-1;8.148999810E-1;-2.025599957E0
3.109717813E1;6.434999704E-1;5.381999612E-1;-2.087699890E0
3.111703125E1;7.148999572E-1;5.561000109E-1;-1.867100000E0
3.113688438E1;6.089999676E-1;1.001699924E0;-1.840799928E0
3.115673594E1;8.755999804E-1;1.901199937E0;-1.379699945E0
3.117658906E1;7.500999570E-1;2.598199844E0;-5.812999606E-1
3.119644062E1;3.901000023E-1;2.357199907E0;-8.812999725E-1
3.121629375E1;2.172999978E-1;2.324499846E0;-1.642899990E0
3.123614688E1;-2.110999972E-1;2.694499969E0;-2.457499981E0
3.125600000E1;-4.194999933E-1;2.990700006E0;-2.541100025E0
3.127585156E1;6.019999981E-1;2.881099939E0;-1.020099998E0
3.129570469E1;1.337299943E0;2.642999887E0;1.020900011E0
3.131555781E1;2.113000005E-1;1.769499898E0;1.981299996E0
3.133540938E1;-1.434199929E0;-1.172999963E-1;1.646299958E0
3.135526250E1;-1.726300001E0;-2.382200003E0;-1.296000034E-1
3.137511563E1;6.007999778E-1;-4.347799778E0;-1.392199993E0
3.139496719E1;3.449699879E0;-5.030099869E0;-1.084699988E0
3.141482031E1;3.819299936E0;-5.915899754E0;-3.190999925E-1
3.143467344E1;1.119699955E0;-4.815199852E0;1.103600025E0
3.145452656E1;-2.324999869E-1;-2.248399973E0;2.572299957E0
3.147437812E1;3.439999819E-1;-7.069000006E-1;2.649699926E0
3.149423125E1;1.326499939E0;-7.444999814E-1;1.562600017E0
3.151408438E1;1.675999999E0;-2.042099953E0;8.662999868E-1
3.153393594E1;1.676599979E0;-3.150799990E0;1.363999993E-1
3.155378906E1;1.027500033E0;-3.320999861E0;-1.772999913E-1
3.157364219E1;6.495000124E-1;-3.194999933E0;1.381999999E-1
3.159349531E1;5.439000130E-1;-2.721099854E0;7.914999723E-1
3.161334531E1;3.712999821E-1;-1.855299950E0;8.478999734E-1
3.163319844E1;7.119999826E-2;-1.712199926E0;7.494999766E-1
3.165305156E1;1.234999970E-1;-1.614199996E0;5.582000017E-1
3.167290469E1;-1.896999925E-1;-1.274899960E0;3.479999900E-1
3.169275781E1;-1.052299976E0;-1.346300006E0;8.410000056E-2
3.171260938E1;-1.763700008E0;-1.818099976E0;-1.787000000E-1
3.173246250E1;-1.975999951E0;-2.168099880E0;-1.964999884E-1
3.175231562E1;-2.083499908E0;-2.082200050E0;-7.779999822E-2
3.177216875E1;-2.228699923E0;-1.705500007E0;-4.960999787E-1
3.179202031E1;-2.206599951E0;-1.201300025E0;-7.281999588E-1
3.181187344E1;-1.832899928E0;-4.260999858E-1;-3.280999959E-1
3.183172656E1;-1.625299931E0;-3.219999745E-2;2.076999992E-1
3.185157969E1;-1.552399993E0;1.565999985E-1;7.719999552E-1
3.187143125E1;-1.674799919E0;7.287999988E-1;1.162799954E0
3.189128438E1;-9.325999618E-1;1.665599942E0;1.269899964E0
3.191113750E1;9.179999828E-1;2.305099964E0;1.272099972E0
3.193098906E1;3.055599928E0;3.267099857E0;1.417799950E0
3.195084219E1;2.862999916E0;3.484200001E0;1.649999917E-1
3.197069375E1;2.735999823E-1;3.218499899E0;-7.340999842E-1
3.199054688E1;-9.796999693E-1;2.599099874E0;1.041999981E-1
3.201040000E1;8.985999823E-1;2.402299881E0;4.403999746E-1
3.203025156E1;2.770799875E0;3.177099943E0;-7.766999602E-1
3.205010469E1;1.477199912E0;3.009699821E0;-1.965899944E0
3.206995781E1;3.401999772E-1;1.875399947E0;-2.187399864E0
3.208980938E1;1.935999990E-1;1.364499927E0;-2.113199949E0
3.210966250E1;4.091999829E-1;1.812699914E0;-9.244999886E-1
3.212951562E1;4.483999908E-1;1.988599896E0;-6.197999716E-1
3.214936719E1;7.035999894E-1;2.009899855E0;-2.300999910E-1
3.216922188E1;1.008000016E0;1.816699982E0;3.007999957E-1
3.218907344E1;1.116599917E0;1.463999987E0;3.788999915E-1
3.220892656E1;9.801999927E-1;9.340999722E-1;5.253999829E-1
3.222877813E1;6.669999957E-1;6.976000071E-1;3.411999941E-1
3.224863125E1;2.938999832E-1;1.281599998E0;5.088999867E-1
3.226848438E1;-7.989999652E-2;2.326799870E0;9.623000026E-1
3.228833750E1;-1.394999921E-1;3.222899914E0;8.280999660E-1
3.230818906E1;-3.845999837E-1;3.505299807E0;3.225999773E-1
3.232804219E1;-6.387999654E-1;3.378099918E0;-5.177000165E-1
3.234789375E1;-9.319999814E-1;2.550799847E0;-7.199999690E-1
3.236774688E1;-5.478999615E-1;1.858899951E0;-8.255999684E-1
3.238760000E1;4.943999946E-1;1.408100009E0;-5.417999625E-1
3.240745312E1;1.527300000E0;8.447999954E-1;1.080999970E-1
3.242730469E1;1.873899937E0;8.876999617E-1;1.124499917E0
3.244715781E1;3.578999937E-1;-1.342999935E-1;2.093600035E0
3.246701094E1;-1.439399958E0;-1.603699923E0;2.426899910E0
3.248686250E1;-2.175099850E0;-2.648000002E0;1.066699982E0
3.250671563E1;-2.039599895E0;-3.651999950E0;8.859999478E-2
3.252656875E1;-1.334999949E-1;-3.862699986E0;6.610000134E-2
3.254642031E1;1.178799987E0;-3.569799900E0;-4.045999944E-1
3.256627344E1;1.428099990E0;-3.469599962E0;-1.198599935E0
3.258612656E1;1.308499932E0;-3.134299994E0;-1.200500011E0
3.260597969E1;1.535499930E0;-2.727299929E0;-1.073799968E0
3.262583125E1;1.438599944E0;-1.904399991E0;-1.243999958E0
3.264568438E1;8.460999727E-1;-2.816999853E-1;-1.697299957E0
3.266553750E1;3.587999940E-1;1.175199986E0;-2.054699898E0
3.268538906E1;-4.275999963E-1;1.635299921E0;-2.224499941E0
3.270524219E1;-1.041299939E0;7.379999757E-1;-1.362499952E0
3.272509531E1;-1.184899926E0;-1.779999956E-2;-7.728999853E-1
3.274494844E1;-1.003000021E0;-1.801999956E-1;-6.485999823E-1
3.276480000E1;-7.120999694E-1;5.819999799E-2;-8.588999510E-1
3.278465313E1;-3.910000026E-1;6.859999895E-2;-1.037299991E0
3.280450625E1;1.281999946E-1;-1.489000022E-1;-1.188799977E0
3.282435781E1;3.928999901E-1;-3.698000014E-1;-9.441999793E-1
3.284421094E1;3.949999809E-2;-4.528999925E-1;-3.755999804E-1
3.286406406E1;8.799999952E-2;-1.260000020E-1;1.873999983E-1
3.288391562E1;9.417999983E-1;3.500000015E-2;4.107999802E-1
3.290376875E1;1.385699987E0;7.360000163E-2;2.186999917E-1
3.292362188E1;5.346999764E-1;-9.584999681E-1;2.710999846E-1
3.294347500E1;-2.419999987E-2;-2.097499847E0;4.839999974E-1
3.296332656E1;1.201999933E-1;-1.907399893E0;9.922999740E-1
3.298317812E1;-3.210999966E-1;-8.244999647E-1;8.428999782E-1
3.300303125E1;-5.909999609E-1;1.179399967E0;-4.320999980E-1
3.302288438E1;4.483999908E-1;2.483999968E0;-2.139400005E0
3.304273750E1;9.202999473E-1;2.447700024E0;-2.726699829E0
3.306259062E1;4.335999787E-1;7.992999554E-1;-2.947099924E0
3.308244219E1;4.769999906E-2;-7.652999759E-1;-3.149999857E0
3.310229531E1;-2.600000007E-3;-8.901000023E-1;-2.214499950E0
3.312214844E1;6.000000052E-3;-4.496999979E-1;-1.062500000E0
3.314200156E1;-3.390000015E-2;-1.242999956E-1;-2.451999933E-1
3.316185312E1;-3.269999847E-2;-5.661999583E-1;8.869999647E-2
3.318170625E1;3.889999911E-2;-1.486999989E0;5.499999970E-3
3.320155938E1;-3.759999946E-2;-2.310299873E0;1.719999872E-2
3.322141094E1;-2.038999945E-1;-2.977799892E0;2.484999895E-1
3.324126250E1;1.409000009E-1;-3.274600029E0;3.781999946E-1
3.326111719E1;8.509999514E-1;-3.125499964E0;4.490999877E-1
3.328096875E1;6.477000117E-1;-2.188999891E0;2.816999853E-1
3.330082031E1;2.439999878E-1;-1.412899971E0;-7.389999926E-2
3.332067344E1;1.102399945E0;-3.585999906E-1;1.436000019E-1
3.334052812E1;2.601599932E0;2.160899878E0;-1.513999999E-1
3.336037969E1;1.002099991E0;3.988399982E0;-2.301999927E-1
3.338023125E1;-1.554999948E0;4.405900002E0;4.844999909E-1
3.340008594E1;-2.062299967E0;3.856599808E0;1.113499999E0
3.341993750E1;3.974999785E-1;3.562500000E0;8.151999712E-1
3.343979062E1;2.136800051E0;3.403999805E0;-6.239999831E-2
3.345964219E1;2.016399860E0;3.268199921E0;-8.916999698E-1
3.347949531E1;1.253700018E0;3.181099892E0;-6.110000014E-1
3.349934844E1;9.203999639E-1;2.865099907E0;-6.947000027E-1
3.351920000E1;6.784999967E-1;2.040699959E0;-1.640199900E0
3.353905312E1;8.540000021E-2;8.739999533E-1;-2.396699905E0
3.355890625E1;-4.991999865E-1;-1.950000040E-2;-2.445999861E0
3.357875938E1;-8.100999594E-1;-8.156999946E-1;-2.089699984E0
3.359861094E1;-1.475199938E0;-1.508399963E0;-1.965699911E0
3.361846406E1;-2.064599991E0;-1.485599995E0;-1.361199975E0
3.363831563E1;-2.538699865E0;-5.719999671E-1;-8.212999701E-1
3.365816875E1;-2.179999828E0;3.438999951E-1;-1.662999988E-1
3.367802656E1;-9.177999496E-1;9.422999620E-1;9.315999746E-1
3.369787344E1;1.006999984E-1;6.065999866E-1;1.430299997E0
3.371772656E1;2.610499859E0;1.631999910E-1;1.532299995E0
3.373757969E1;6.552700043E0;-1.289999932E-1;1.137699962E0
3.375743281E1;4.571199894E0;-1.551399946E0;9.426999688E-1
3.377730469E1;9.497999549E-1;-6.659999490E-2;8.041999936E-1
3.379713750E1;5.270999670E-1;9.998999834E-1;3.655999899E-1
3.381699062E1;1.633700013E0;-1.113199949E0;-3.648699999E0
3.383684219E1;7.680000067E-1;-2.241299868E0;-5.030200005E0
3.385669531E1;-1.438699961E0;-1.862499952E0;-3.124099970E0
3.387654844E1;-2.739599943E0;-1.846999973E-1;-1.004999951E-1
3.389640156E1;-3.400199890E0;1.222399950E0;2.343299866E0
3.391625313E1;-3.006299973E0;1.284299970E0;3.360399961E0
3.393610625E1;-1.823399901E0;3.021999896E-1;2.556399822E0
3.395595938E1;-6.992999911E-1;-1.147199988E0;7.513999939E-1
3.397581094E1;-5.099999905E-2;-2.136399984E0;2.446999997E-1
3.399566406E1;4.124999940E-1;-2.705499887E0;7.228999734E-1
3.401551719E1;1.483699918E0;-2.231499910E0;6.250000000E-2
3.403536875E1;1.641099930E0;-1.341899991E0;3.504000008E-1
3.405522188E1;1.787099957E0;-1.485199928E0;6.168999672E-1
3.407507500E1;1.875199914E0;-1.440299988E0;4.905999899E-1
3.409492812E1;9.276999831E-1;-3.572999835E-1;3.851999938E-1
3.411477969E1;-1.295699954E0;1.986400008E0;2.485999912E-1
3.413463281E1;-7.939999700E-1;3.377499819E0;-1.142599940E0
3.415448594E1;2.198999971E-1;2.517400026E0;-2.483000040E0
3.417433750E1;8.502999544E-1;1.396799922E0;-2.194499969E0
3.419419063E1;5.099999905E-1;1.080699921E0;-1.384699941E0
3.421404375E1;7.770000100E-1;1.333599925E0;-4.824000001E-1
3.423389688E1;1.063199997E0;1.454199910E0;-2.342000008E-1
3.425374844E1;4.092999995E-1;9.532999992E-1;-1.161199927E0
3.427360156E1;3.342999816E-1;9.217000008E-1;-1.362800002E0
3.429345312E1;4.560999870E-1;1.165400028E0;-1.031499982E0
3.431330625E1;2.056999952E-1;1.090999961E0;-1.109899998E0
3.433315938E1;-8.329999447E-2;6.782999635E-1;-8.728999496E-1
3.435301094E1;-1.861999929E-1;1.389999967E-2;-7.710999846E-1
3.437286406E1;1.124999970E-1;-1.723999977E-1;-9.865999818E-1
3.439271719E1;3.409999907E-1;-5.599999800E-2;-6.678000093E-1
3.441257031E1;3.522000015E-1;1.380999982E-1;-3.403999805E-1
3.443242344E1;2.157000005E-1;3.957999945E-1;-4.219999909E-1
3.445227344E1;2.361999899E-1;5.048999786E-1;-4.089999795E-1
3.447212813E1;3.159999847E-1;6.762999892E-1;-5.552999973E-1
3.449197969E1;2.981999815E-1;5.126999617E-1;-4.778999984E-1
3.451183281E1;8.460000157E-2;4.099999964E-1;-2.527000010E-1
3.453168594E1;-7.880000025E-2;2.990999818E-1;-3.197999895E-1
3.455153906E1;-2.522000074E-1;4.470999837E-1;-4.635999799E-1
3.457139062E1;-8.772999644E-1;4.685999751E-1;-4.890999794E-1
3.459124219E1;-1.258799911E0;6.730999947E-1;-4.386000037E-1
3.461109531E1;-5.329999924E-1;9.357999563E-1;2.113999873E-1
3.463094844E1;1.650999933E-1;7.132999897E-1;8.570999503E-1
3.465080000E1;6.198999882E-1;-1.220999956E-1;1.148599982E0
3.467065312E1;9.095000029E-1;-1.177699924E0;9.121999741E-1
3.469050625E1;2.142999887E0;-1.215699911E0;6.683999896E-1
3.471035938E1;1.275499940E0;-3.816999793E-1;1.148800015E0
3.473021250E1;-7.243999839E-1;3.731999993E-1;1.492900014E0
3.475006563E1;-8.154999614E-1;9.257999659E-1;2.016999960E0
3.476991719E1;1.121699929E0;-2.745999992E-1;-3.545999825E-1
3.478977031E1;3.327999830E0;-2.043499947E0;-4.023099899E0
3.480962344E1;1.738199949E0;-2.878499985E0;-4.618499756E0
3.482947500E1;5.331999660E-1;-1.617999911E0;-2.348199844E0
3.484932812E1;3.328000009E-1;-1.678999960E-1;2.565000057E-1
3.486917969E1;-3.375999928E-1;-2.515999973E-1;8.876999617E-1
3.488903281E1;-1.135900021E0;-4.117999971E-1;4.097999930E-1
3.490888594E1;-1.254999995E0;-7.050999999E-1;6.030000001E-2
3.492873906E1;-6.376999617E-1;-8.810999990E-1;-3.452000022E-1
3.494859062E1;-4.219999909E-1;-6.924999952E-1;-5.885999799E-1
3.496844375E1;-4.104999900E-1;-8.506999612E-1;-8.111000061E-1
3.498829531E1;-2.900999784E-1;-1.065799952E0;-8.468999863E-1
3.500815625E1;6.499999668E-3;-1.487599969E0;-6.453999877E-1
3.502800156E1;3.711999953E-1;-2.236199856E0;-1.577000022E-1
3.504785312E1;4.899999797E-1;-2.923599958E0;2.870000005E-1
3.506770625E1;2.999999851E-4;-3.301800013E0;5.120999813E-1
3.508755938E1;-6.474999785E-1;-3.463799953E0;7.981999516E-1
3.510741094E1;-7.379999757E-1;-3.310199976E0;1.127300024E0
3.512726406E1;-6.708999872E-1;-2.998199940E0;9.575999975E-1
3.514711719E1;-7.789999843E-1;-3.005899906E0;5.882999897E-1
3.516697031E1;3.583000004E-1;-3.066799879E0;3.971000016E-1
3.518682188E1;1.388199925E0;-2.800499916E0;6.388999820E-1
3.520667500E1;1.288299918E0;-1.974199891E0;1.118600011E0
3.522652812E1;1.303499937E0;-5.525000095E-1;1.221300006E0
3.524638125E1;1.158100009E0;1.845699906E0;-1.588999927E-1
3.526623281E1;-9.037999511E-1;3.564499855E0;-1.356899977E0
3.528608594E1;-2.404399872E0;3.818599939E0;-1.919099927E0
3.530593906E1;-1.395399928E0;3.050099850E0;-2.152899981E0
3.532579062E1;-3.819999844E-2;1.632799983E0;-2.105399847E0
3.534564375E1;1.286399961E0;5.748000145E-1;-1.518499970E0
3.536549688E1;1.692499995E0;1.166899920E0;-1.219999939E-1
3.538534844E1;1.001399994E0;2.792199850E0;4.219999909E-1
3.540520156E1;5.850999951E-1;2.843099833E0;-5.874999762E-1
3.542505469E1;2.043999881E-1;1.626999974E0;-4.587999880E-1
3.544490781E1;2.090999931E-1;7.281000018E-1;-7.791999578E-1
3.546475938E1;-1.902000010E-1;4.569999874E-1;-1.152099967E0
3.548461250E1;3.139999881E-2;1.480599999E0;-1.133299947E0
3.550446562E1;1.592999995E-1;2.151399851E0;-5.128999949E-1
3.552431719E1;4.967999756E-1;1.493399978E0;-5.959999934E-2
3.554417031E1;6.667999625E-1;1.209399939E0;6.884999871E-1
3.556402344E1;8.866999745E-1;9.979999661E-1;1.030999944E-1
3.558387500E1;1.338299990E0;1.323300004E0;-6.125000119E-1
3.560372812E1;1.787400007E0;1.654399991E0;-6.949999928E-1
3.562357969E1;1.736999989E0;1.285899997E0;-7.348999977E-1
3.564343438E1;1.254799962E0;9.326999784E-1;-4.775999784E-1
3.566328594E1;6.937999725E-1;1.246899962E0;9.699999541E-2
3.568313906E1;4.870999753E-1;1.875299931E0;4.395999908E-1
3.570299219E1;6.248999834E-1;2.107599974E0;3.441999853E-1
3.572284375E1;8.223999739E-1;2.125799894E0;1.692000031E-1
3.574269688E1;6.766999960E-1;1.650200009E0;-3.629999980E-2
3.576255000E1;7.166000009E-1;1.564299941E0;1.964000016E-1
3.578240156E1;8.937000036E-1;1.851399899E0;3.100999892E-1
3.580225469E1;6.498000026E-1;2.088599920E0;4.571999907E-1
3.582210781E1;1.708000004E-1;1.699800014E0;3.437999785E-1
3.584196094E1;-1.608999968E-1;1.125000000E0;2.065999955E-1
3.586181094E1;-6.100999713E-1;7.556999922E-1;1.634999961E-1
3.588166406E1;-1.117799997E0;4.230999947E-1;1.499999911E-1
3.590151719E1;-1.272799969E0;3.308999836E-1;2.674999833E-1
3.592137031E1;-1.075099945E0;4.220999777E-1;2.818999887E-1
3.594122188E1;-1.005200028E0;5.293999910E-1;3.445999920E-1
3.596107656E1;-1.298099995E0;6.110000014E-1;1.832999885E-1
3.598092969E1;-1.482999921E0;6.966999769E-1;1.789999940E-2
3.600078125E1;-1.177899957E0;7.971000075E-1;-1.577999890E-1
3.602063438E1;-6.380000114E-1;1.128700018E0;-4.195999801E-1
3.604048594E1;-4.318999946E-1;1.336499929E0;-6.020999551E-1
3.606033906E1;-4.799000025E-1;1.399099946E0;-6.473999619E-1
3.608019062E1;-5.160999894E-1;1.141299963E0;-8.564999700E-1
3.610004375E1;1.050999984E-1;8.191999793E-1;-9.003999829E-1
3.611989688E1;4.013999999E-1;9.354999661E-1;-9.664999843E-1
3.613975000E1;2.856999934E-1;1.358699918E0;-7.835999727E-1
3.615960156E1;1.213999987E-1;1.791399956E0;-3.343999982E-1
3.617945469E1;6.520000100E-2;2.424900055E0;-2.821999788E-1
3.619930781E1;1.079999935E-2;2.816900015E0;-6.765999794E-1
3.621915938E1;-1.228000000E-1;2.496999979E0;-1.487499952E0
3.623901250E1;1.536999941E0;8.649999499E-1;-1.103399992E0
3.625886563E1;1.158900023E0;-7.379999757E-2;-5.480999947E-1
3.627871719E1;-1.101999998E0;-1.759999990E-1;-4.940999746E-1
3.629857031E1;-1.734699965E0;7.099999785E-1;-4.578999877E-1
3.631842344E1;-3.509999812E-1;1.890699983E0;-1.139400005E0
3.633827500E1;4.102999866E-1;3.139999881E-2;-2.490299940E0
3.635812812E1;2.124099970E0;-1.768599987E0;3.359999880E-2
3.637798125E1;2.391899824E0;-3.414199829E0;9.767999649E-1
3.639783281E1;2.198499918E0;-3.785300016E0;7.635999918E-1
3.641768594E1;2.590600014E0;-1.737399936E0;5.522999763E-1
3.643753906E1;3.874699831E0;-4.087999761E-1;-5.049999803E-2
3.645739219E1;5.159599781E0;-9.165999889E-1;-1.648499966E0
3.647724375E1;4.568900108E0;-2.276599884E0;-2.965299845E0
3.649709688E1;2.160799980E0;-2.936899900E0;-1.604999900E0
3.651695000E1;3.095999956E-1;-3.292899847E0;-1.164999977E-1
3.653680156E1;-7.549999952E-1;-3.237399817E0;1.421999931E-1
3.655665469E1;-1.533399940E0;-2.675400019E0;-4.453999996E-1
3.657650781E1;-1.749799967E0;-1.785299897E0;-1.530999988E-1
3.659635938E1;-1.637699962E0;-7.400999665E-1;8.208999634E-1
3.661621250E1;-1.365700006E0;-1.753000021E-1;1.309000015E0
3.663606562E1;-2.987000048E-1;-2.565000057E-1;1.224699974E0
3.665591875E1;2.872000039E-1;-4.305000007E-1;9.340999722E-1
3.667577031E1;1.463999897E-1;-6.579999924E-1;1.157699943E0
3.669562344E1;-5.558999777E-1;-8.646000028E-1;1.526799917E0
3.671547656E1;-7.497999668E-1;-1.206200004E0;2.152799845E0
3.673532969E1;-3.683999777E-1;-1.947799921E0;2.345199823E0
3.675518125E1;3.889999986E-1;-2.101399899E0;1.763299942E0
3.677503438E1;-1.659999937E-1;-1.512799978E0;1.359499931E0
3.679488594E1;-7.493000031E-1;-1.726999998E0;1.369400024E0
3.681473906E1;-1.188499928E0;-2.113800049E0;9.001999497E-1
3.683459219E1;-1.090499997E0;-2.492899895E0;5.030999780E-1
3.685444531E1;-1.677999943E-1;-2.813799858E0;5.827999711E-1
3.687429688E1;4.020999968E-1;-2.557199955E0;4.126999974E-1
3.689415000E1;5.117999911E-1;-1.581499934E0;6.480000168E-2
3.691400312E1;-3.583999872E-1;-5.733999610E-1;2.329999954E-2
3.693385469E1;-1.628999949E0;-1.280999929E-1;3.146999776E-1
3.695370781E1;-2.948099852E0;1.008999944E-1;4.433999956E-1
3.697356094E1;-3.687899828E0;1.859999895E-1;3.061999977E-1
3.699341250E1;-2.730700016E0;6.503999829E-1;4.887999892E-1
3.701326562E1;-1.213699937E0;5.088999867E-1;-1.898299932E0
3.703311719E1;-6.636999846E-1;1.166999936E-1;-2.624699831E0
3.705297031E1;-1.214100003E0;-2.617999911E-1;9.420000017E-2
3.707282344E1;1.145099998E0;-3.439999744E-2;5.676999688E-1
3.709267656E1;3.773999929E0;-2.739000022E-1;-5.013999939E-1
3.711252969E1;3.913499832E0;-6.902999878E-1;-6.685000062E-1
3.713238125E1;3.043999910E0;3.440999985E-1;-1.650699973E0
3.715223438E1;3.514199972E0;7.177999616E-1;-2.596999884E0
3.717208594E1;3.713599920E0;-2.080999911E-1;-2.320099831E0
3.719193906E1;2.875599861E0;-6.559000015E-1;-1.641099930E0
3.721179219E1;2.152999878E0;-4.693999887E-1;-1.239300013E0
3.723164531E1;2.064399958E0;-1.074100018E0;-1.486699939E0
3.725149688E1;1.968299985E0;-1.795300007E0;-1.248999953E0
3.727135000E1;1.057799935E0;-9.776999950E-1;-7.107999921E-1
3.729120312E1;4.499999881E-1;5.739999935E-2;-2.782000005E-1
3.731105469E1;3.378999829E-1;4.349999875E-2;-2.090999931E-1
3.733090781E1;6.254999638E-1;1.076999977E-1;-3.326999843E-1
3.735076094E1;1.498999894E-1;-3.570000082E-2;-7.490999699E-1
3.737061406E1;-3.533000052E-1;-4.396999776E-1;-1.222899914E0
3.739046563E1;-9.790999889E-1;-2.865000069E-1;-1.118999958E0
3.741031875E1;-1.882699966E0;3.604999781E-1;5.399999674E-3
3.743017188E1;-2.516000032E0;8.806999922E-1;9.102999568E-1
3.745002500E1;-2.579999924E0;3.427999914E-1;7.076999545E-1
3.746987656E1;-1.723099947E0;-8.779999614E-1;-1.132999957E-1
3.748972969E1;-1.142599940E0;-1.813300014E0;-1.157799959E0
3.750958125E1;-9.472000003E-1;-2.486699820E0;-1.771499991E0
3.752943438E1;-8.159999549E-2;-2.898799896E0;-1.438199997E0
3.754928594E1;2.053299904E0;-1.839699984E0;-4.811999798E-1
3.756913906E1;3.405900002E0;-4.468999803E-1;3.777999878E-1
3.758899219E1;1.700500011E0;2.947999835E-1;1.007900000E0
3.760884531E1;-1.174999997E-1;1.321999907E0;1.559000015E0
3.762869688E1;-1.261000037E-1;2.182600021E0;2.128000021E0
3.764855000E1;1.262499928E0;2.684599876E0;2.990399837E0
3.766840313E1;1.356499910E0;2.193799973E0;2.308899879E0
3.768825469E1;-4.039999843E-2;1.279500008E0;4.818999767E-1
3.770810781E1;-1.511600018E0;4.143999815E-1;2.746999860E-1
3.772796094E1;-1.312899947E0;1.586999893E-1;1.292999983E0
3.774781250E1;-3.388999999E-1;7.380999923E-1;1.657099962E0
3.776766562E1;7.620000094E-2;1.263700008E0;2.019899845E0
3.778751875E1;2.109999955E-2;1.482199907E0;1.954699993E0
3.780737188E1;-1.620000005E-1;1.202099919E0;1.057099938E0
3.782722344E1;-1.392000020E-1;6.527000070E-1;2.212999910E-1
3.784707656E1;7.989999652E-2;4.630999863E-1;-3.378999829E-1
3.786692969E1;1.430999935E-1;4.095000029E-1;-9.003999829E-1
3.788678125E1;-9.300000034E-3;8.592000008E-1;-1.000599980E0
3.790663438E1;-3.519999981E-2;7.714999914E-1;-1.035099983E0
3.792648750E1;3.204999864E-1;1.855999976E-1;-9.261999726E-1
3.794633906E1;6.258000135E-1;-5.040000007E-2;-5.333999991E-1
3.796619219E1;6.748999953E-1;-2.570999861E-1;-3.450999856E-1
3.798604531E1;4.693999887E-1;-2.653999925E-1;-4.509999752E-1
3.800589688E1;4.939999804E-2;4.189999774E-2;-1.973999888E-1
3.802575000E1;-1.750000007E-2;4.484999776E-1;2.502000034E-1
3.804560312E1;1.194999963E-1;6.777999997E-1;-2.247999907E-1
3.806545625E1;1.699999906E-3;6.733999848E-1;-7.631999850E-1
3.808530781E1;1.107999980E-1;1.213500023E0;-4.521999955E-1
3.810516094E1;8.982999921E-1;2.055199862E0;5.540999770E-1
3.812501406E1;4.795999825E-1;1.954999924E0;1.435599923E0
3.814486562E1;-5.839999765E-2;1.366899967E0;1.675399899E0
3.816471875E1;-8.036999702E-1;9.127999544E-1;1.664099932E0
3.818457188E1;-1.009999990E0;7.056999803E-1;1.537299991E0
3.820442500E1;-4.801999927E-1;3.111000061E-1;1.184899926E0
3.822427656E1;3.529999852E-1;1.657999903E-1;6.426999569E-1
3.824412969E1;6.656000018E-1;1.538999975E-1;-2.029999942E-1
3.826398281E1;5.855000019E-1;1.759999990E-1;-9.929999709E-1
3.828383438E1;7.016999722E-1;4.673999846E-1;-1.246599913E0
3.830368750E1;-1.235999987E-1;-2.190000005E-2;-1.000800014E0
3.832354062E1;-6.161000133E-1;-7.140000165E-2;-3.726999760E-1
3.834339219E1;-1.362999916E0;-2.886999846E-1;2.125999928E-1
3.836324531E1;-1.883799911E0;-5.855000019E-1;1.572999954E-1
3.838309844E1;-1.255299926E0;-5.417999625E-1;1.791999936E-1
3.840295156E1;6.798999906E-1;1.278999895E-1;-3.402999938E-1
3.842280312E1;2.315399885E0;7.930000126E-2;-9.066999555E-1
3.844265625E1;1.983299971E0;-5.499999970E-2;-1.542999893E-1
3.846250781E1;7.701999545E-1;4.921999872E-1;-2.918900013E0
3.848236250E1;6.159999967E-1;6.193000078E-1;-4.031799793E0
3.850221406E1;5.940999985E-1;3.893999755E-1;-3.116899967E0
3.852206562E1;2.046999931E-1;4.436999857E-1;-1.837000012E0
3.854192031E1;-9.160000086E-2;9.049999714E-2;-1.056900024E0
3.856177188E1;7.530000061E-2;-2.671999931E-1;-4.160999954E-1
3.858162500E1;-1.799999923E-1;-2.410000004E-2;3.621000051E-1
3.860147812E1;-4.620999992E-1;4.840999842E-1;5.697999597E-1
3.862132969E1;-5.722000003E-1;7.326999903E-1;8.885999918E-1
3.864118281E1;-4.189999998E-1;2.282999903E-1;8.508999944E-1
3.866103594E1;-1.454999894E-1;-6.739999652E-1;8.489999771E-1
3.868088750E1;1.533999890E-1;-8.197999597E-1;4.099999964E-1
3.870074062E1;2.071999907E-1;-8.007000089E-1;-2.834999859E-1
3.872059219E1;9.699999541E-2;-9.030999541E-1;-8.414999843E-1
3.874044531E1;-5.446999669E-1;-4.069999754E-1;-4.693999887E-1
3.876029844E1;-1.539299965E0;6.099999882E-3;-1.784999967E-1
3.878015000E1;-1.604900002E0;2.974999845E-1;1.500999928E-1
3.880000312E1;-1.407599926E0;5.449000001E-1;3.953000009E-1
3.881985625E1;-9.371999502E-1;2.445999980E-1;-4.884999990E-1
3.883970938E1;1.622999907E-1;-5.026999712E-1;-2.470599890E0
3.885956094E1;9.948999882E-1;-1.464200020E0;-3.648599863E0
3.887941406E1;3.607999980E-1;-7.473999858E-1;-2.297199965E0
3.889926719E1;-7.207999825E-1;1.073899984E0;-7.895999551E-1
3.891911875E1;-8.059999943E-1;1.357299924E0;-1.226999983E-1
3.893897188E1;-9.420000017E-2;2.696000040E-1;-5.152999759E-1
3.895882500E1;-1.859000027E-1;-6.881999969E-1;-6.794999838E-1
3.897867656E1;-1.876999885E-1;-8.944999576E-1;-5.105999708E-1
3.899852969E1;-3.910999894E-1;-6.029999852E-1;-6.825000048E-1
3.901838281E1;-3.832999766E-1;-7.821999788E-1;-1.346699953E0
3.903823594E1;-1.030999944E-1;-1.638899922E0;-2.100800037E0
3.905808750E1;-2.382999957E-1;-2.229099989E0;-1.500499964E0
3.907794063E1;-6.663999557E-1;-2.260900021E0;-7.583999634E-1
3.909779375E1;-4.438999891E-1;-1.636399984E0;-9.517999887E-1
3.911764531E1;1.715999961E0;-1.595499992E0;-1.765699983E0
3.913749844E1;4.136199951E0;-2.378399849E0;-2.669499874E0
3.915735156E1;2.985599995E0;-3.072799921E0;-2.476799965E0
3.917720313E1;1.493600011E0;-1.835099936E0;-6.799999624E-3
3.919705625E1;-1.706399918E0;2.623699903E0;-4.068999887E-1
3.921690938E1;3.089999966E-2;4.344500065E0;-3.252300024E0
3.923676250E1;2.330699921E0;3.318499804E0;-3.535999954E-1
3.925661406E1;2.356799841E0;-5.868999958E-1;-7.843999863E-1
3.927646719E1;5.072199821E0;-4.019899845E0;9.531999826E-1
3.929632031E1;3.241400003E0;-9.113999605E-1;5.720799923E0
3.931617188E1;2.048999965E-1;2.665799856E0;6.541599751E0
3.933602500E1;-5.404999852E-1;5.212899685E0;6.355999947E0
3.935587813E1;-1.529999971E-1;5.508800030E0;4.301899910E0
3.937573125E1;1.267799973E0;4.522399902E0;2.838599920E0
3.939558125E1;1.927500010E0;2.036299944E0;1.988399982E0
3.941543594E1;2.107899904E0;2.791000009E-1;1.155099988E0
3.943528906E1;1.174299955E0;-2.926999927E-1;8.215000033E-1
3.945514063E1;2.245000005E-1;2.282999903E-1;1.091400027E0
3.947499375E1;-3.630000055E-1;1.057299972E0;1.078499913E0
3.949484688E1;-3.418000042E-1;9.881999493E-1;7.129999995E-2
3.951469844E1;-5.920000076E-1;-1.460999995E-1;-2.369999886E-1
3.953455156E1;-7.649999857E-2;-2.386000007E-1;-4.858999848E-1
3.955440469E1;-9.535999894E-1;5.680999756E-1;-2.418999970E-1
3.957425625E1;-1.300599933E0;1.559199929E0;-1.612999886E-1
3.959410938E1;-1.784699917E0;2.121799946E0;-2.439000010E-1
3.961396250E1;-1.515799999E0;1.793399930E0;-7.791999578E-1
3.963381563E1;-9.242999554E-1;9.576999545E-1;-1.001899958E0
3.965366719E1;-1.148399949E0;5.022000074E-1;-5.357999802E-1
3.967352031E1;-1.392199993E0;1.154899955E0;7.940999866E-1
3.969337344E1;-1.291499972E0;1.652400017E0;1.609599948E0
3.971322500E1;-8.059999943E-1;9.210000038E-1;7.791000009E-1
3.973307813E1;-8.449999988E-2;3.206000030E-1;-1.154999956E-1
3.975293125E1;-6.882999539E-1;-5.514000058E-1;-2.872000039E-1
3.977278281E1;-1.510499954E0;-9.243999720E-1;-7.809999585E-2
3.979263594E1;-1.864099979E0;-6.172999740E-1;-1.335999966E-1
3.981248906E1;-2.055000067E0;6.355999708E-1;-4.645999968E-1
3.983234062E1;-2.525599957E0;2.167799950E0;-3.226999938E-1
3.985219375E1;-3.213399887E0;2.412899971E0;-4.591999948E-1
3.987204531E1;-3.523999929E0;1.414699912E0;-8.452999592E-1
3.989190000E1;-2.304499865E0;1.048599958E0;-1.161299944E0
3.991175156E1;-3.407000005E-1;2.343400002E0;-1.091400027E0
3.993160469E1;4.393000007E-1;4.098400116E0;-1.340099931E0
3.995145781E1;1.644999981E-1;3.664399862E0;-1.214800000E0
3.997130938E1;3.695999980E-1;3.109499931E0;-1.061999947E-1
3.999116250E1;-1.439999975E-2;2.624500036E0;-6.171999574E-1
4.001101406E1;3.471999764E-1;2.178099871E0;-4.538999796E-1
4.003086719E1;8.102999926E-1;1.968499899E0;1.790300012E0
4.005071875E1;1.309899926E0;1.796999931E0;2.174399853E0
4.007057188E1;1.981499910E0;3.008999825E0;7.181999683E-1
4.009042500E1;2.632699966E0;4.517299652E0;3.508999944E-1
4.011027812E1;3.129199982E0;5.374000072E0;-3.066000044E-1
4.013012969E1;3.107399940E0;5.982399940E0;-9.077999592E-1
4.014998281E1;3.451699972E0;6.916499615E0;-6.966999769E-1
4.016983594E1;3.110800028E0;6.066499710E0;-7.110999823E-1
4.018968906E1;9.012800217E0;5.385799885E0;-3.669999912E-2
4.020954062E1;6.584399700E0;3.370599985E0;1.783899903E0
4.022939375E1;2.982199907E0;1.939999908E-1;7.185999751E-1
4.024924531E1;3.732100010E0;-2.972100019E0;-1.379999995E0
4.026909844E1;4.099199772E0;-4.357500076E0;-3.666800022E0
4.028895156E1;4.960000038E0;-2.650599957E0;-8.759999871E-1
