"Time (s)";"Gyroscope x (rad/s)";"Gyroscope y (rad/s)";"Gyroscope z (rad/s)"
1.407193800E-2;1.671501845E-1;2.342231758E-2;-6.494370103E-2
2.598443800E-2;1.522450745E-1;-4.045673087E-2;-5.962044746E-2
3.789537500E-2;6.174974889E-2;-1.203055456E-1;-4.577998444E-2
4.980787500E-2;-8.623671532E-2;-1.895078421E-1;-3.726277873E-2
6.172037500E-2;-1.394692659E-1;-2.108008713E-1;-5.855579674E-2
7.363131300E-2;-1.266934574E-1;-1.756673902E-1;-7.026695460E-2
8.554225000E-2;-5.749114603E-2;-1.224348471E-1;-4.365068302E-2
9.745318800E-2;-2.874557301E-2;4.258603323E-3;-4.258603230E-2
1.093656880E-1;-9.901253134E-2;2.438050359E-1;-5.855579674E-2
1.212766250E-1;-1.820552945E-1;4.311835766E-1;-4.790928960E-2
1.331875630E-1;-2.406110913E-1;4.684463739E-1;-6.707300246E-2
1.451000630E-1;-2.853264213E-1;4.471533597E-1;-9.901253134E-2
1.570110000E-1;-2.842617631E-1;3.257831633E-1;-1.266934574E-1
1.689235000E-1;-1.969604045E-1;2.416757345E-1;-9.688322991E-2
1.808344380E-1;-7.878416032E-2;5.110324174E-2;-3.726277873E-2
1.927703750E-1;1.916371472E-2;2.555162087E-2;1.809906401E-2
2.046578750E-1;1.064650808E-2;1.841845959E-1;4.790928960E-2
2.165688130E-1;-8.836601675E-2;3.236538470E-1;5.216789246E-2
2.284813130E-1;-2.171887755E-1;4.524766207E-1;7.026695460E-2
2.403922500E-1;-2.736152709E-1;4.599291682E-1;1.192408949E-1
2.523031880E-1;-2.650980651E-1;2.842617631E-1;1.767320335E-1
2.642141250E-1;-2.171887755E-1;7.133160532E-2;2.682920098E-1
2.761266250E-1;-1.852492392E-1;9.581857361E-3;3.832743168E-1
2.880375630E-1;-1.788613349E-1;8.091346174E-2;5.301961303E-1
2.999516250E-1;-1.660855263E-1;2.225120217E-1;6.068509817E-1
3.118610000E-1;-1.384046078E-1;3.885975480E-1;5.993984342E-1
3.237735000E-1;-1.234994978E-1;4.769635797E-1;6.771179438E-1
3.356844380E-1;-8.517206460E-2;4.407654405E-1;1.005030394E0
3.475969380E-1;-8.623671532E-2;4.152138233E-1;1.724734306E0
3.595110000E-1;-1.447925121E-1;3.917915225E-1;2.167629004E0
3.714281880E-1;-6.813765317E-2;1.447925121E-1;2.276223421E0
3.833313130E-1;1.022064835E-1;-2.640334070E-1;2.179340363E0
3.952422500E-1;1.841845959E-1;-5.983337760E-1;2.014319420E0
4.071547500E-1;1.075297371E-1;-8.911127448E-1;1.725798965E0
4.190766250E-1;-7.452555932E-3;-8.708843589E-1;1.487317204E0
4.309781880E-1;-1.980250627E-1;-6.526309848E-1;1.374464273E0
4.428891250E-1;-4.716403186E-1;-5.120970607E-1;1.276516318E0
4.548000630E-1;-7.250272036E-1;-3.949854672E-1;1.067844748E0
4.667125630E-1;-9.038885832E-1;-3.587873280E-1;7.037342191E-1
4.786235000E-1;-9.784141183E-1;-5.642649531E-1;4.599291682E-1
4.905360000E-1;-9.464746118E-1;-6.100449562E-1;3.523994386E-1
5.024531880E-1;-8.581085801E-1;-5.812993646E-1;4.109552205E-1
5.143594380E-1;-7.037342191E-1;-6.111095548E-1;5.514891148E-1
5.262703750E-1;-4.503473043E-1;-6.792472601E-1;6.473076940E-1
5.381813130E-1;-2.469989955E-1;-8.463973999E-1;6.281439662E-1
5.500938130E-1;-6.174974889E-2;-1.246706128E0;4.769635797E-1
5.620110000E-1;1.746027321E-1;-1.553325534E0;3.864682615E-1
5.739172500E-1;4.482180178E-1;-1.677889705E0;3.683691919E-1
5.858281880E-1;6.100449562E-1;-1.568230629E0;3.321710527E-1
5.977531880E-1;5.216789246E-1;-1.545873046E0;3.374943137E-1
6.096688130E-1;3.098133802E-1;-1.586329699E0;4.013733566E-1
6.215625630E-1;1.117883399E-1;-1.583135843E0;5.291314721E-1
6.334750630E-1;6.920230389E-2;-1.595911622E0;6.483723521E-1
6.453860000E-1;1.277581006E-1;-1.918500781E0;6.728593111E-1
6.572969380E-1;3.183306158E-1;-2.555161953E0;6.611481905E-1
6.692094380E-1;6.387904882E-1;-3.130073547E0;7.878416181E-1
6.811203750E-1;1.129594564E0;-3.686885834E0;9.911899567E-1
6.930344380E-1;1.575683236E0;-3.860424042E0;1.231801033E0
7.049438130E-1;1.776902199E0;-4.075483322E0;1.575683236E0
7.168735000E-1;1.523515344E0;-4.866518974E0;2.061164141E0
7.287672500E-1;1.225413084E0;-5.585158348E0;2.042000294E0
7.406781880E-1;9.965131879E-1;-5.439301014E0;1.557584167E0
7.525891250E-1;7.952941656E-1;-4.313965321E0;1.134917736E0
7.645016250E-1;9.070824981E-1;-2.820260048E0;1.305261970E0
7.764235000E-1;1.064650893E0;-1.896143198E0;1.795001268E0
7.883250630E-1;1.163663387E0;-9.422159791E-1;2.137818813E0
8.002360000E-1;1.192408919E0;-5.482951999E-1;2.182534218E0
8.121485000E-1;1.173245192E0;-4.194724262E-1;1.973862648E0
8.240610000E-1;1.182827115E0;-5.110324025E-1;1.713023186E0
8.359797500E-1;1.240318179E0;-7.782597542E-1;1.519256711E0
8.479000630E-1;1.258417249E0;-9.581857324E-1;1.437278628E0
8.597938130E-1;1.232865691E0;-1.024194121E0;1.389369369E0
8.717063130E-1;1.159404755E0;-9.656383395E-1;1.341460109E0
8.836188130E-1;1.074232697E0;-7.154453397E-1;1.384046078E0
8.955360000E-1;1.055068970E0;-2.831971347E-1;1.404274464E0
9.074656880E-1;1.060392261E0;4.258603454E-1;1.309520483E0
9.193516250E-1;1.034840584E0;1.062521577E0;1.207314014E0
9.312641250E-1;1.012483001E0;1.386175394E0;1.101913571E0
9.431766250E-1;1.072103381E0;1.168986678E0;8.857895136E-1
9.550875630E-1;1.198796868E0;4.854807854E-1;6.047216654E-1
9.670188130E-1;1.294615388E0;-1.873785406E-1;4.886747301E-1
9.789110000E-1;1.377658129E0;-7.143807411E-1;6.505016685E-1
9.908219380E-1;1.394692659E0;-8.719490170E-1;8.251044154E-1
1.002734438E0;1.299938679E0;-6.015277505E-1;9.219876528E-1
1.014646938E0;1.160469413E0;-1.820552945E-1;1.090202451E0
1.026556313E0;1.046551824E0;2.459343374E-1;1.230736375E0
1.038468813E0;9.773494601E-1;5.568124056E-1;1.193473577E0
1.050379750E0;9.879959822E-1;6.036570072E-1;1.034840584E0
1.062292250E0;1.105107546E0;4.003087282E-1;7.878416181E-1
1.074211000E0;1.256287932E0;1.096590385E-1;5.706528425E-1
1.086115688E0;1.398951173E0;-9.688322991E-2;5.834286809E-1
1.098026625E0;1.548002362E0;-2.949082851E-1;7.921002507E-1
1.109937563E0;1.652338147E0;-4.322482347E-1;1.000771761E0
1.121850063E0;1.694924116E0;-4.758989215E-1;1.126400590E0
1.133761000E0;1.576747894E0;-4.524766207E-1;1.147693634E0
1.145682875E0;1.353171229E0;-2.959729433E-1;1.092331767E0
1.157584438E0;1.093396425E0;-4.258603230E-2;9.837373495E-1
1.169495375E0;8.762076497E-1;5.642649531E-2;9.006946087E-1
1.181407875E0;7.484495640E-1;-1.703441292E-1;9.730908871E-1
1.193318813E0;7.324797511E-1;-5.376486778E-1;1.196667552E0
1.205237563E0;7.367383838E-1;-1.025258780E0;1.448989749E0
1.217142250E0;7.761304379E-1;-1.364882350E0;1.589523673E0
1.229053188E0;8.783369660E-1;-1.555454850E0;1.550131679E0
1.240965688E0;9.954485297E-1;-1.586329699E0;1.323361039E0
1.252876625E0;9.741555452E-1;-1.609752059E0;1.183891773E0
1.264789125E0;7.559021115E-1;-1.685342312E0;1.118947983E0
1.276700063E0;3.598519862E-1;-1.809906483E0;1.352106571E0
1.288611000E0;-2.374171317E-1;-1.894013882E0;1.967474699E0
1.300523500E0;-7.729365230E-1;-1.418114901E0;2.438050508E0
1.312436000E0;-1.161534071E0;-6.451784372E-1;2.825583220E0
1.324346938E0;-1.443666577E0;1.628915817E-1;2.949082851E0
1.336257875E0;-1.609752059E0;8.378801942E-1;2.743605137E0
1.348173500E0;-1.781160831E0;1.179633141E0;1.906789660E0
1.360081313E0;-2.185728073E0;9.613797069E-1;7.431262732E-1
1.371992250E0;-2.232572794E0;8.059406877E-1;-1.224348471E-1
1.383914125E0;-1.851427794E0;5.376486778E-1;5.962044746E-2
1.395817250E0;-1.436213970E0;1.160469428E-1;5.695881844E-1
1.407734438E0;-1.308455825E0;1.022064835E-1;5.621356368E-1
1.419639125E0;-1.295680046E0;6.749886274E-1;2.501929402E-1
1.431562563E0;-8.495913744E-1;1.326554894E0;2.768092155E-1
1.443462563E0;-5.035798550E-1;1.595911622E0;2.001543641E-1
1.455373500E0;-3.683691919E-1;1.561842799E0;-2.214473784E-1
1.467286000E0;-4.056319594E-1;1.490511179E0;-5.855579376E-1
1.479196938E0;-3.960501254E-1;1.792872071E0;-2.917143404E-1
1.491126625E0;-2.746799290E-1;2.210215092E0;2.288999259E-1
1.503021938E0;-2.427403927E-1;2.415692806E0;1.168986678E0
1.514932875E0;-2.885203660E-1;2.432727098E0;2.048388243E0
1.526843813E0;-2.469989955E-1;2.021771908E0;2.547709465E0
1.538754750E0;-2.555162087E-2;1.420244217E0;2.406111002E0
1.550667250E0;1.841845959E-1;1.018870831E0;1.600170255E0
1.562600063E0;5.632002950E-1;1.863138974E-1;4.450240433E-1
1.574489125E0;9.805434346E-1;-7.708072066E-1;-2.299645841E-1
1.586401625E0;1.502222300E0;-2.491282940E0;-4.876100719E-1
1.598312563E0;1.430890679E0;-3.034254789E0;-2.012190074E-1
1.610225063E0;5.120970607E-1;-2.028159857E0;3.619812727E-1
1.622137563E0;-1.841845959E-1;-1.554390192E0;6.835058331E-1
1.634048500E0;-2.182534188E-1;-1.368076324E0;4.673817158E-1
1.645959438E0;4.790928960E-2;-7.729365230E-1;-4.013733566E-1
1.657870375E0;1.330813617E-1;-9.155997038E-1;-1.044422507E0
1.669782875E0;-2.139948159E-1;-1.427696824E0;-1.019935489E0
1.681711000E0;-8.570439219E-1;-2.150594711E0;-6.366612315E-1
1.693606313E0;-1.330813527E0;-3.101327896E0;-3.343003690E-1
1.705517250E0;-1.588459015E0;-4.134039402E0;-1.735380888E-1
1.717428188E0;-1.370205641E0;-4.955949783E0;-3.406882659E-2
1.729346938E0;-1.025258780E0;-5.313672543E0;3.502701223E-1
1.741256313E0;-9.134704471E-1;-5.102871418E0;6.547602415E-1
1.753162563E0;-9.858666658E-1;-4.266056061E0;7.984881401E-1
1.765075063E0;-1.115754128E0;-3.156689644E0;8.133932352E-1
1.776986000E0;-1.228607059E0;-2.164435148E0;8.613025546E-1
1.788901625E0;-1.342524767E0;-1.588459015E0;8.101992607E-1
1.800809438E0;-1.467088819E0;-1.643820882E0;5.482951999E-1
1.812723500E0;-1.325490236E0;-2.099491358E0;1.362753063E-1
1.824632875E0;-1.055068970E0;-1.847169161E0;-4.141491652E-1
1.836545375E0;-7.622900009E-1;-6.089802980E-1;-9.230522513E-1
1.848456313E0;-5.259374976E-1;-3.396236300E-1;-2.214473784E-1
1.860382875E0;-8.304276317E-2;-5.759761333E-1;9.592503905E-1
1.872279750E0;1.384046078E-1;-6.494370103E-2;1.015676856E0
1.884190688E0;-3.215245605E-1;8.123285770E-1;4.343775511E-1
1.896103188E0;-6.984109282E-1;8.059406877E-1;-4.514119625E-1
1.908014125E0;-7.846476436E-1;5.451012254E-1;-1.206249356E0
1.919926625E0;-6.355965734E-1;3.555933833E-1;-1.390434027E0
1.931837563E0;-3.119426966E-1;3.449468613E-1;-1.403209805E0
1.943748500E0;-2.395464331E-1;1.916371472E-2;-1.258417249E0
1.955661000E0;-2.395464331E-1;4.045673087E-2;-1.109366179E0
1.967578188E0;-1.139176413E-1;2.853264213E-1;-1.062521577E0
1.979486000E0;3.087487519E-1;5.259374976E-1;-1.054004312E0
1.991395375E0;9.400866628E-1;6.238853931E-1;-7.346090674E-1
2.003306313E0;1.601234913E0;1.382981420E0;-5.855579674E-2
2.015218813E0;2.006866932E0;2.449761629E0;5.951398015E-1
2.027129750E0;1.386175394E0;1.777966857E0;1.051874995E0
2.039057875E0;1.511804163E-1;-3.609166443E-1;1.721540451E0
2.050953188E0;-2.704213262E-1;-4.439594150E-1;1.855686426E0
2.062871938E0;-1.490511186E-2;6.355965734E-1;1.568230629E0
2.074776625E0;1.788613349E-1;1.005030394E0;1.210507989E0
2.086687563E0;3.502701223E-1;5.493598580E-1;8.857895136E-1
2.098615688E0;6.579542160E-1;1.096590400E0;7.952941656E-1
2.110511000E0;1.061456919E0;1.241382837E0;8.016820550E-1
2.122421938E0;1.334007502E0;8.463973999E-1;9.124057889E-1
2.134334438E0;1.362753034E0;2.491282970E-1;8.070053458E-1
2.146248500E0;1.254158735E0;-1.565036774E-1;2.895850241E-1
2.158157875E0;1.192408919E0;-7.090574503E-1;-4.237310290E-1
2.170068813E0;1.092331767E0;-8.261690736E-1;-8.644964695E-1
2.181981313E0;1.019935489E0;-2.810678184E-1;-1.215831280E0
2.193892250E0;9.741555452E-1;4.854807854E-1;-1.525644660E0
2.205811000E0;8.943067193E-1;1.149822921E-1;-1.628915787E0
2.217715688E0;8.953713775E-1;-1.051874995E0;-1.909983635E0
2.229626625E0;1.108301520E0;-1.589523673E0;-1.960022211E0
2.241539125E0;1.155146122E0;-1.420244217E0;-1.519256711E0
2.253450063E0;8.655611277E-1;-1.329748869E0;-7.154453397E-1
2.265367250E0;4.375714958E-1;-1.266934514E0;1.022064835E-1
2.277296938E0;1.213701963E-1;-9.805434346E-1;4.407654405E-1
2.289184438E0;-6.281439960E-2;-1.099784374E0;7.165099978E-1
2.301096938E0;-3.449468613E-1;-7.111867666E-1;1.089137793E0
2.313007875E0;-8.815308809E-1;3.332357109E-1;1.572489262E0
2.324926625E0;-1.544808388E0;1.196667552E0;2.160176516E0
2.336831313E0;-2.032418489E0;1.307391286E0;2.720182896E0
2.348742250E0;-1.968539357E0;7.612253428E-1;3.036384106E0
2.360654750E0;-1.588459015E0;3.907268643E-1;3.423917055E0
2.372565688E0;-9.709615707E-1;-2.235766686E-2;3.744376898E0
2.384478188E0;-4.492826462E-1;-5.120970607E-1;3.883846283E0
2.396417250E0;-4.684463516E-2;-7.399323583E-1;3.916850328E0
2.408301625E0;3.353650272E-1;-9.262462258E-1;3.873199701E0
2.420212563E0;6.920230389E-1;-1.091267109E0;3.780575037E0
2.432125063E0;9.347634315E-1;-8.964360356E-1;4.406589985E0
2.444039125E0;9.379574060E-1;-2.225120217E-1;5.184849739E0
2.455948500E0;7.463202477E-1;9.816080928E-1;6.200526714E0
2.467857875E0;2.714859545E-1;2.312421560E0;7.010725975E0
2.479770375E0;-3.098133802E-1;2.879880428E0;6.954299450E0
2.491682875E0;-5.131617188E-1;4.503473043E-1;5.200819492E0
2.503593813E0;-1.905725002E-1;-4.092517853E0;3.196081877E0
2.515504750E0;1.948311031E-1;-6.319767475E0;1.735380888E0
2.527417250E0;3.002315462E-1;-5.874743462E0;1.194538236E0
2.539328188E0;3.311064243E-1;-4.482180119E0;9.794787765E-1
2.551240688E0;4.673817158E-1;-2.186792850E0;7.079927921E-1
2.563153188E0;4.748342633E-1;-3.417529166E-1;5.493598580E-1
2.575064125E0;2.278352827E-1;9.209229946E-1;4.482180178E-1
2.586975063E0;-5.323254038E-3;1.436213970E0;6.941523552E-1
2.598886000E0;-4.152138159E-2;1.431955338E0;9.517978430E-1
2.610798500E0;1.426632106E-1;1.405339122E0;1.264805198E0
2.622709438E0;3.577226698E-1;1.417050242E0;1.455377698E0
2.634636000E0;4.993212521E-1;1.536291122E0;1.443666577E0
2.646532875E0;5.632002950E-1;1.518192053E0;9.613797069E-1
2.658443813E0;5.206142664E-1;1.166857362E0;3.566580415E-1
2.670356313E0;4.056319594E-1;4.397007823E-1;-2.044129670E-1
2.682267250E0;2.576455176E-1;-1.394692659E-1;-6.121742129E-1
2.694179750E0;1.117883399E-1;-5.908812284E-1;-9.486039281E-1
2.706093813E0;2.981022373E-2;-1.134917736E0;-9.507331848E-1
2.718001625E0;9.581857920E-2;-1.527773976E0;-7.314151525E-1
2.729912563E0;2.853264213E-1;-1.563972116E0;-5.333900452E-1
2.741825063E0;5.174202919E-1;-1.286098242E0;-4.237310290E-1
2.753748500E0;7.026695609E-1;-9.901252985E-1;-4.386361539E-1
2.765648500E0;8.623671532E-1;-6.835058331E-1;-5.206142664E-1
2.777559438E0;9.816080928E-1;-2.981022298E-1;-6.196267605E-1
2.789471938E0;9.922545552E-1;5.429719388E-2;-6.728593111E-1
2.801382875E0;6.419844627E-1;4.247956872E-1;-2.235766798E-1
2.813295375E0;-2.044129670E-1;1.237124324E0;4.471533597E-1
2.825206313E0;-3.619812801E-2;1.452183723E0;6.643421054E-1
2.837118813E0;-2.150594741E-1;6.707300544E-1;2.523222566E-1
2.849029750E0;-2.203827202E-1;-3.417529166E-1;1.458571702E-1
2.860940688E0;4.471533373E-2;-1.181762457E0;3.087487519E-1
2.872853188E0;2.512575984E-1;-1.565036774E0;2.789385319E-1
2.884770375E0;3.949854672E-1;-1.050810337E0;1.203055456E-1
2.896676625E0;3.662398756E-1;3.279124498E-1;-9.155996889E-2
2.908587563E0;3.662398756E-1;1.016741514E0;-4.056319594E-1
2.920501625E0;2.246413231E-1;1.019935489E0;-7.037342191E-1
2.932411000E0;1.171115879E-2;9.762848020E-1;-9.070824981E-1
2.944336000E0;-1.937664598E-1;1.007159710E0;-1.326554894E0
2.956234438E0;-3.822096586E-1;1.065715432E0;-1.754544616E0
2.968145375E0;-5.749114752E-1;7.814537287E-1;-2.279417515E0
2.980076625E0;-5.206142664E-1;-3.044901490E-1;-2.676532269E0
2.991995375E0;-3.598519862E-1;-1.066780090E0;-2.930983782E0
3.003879750E0;-3.790156841E-1;-1.167922020E0;-3.122620821E0
3.015792250E0;-4.897393882E-1;-1.028452754E0;-3.127944231E0
3.027703188E0;-3.864682615E-1;-6.749886274E-1;-3.179047346E0
3.039615688E0;-1.607622802E-1;-2.853264213E-1;-3.045966148E0
3.051537563E0;-3.513347730E-2;-3.193952516E-2;-2.800031662E0
3.063437563E0;-6.813765317E-2;-9.475392103E-2;-2.765962839E0
3.075350063E0;-2.895850241E-1;-6.324025989E-1;-2.703148365E0
3.087261000E0;-3.449468613E-1;-1.059327602E0;-2.666950464E0
3.099173500E0;-2.533869147E-1;-8.357509375E-1;-2.927789927E0
3.111084438E0;-1.298874021E-1;-1.075297371E-1;-3.074711561E0
3.122995375E0;-1.873785406E-1;6.398551464E-1;-2.811742783E0
3.134907875E0;-4.567352235E-1;1.276516318E0;-2.467860699E0
3.146818813E0;-6.632774472E-1;1.315908432E0;-2.210215092E0
3.158743813E0;-6.206914186E-1;9.879959822E-1;-2.153788567E0
3.170642250E0;-4.758989215E-1;8.123285770E-1;-2.244283915E0
3.182553188E0;-4.822868407E-1;4.503473043E-1;-2.380559206E0
3.194465688E0;-5.972691178E-1;4.577998519E-1;-2.758510351E0
3.206376625E0;-6.856351495E-1;8.070053458E-1;-3.278059959E0
3.218296938E0;-6.771179438E-1;1.426632166E0;-3.613425016E0
3.230200063E0;-7.441909313E-1;1.949375629E0;-3.645364523E0
3.242111000E0;-7.090574503E-1;2.593489408E0;-3.485666752E0
3.254028188E0;-6.270793676E-1;2.695695877E0;-3.472891092E0
3.265934438E0;-9.443452954E-1;1.480929375E0;-3.348326921E0
3.277846938E0;-9.816080928E-1;8.581085801E-1;-3.210986853E0
3.289759438E0;-8.389448524E-1;9.038885832E-1;-3.016155720E0
3.301668813E0;-7.016049027E-1;9.241169095E-1;-2.603071213E0
3.313581313E0;-7.292858362E-1;6.292086244E-1;-2.186792850E0
3.325493813E0;-7.878416181E-1;4.066966176E-1;-2.013254642E0
3.337404750E0;-7.963588238E-1;4.216017425E-1;-2.010060787E0
3.349332875E0;-7.708072066E-1;3.343003690E-1;-1.969604015E0
3.361228188E0;-7.037342191E-1;3.108780384E-1;-1.923824072E0
3.373139125E0;-6.483723521E-1;6.441137791E-1;-1.856751084E0
3.385050063E0;-7.537727952E-1;1.087008476E0;-1.978121281E0
3.396965688E0;-8.644964695E-1;1.331878185E0;-2.114396572E0
3.408873500E0;-1.254158735E0;1.614010692E0;-2.184663534E0
3.420786000E0;-1.358494520E0;1.156210780E0;-1.951504946E0
3.432696938E0;-1.299938679E0;3.481408358E-1;-1.692794800E0
3.444609438E0;-1.055068970E0;-1.639562249E-1;-1.614010692E0
3.456525063E0;-6.898937225E-1;-4.237310290E-1;-1.358494520E0
3.468432875E0;-7.452555746E-2;-1.130659223E0;-7.825183868E-1
3.480343813E0;8.943066746E-2;-1.599105597E0;-5.589416623E-1
3.492256313E0;3.162012994E-1;-1.903595686E0;-1.407468438E0
3.504167250E0;4.918686748E-1;-2.258124352E0;-2.017513275E0
3.516078188E0;4.801575243E-1;-1.726863623E0;-2.229378939E0
3.528000063E0;6.611481905E-1;-8.187164664E-1;-1.996220350E0
3.539901625E0;4.258603454E-1;7.026695460E-2;-7.090574503E-1
3.551814125E0;-3.130073547E-1;7.207686305E-1;-3.225892186E-1
3.563725063E0;-9.134704471E-1;3.151366413E-1;1.384046115E-2
3.575637563E0;-1.050810337E0;-2.257059813E-1;2.001543641E-1
3.587557875E0;-1.291421413E0;-3.183306158E-1;-3.343003690E-1
3.599459438E0;-1.201990843E0;-8.762076497E-1;1.437278688E-1
3.611370375E0;-1.401080489E0;-1.707699895E0;-2.342231870E-1
3.623282875E0;-1.230736375E0;-8.794015646E-1;-3.917915225E-1
3.635214125E0;-6.366612315E-1;-3.673045337E-1;-2.129301727E-1
3.647106313E0;-3.939208016E-2;-4.950626493E-1;-1.937664598E-1
3.659017250E0;6.174975038E-1;-7.516434789E-1;-1.298874021E-1
3.670928188E0;1.111495495E0;-1.372334957E0;-1.107236892E-1
3.682840688E0;1.546937704E0;-2.201697826E0;-9.901253134E-2
3.694751625E0;1.643820882E0;-1.489446521E0;3.832742944E-2
3.706662563E0;1.316973090E0;-1.327619553E0;-1.522450745E-1
3.718575063E0;1.147693634E0;-8.293629885E-1;-1.213701963E-1
3.730487563E0;9.901252985E-1;-9.581857324E-1;-2.778738737E-1
3.742398500E0;9.698969126E-1;-1.572489262E0;-1.078491330E0
3.754309438E0;7.228979468E-1;-1.760932446E0;-1.368076324E0
3.766231313E0;6.004630923E-1;-1.851427794E0;-7.154453397E-1
3.778132875E0;2.384817898E-1;-1.487317204E0;4.045673087E-2
3.790043813E0;-4.492826462E-1;-1.573553920E0;2.533869147E-1
3.801956313E0;-9.986425042E-1;-1.610816717E0;-3.204599023E-1
3.813868813E0;-1.328684211E0;-1.116818786E0;-8.666257858E-1
3.825779750E0;-1.338266134E0;-9.305048585E-1;-1.065715432E0
3.837690688E0;-1.155146122E0;-1.351041913E0;-1.414920926E0
3.849603188E0;-1.002901077E0;-1.463894963E0;-1.707699895E0
3.861514125E0;-1.022064805E0;-7.154453397E-1;-1.814164996E0
3.873425063E0;-1.131723881E0;3.225892186E-1;-1.736445546E0
3.885337563E0;-9.720262289E-1;1.178568482E0;-1.492640495E0
3.897250063E0;-5.993984342E-1;2.046258926E0;-1.272257805E0
3.909168813E0;-2.342231758E-2;2.635010719E0;-9.432806373E-1
3.921073500E0;6.366612315E-1;1.788613439E0;-5.781053901E-1
3.932984438E0;9.592503905E-1;4.279896319E-1;-1.320167035E-1
3.944912563E0;8.378801942E-1;-1.181762442E-1;1.522450745E-1
3.956807875E0;4.695110321E-1;3.406882659E-2;2.523222566E-1
3.968718813E0;2.469989955E-1;3.992440701E-1;3.002315462E-1
3.980631313E0;3.300417662E-1;5.238082409E-1;5.621356368E-1
3.992548500E0;5.312607884E-1;1.969604045E-1;7.165099978E-1
4.004453188E0;7.026695609E-1;-1.820552945E-1;9.539271593E-1
4.016365688E0;8.432034850E-1;-6.206914186E-1;1.265869856E0
4.028276625E0;9.113411307E-1;-8.016820550E-1;1.237124324E0
4.040187563E0;8.559792638E-1;4.439594150E-1;1.320167035E-1
4.052132875E0;7.388677001E-1;1.898272395E0;-2.672273517E-1
4.064028188E0;6.984109282E-1;2.518963814E0;-3.385589719E-1
4.075923500E0;6.111095548E-1;2.579648972E0;-2.704213262E-1
4.087834438E0;4.801575243E-1;2.129301786E0;-1.969604045E-1
4.099745375E0;3.555933833E-1;6.292086244E-1;2.821324766E-1
4.111659438E0;1.746027321E-1;-5.110324025E-1;4.854807854E-1
4.123578188E0;-9.155996889E-2;-9.070824981E-1;2.427403927E-1
4.135481313E0;-3.875329196E-1;-5.461658835E-1;1.916371472E-2
4.147392250E0;-4.258603454E-1;4.993212521E-1;-1.096590385E-1
4.159303188E0;-7.133160830E-1;1.442601919E0;4.471533373E-2
4.171215688E0;-1.224348426E0;1.795001268E0;6.973463297E-1
4.183126625E0;-1.109366179E0;3.641105890E-1;7.708072066E-1
4.195042250E0;-6.292086244E-1;-4.407654405E-1;1.234995008E0
4.206956313E0;2.831971347E-1;-1.236059666E0;1.912112951E0
4.218861000E0;1.258417249E0;-1.372334957E0;2.346490383E0
4.230786000E0;1.722605109E0;-8.975006342E-1;2.528545856E0
4.242695375E0;1.711958528E0;-1.927018017E-1;2.462537289E0
4.254596938E0;1.467088819E0;3.790156841E-1;2.161241293E0
4.266507875E0;8.176518679E-1;7.771950960E-1;1.655532002E0
4.278418813E0;1.596976221E-1;9.081471562E-1;1.133853197E0
4.290331313E0;-2.118655145E-1;8.112639189E-1;8.996299505E-1
4.302243813E0;-2.597748041E-1;3.822096586E-1;1.186021090E0
4.314154750E0;-1.373399645E-1;-3.470761776E-1;1.563972116E0
4.326065688E0;-1.746027321E-1;-5.749114752E-1;1.655532002E0
4.337978188E0;-3.917915225E-1;-4.024380147E-1;1.357429862E0
4.349904750E0;-7.197039723E-1;-1.543743759E-1;8.921774030E-1
4.361800063E0;-1.025258780E0;3.630459309E-1;1.863138974E-1
4.373715688E0;-1.170051217E0;7.527081370E-1;-3.247185051E-1
4.385623500E0;-1.349977255E0;5.397779942E-1;-7.346090674E-1
4.397536000E0;-1.387240052E0;2.949082851E-1;-8.432034850E-1
4.409448500E0;-1.265869856E0;3.236538470E-1;-4.684463739E-1
4.421379750E0;-1.344653964E0;4.184077680E-1;-2.661627159E-2
4.433270375E0;-1.132788539E0;-6.930876970E-1;6.494370103E-2
4.445182875E0;-5.397779942E-1;-1.807777166E0;-4.503473043E-1
4.457093813E0;-3.279124498E-1;-8.112639189E-1;-7.793244123E-1
4.469004750E0;-3.311064243E-1;-4.024380147E-1;-6.664714217E-1
4.480934438E0;-1.746027321E-1;-5.216789246E-1;-4.546059072E-1
4.492828188E0;-1.596976258E-2;-1.426632106E-1;-1.352106631E-1
4.504740688E0;2.619041204E-1;1.224348426E0;-5.451012254E-1
4.516651625E0;8.304276317E-2;2.102685452E0;-8.655611277E-1
4.528562563E0;-3.002315462E-1;2.345425844E0;-7.740011811E-1
4.540484438E0;-7.218332887E-1;2.048388243E0;-5.855579674E-2
4.552386000E0;-1.052939653E0;1.632109761E0;1.024194121E0
4.564298500E0;-1.325490236E0;1.234995008E0;2.198503971E0
4.576209438E0;-1.503286958E0;1.010353684E0;2.928854465E0
4.588134438E0;-1.517127395E0;9.879959822E-1;3.232280016E0
4.600032875E0;-1.236059666E0;1.123206615E0;3.377072573E0
4.611945375E0;-7.771950960E-1;1.283968925E0;3.351520777E0
4.623856313E0;-2.874557301E-2;1.548002362E0;2.706342459E0
4.635767250E0;6.366612315E-1;1.662984610E0;5.482951999E-1
4.647678188E0;4.205370843E-1;1.089137793E0;-7.058635354E-1
4.659604750E0;-1.788613349E-1;6.100449562E-1;-4.141491652E-1
4.671501625E0;-3.971147537E-1;-1.064650831E-3;-4.045673087E-2
4.683418813E0;-1.863138974E-1;-5.674588680E-1;9.368927032E-2
4.695325063E0;2.491282970E-1;-1.142370343E0;2.054776102E-1
4.707237563E0;6.153681874E-1;-1.093396425E0;2.491282970E-1
4.719148500E0;9.241169095E-1;-3.236538470E-1;2.012190074E-1
4.731059438E0;1.219025254E0;7.644193172E-1;1.714087874E-1
4.742973500E0;1.483058572E0;1.188150287E0;1.479864717E-1
4.754882875E0;1.704506040E0;1.139176369E0;1.415985674E-1
4.766793813E0;1.708764553E0;9.741555452E-1;2.044129670E-1
4.778706313E0;1.589523673E0;8.006174564E-1;2.619041204E-1
4.790618813E0;1.318037748E0;4.939979911E-1;2.959729433E-1
4.802529750E0;1.014612198E0;4.577998444E-2;2.970375717E-1
4.814442250E0;6.590188742E-1;-5.110324025E-1;2.469989955E-1
4.826353188E0;4.162784815E-1;-6.228207350E-1;1.203055456E-1
4.838264125E0;1.096590385E-1;-3.981794119E-1;1.596976258E-2
4.850175063E0;-2.182534188E-1;-6.281439960E-2;6.387905218E-3
4.862087563E0;-5.003858805E-1;1.767320335E-1;7.771950960E-2
4.873998500E0;-6.686007380E-1;1.895078421E-1;1.117883399E-1
4.885911000E0;-8.463973999E-1;-6.707300246E-2;-1.596976258E-2
4.897821938E0;-9.837373495E-1;-3.598519862E-1;3.832742944E-2
4.909740688E0;-9.911899567E-1;-4.673817158E-1;9.155996889E-2
4.921645375E0;-9.113411307E-1;-4.620584548E-1;-1.064650808E-2
4.933556313E0;-8.591732383E-1;-5.195496082E-1;-3.321710527E-1
4.945470375E0;-9.102764726E-1;-5.238082409E-1;-4.141491652E-1
4.957392250E0;-8.123285770E-1;-2.288999259E-1;-2.981022298E-1
4.969292250E0;-6.015277505E-1;-7.346090674E-2;-1.905725002E-1
4.981203188E0;-3.289771080E-1;7.452555932E-3;-1.000771821E-1
4.993115688E0;-1.628915817E-1;2.981022373E-2;-6.813765317E-2
5.005026625E0;-1.107236892E-1;1.916371472E-2;-9.155996889E-2
5.016942250E0;-9.901253134E-2;-4.258603323E-3;-1.234994978E-1
5.028850063E0;-7.239625603E-2;-3.406882659E-2;-1.554390192E-1
5.040761000E0;-2.448697016E-2;-6.600835174E-2;-1.767320335E-1
5.052673500E0;1.490511186E-2;-7.771950960E-2;-1.831199378E-1
5.064584438E0;2.661627159E-2;-6.707300246E-2;-1.628915817E-1
5.076504750E0;1.490511186E-2;-5.749114603E-2;-1.469218135E-1
5.088407875E0;-3.193952609E-3;-6.068509817E-2;-1.458571702E-1
5.100318813E0;-1.277581044E-2;-7.878416032E-2;-1.437278688E-1
5.112231313E0;-1.703441329E-2;-7.452555746E-2;-1.171115935E-1
5.124146938E0;-3.939208016E-2;-4.258603230E-2;-1.234994978E-1
5.136081313E0;-8.517206460E-2;-5.536184460E-2;-1.511804163E-1
5.147965688E0;-1.181762442E-1;-9.794788063E-2;-1.831199378E-1
5.159876625E0;-1.362753063E-1;-1.107236892E-1;-2.044129670E-1
5.171789125E0;-1.352106631E-1;-9.688322991E-2;-2.214473784E-1
5.183700063E0;-1.309520602E-1;-8.304276317E-2;-2.331585288E-1
5.195631313E0;-1.245641485E-1;-7.133160532E-2;-2.533869147E-1
5.207523500E0;-1.096590385E-1;-4.897394031E-2;-2.768092155E-1
5.219434438E0;-8.836601675E-2;-3.726277873E-2;-3.215245605E-1
5.231346938E0;-7.346090674E-2;-2.022836544E-2;-3.736924529E-1
5.243264125E0;-6.707300246E-2;-2.129301615E-2;-3.949854672E-1
5.255176625E0;-4.790928960E-2;-4.365068302E-2;-3.960501254E-1
5.267081313E0;-2.235766686E-2;-6.600835174E-2;-3.641105890E-1
5.278992250E0;8.517206647E-3;-6.387905031E-2;-3.119426966E-1
5.290904750E0;6.387905218E-3;-1.490511186E-2;-2.395464331E-1
5.302815688E0;2.129301662E-3;-4.897394031E-2;-2.086715698E-1
5.314728188E0;-2.235766686E-2;-7.665485889E-2;-1.777966917E-1
5.326639125E0;-2.448697016E-2;-8.623671532E-2;-1.298874021E-1
5.338551625E0;-2.235766686E-2;-7.665485889E-2;-6.174974889E-2
5.350462563E0;-8.410741389E-2;-4.790928960E-2;3.193952609E-3
5.362381313E0;-2.320938855E-1;3.300417587E-2;7.346090674E-2
5.374301625E0;-4.301189482E-1;8.730136603E-2;1.213701963E-1
5.386198500E0;-6.600835323E-1;1.096590385E-1;1.224348471E-1
5.398109438E0;-8.485267162E-1;9.581857920E-2;6.813765317E-2
5.410020375E0;-1.015676856E0;2.448697016E-2;-6.707300246E-2
5.421932875E0;-1.139176369E0;1.490511186E-2;-2.438050359E-1
5.433843813E0;-1.176439166E0;7.452555746E-2;-3.832743168E-1
5.445756313E0;-1.063586235E0;8.943066746E-2;-4.354421794E-1
5.457667250E0;-8.059406877E-1;1.075297371E-1;-3.236538470E-1
5.469578188E0;-3.417529166E-1;1.192408949E-1;-1.277581006E-1
5.481490688E0;1.192408949E-1;-5.749114603E-2;-6.494370103E-2
5.493401625E0;2.661627233E-1;-1.352106631E-1;-6.068509817E-2
5.505312563E0;2.427403927E-1;-1.607622802E-1;-8.836601675E-2
5.517225063E0;1.809906363E-1;-1.703441292E-1;-1.426632106E-1
5.529136000E0;1.426632106E-1;-9.049531817E-2;-1.958957613E-1
5.541054750E0;1.352106631E-1;-3.300417587E-2;-2.001543641E-1
5.552959438E0;8.517206460E-2;3.193952609E-3;-1.596976221E-1
5.564870375E0;3.513347730E-2;2.235766686E-2;-1.224348471E-1
5.576782875E0;3.193952609E-3;5.429719388E-2;-6.068509817E-2
5.588693813E0;1.809906401E-2;8.623671532E-2;-9.581857361E-3
5.600614125E0;2.342231758E-2;1.554390192E-1;4.258603323E-3
5.612532875E0;1.384046115E-2;1.990897059E-1;-1.703441329E-2
5.624428188E0;-3.193952609E-3;2.150594741E-1;-6.494370103E-2
5.636340688E0;4.258603323E-3;1.820552945E-1;-1.192408949E-1
5.648251625E0;5.216789246E-2;1.565036774E-1;-1.586329788E-1
5.660164125E0;1.139176413E-1;1.639562249E-1;-1.724734306E-1
5.672075063E0;1.916371584E-1;1.511804163E-1;-1.469218135E-1
5.683986000E0;2.576455176E-1;1.352106631E-1;-9.581857920E-2
5.695898500E0;2.874557376E-1;1.117883399E-1;-6.068509817E-2
5.707809438E0;2.523222566E-1;9.049531817E-2;-5.216789246E-2
5.719721938E0;1.809906363E-1;7.665485889E-2;-6.174974889E-2
5.731650063E0;8.517206460E-2;6.387905031E-2;-8.730136603E-2
5.743543813E0;-9.581857361E-3;5.962044746E-2;-9.794788063E-2
5.755456313E0;-1.043357849E-1;6.707300246E-2;-9.049531817E-2
5.767367250E0;-1.618269235E-1;9.262461960E-2;-5.962044746E-2
5.779284438E0;-1.990897059E-1;1.203055456E-1;-2.129301615E-2
5.791196938E0;-2.257059813E-1;1.054004356E-1;7.452555932E-3
5.803104750E0;-2.512575984E-1;9.901253134E-2;2.235766686E-2
5.815014125E0;-2.906496823E-1;6.707300246E-2;2.981022373E-2
5.826925063E0;-3.396236300E-1;7.452555932E-3;1.171115879E-2
5.838845375E0;-3.736924529E-1;-5.003859103E-2;-3.193952516E-2
5.850748500E0;-3.736924529E-1;-5.855579674E-2;-7.878416032E-2
5.862661000E0;-3.385589719E-1;-1.277581044E-2;-1.426632106E-1
5.874571938E0;-3.012961745E-1;6.494370103E-2;-1.820552945E-1
5.886484438E0;-2.406110913E-1;1.533097178E-1;-2.012190074E-1
5.898395375E0;-2.012190074E-1;1.586329788E-1;-1.884431988E-1
5.910323500E0;-1.777966917E-1;9.581857920E-2;-1.724734306E-1
5.922218813E0;-1.809906363E-1;2.874557301E-2;-2.044129670E-1
5.934129750E0;-1.809906363E-1;-8.517206647E-3;-2.608394623E-1
5.946042250E0;-1.660855263E-1;-3.939208016E-2;-3.002315462E-1
5.957953188E0;-1.501157731E-1;-4.365068302E-2;-3.247185051E-1
5.969864125E0;-1.671501845E-1;4.684463516E-2;-3.683691919E-1
5.981776625E0;-2.320938855E-1;1.990897059E-1;-4.599291682E-1
5.993687563E0;-2.714859545E-1;2.214473784E-1;-6.292086244E-1
6.005600063E0;-2.544515431E-1;4.045673087E-2;-7.633546591E-1
6.017514125E0;-2.938436270E-1;6.387905218E-3;-6.717946529E-1
6.029423500E0;-3.843389452E-1;1.309520602E-1;-4.184077680E-1
6.041337563E0;-4.354421794E-1;2.044129670E-1;-2.831971347E-1
6.053245375E0;-4.279896319E-1;1.543743759E-1;-3.002315462E-1
6.065157875E0;-4.471533597E-1;1.394692659E-1;-3.130073547E-1
6.077068813E0;-4.780282378E-1;2.086715698E-1;-2.714859545E-1
6.089004750E0;-4.663170576E-1;1.746027321E-1;-2.544515431E-1
6.100892250E0;-3.928561509E-1;4.897394031E-2;-2.310292274E-1
6.112803188E0;-2.981022298E-1;2.235766686E-2;-1.927018017E-1
6.124715688E0;-2.054776102E-1;1.639562249E-1;-1.352106631E-1
6.136628188E0;-1.085943878E-1;3.374943137E-1;-7.771950960E-2
6.148539125E0;-5.962044746E-2;4.216017425E-1;-2.768092230E-2
6.160450063E0;-8.517206460E-2;3.577226698E-1;7.452555932E-3
6.172370375E0;-1.980250627E-1;2.320938855E-1;7.452555932E-3
6.184273500E0;-3.949854672E-1;1.490511149E-1;7.452555932E-3
6.196184438E0;-5.972691178E-1;7.026695460E-2;4.258603323E-3
6.208095375E0;-7.324797511E-1;2.342231758E-2;4.258603323E-3
6.220023500E0;-8.208457828E-1;-3.406882659E-2;3.193952609E-3
6.231918813E0;-8.655611277E-1;-7.026695460E-2;1.596976258E-2
6.243829750E0;-8.794015646E-1;-1.171115935E-1;3.513347730E-2
6.255742250E0;-8.400095105E-1;-1.373399645E-1;6.068509817E-2
6.267653188E0;-7.239625454E-1;-1.831199378E-1;1.054004356E-1
6.279565688E0;-5.887519121E-1;-2.342231870E-1;1.873785406E-1
6.291476625E0;-4.844161272E-1;-2.193180770E-1;2.629687488E-1
6.303389125E0;-4.812221825E-1;-6.281439960E-2;3.140719831E-1
6.315307875E0;-4.577998519E-1;-6.387905218E-3;3.673045337E-1
6.327229750E0;-3.949854672E-1;-8.517206460E-2;4.258603454E-1
6.339131313E0;-3.673045337E-1;-5.962044746E-2;4.758989215E-1
6.351039125E0;-4.386361539E-1;7.559020817E-2;4.780282378E-1
6.362946938E0;-5.333900452E-1;8.730136603E-2;4.247956872E-1
6.374857875E0;-5.834286809E-1;7.026695460E-2;3.513347805E-1
6.386770375E0;-5.940751433E-1;3.832742944E-2;2.853264213E-1
6.398682875E0;-5.759761333E-1;1.171115879E-2;2.650980651E-1
6.410593813E0;-5.152910352E-1;2.235766686E-2;2.682920098E-1
6.422504750E0;-4.013733566E-1;-9.581857361E-3;2.469989955E-1
6.434423500E0;-2.938436270E-1;-8.623671532E-2;1.788613349E-1
6.446332875E0;-2.257059813E-1;-1.863138974E-1;3.939208016E-2
6.458239125E0;-2.374171317E-1;-2.214473784E-1;-1.043357849E-1
6.470151625E0;-2.949082851E-1;-1.777966917E-1;-2.438050359E-1
6.482062563E0;-3.449468613E-1;-1.341460049E-1;-3.492054641E-1
6.493998500E0;-3.800803423E-1;-1.139176413E-1;-4.130845368E-1
6.505895375E0;-3.662398756E-1;-1.192408949E-1;-4.247956872E-1
6.517798500E0;-2.821324766E-1;-1.990897059E-1;-4.216017425E-1
6.529709438E0;-1.767320335E-1;-3.023608327E-1;-4.184077680E-1
6.541620375E0;-7.239625603E-2;-4.269249737E-1;-3.960501254E-1
6.553537563E0;-3.832742944E-2;-4.045673311E-1;-3.758217394E-1
6.565443813E0;-3.193952516E-2;-2.800031602E-1;-3.630459309E-1
6.577362563E0;6.387905218E-3;-1.469218135E-1;-3.587873280E-1
6.589267250E0;8.517206460E-2;-1.490511149E-1;-3.630459309E-1
6.601179750E0;7.665485889E-2;-1.341460049E-1;-3.428175747E-1
6.613092250E0;-3.406882659E-2;-5.323254317E-2;-2.746799290E-1
6.625001625E0;-9.794788063E-2;-8.091346174E-2;-1.927018017E-1
6.636914125E0;-6.174974889E-2;-1.596976221E-1;-1.203055456E-1
6.648825063E0;1.916371472E-2;-8.091346174E-2;-5.749114603E-2
6.660736000E0;1.032711342E-1;3.087487444E-2;-5.536184460E-2
6.672654750E0;1.352106631E-1;7.452555746E-2;-9.155996889E-2
6.684586000E0;1.458571702E-1;7.452555746E-2;-1.596976221E-1
6.696471938E0;1.575683206E-1;7.133160532E-2;-2.225120217E-1
6.708382875E0;1.703441292E-1;9.581857920E-2;-2.235766798E-1
6.720293813E0;1.895078421E-1;1.863138974E-1;-1.692794859E-1
6.732204750E0;2.171887755E-1;2.661627233E-1;-9.901253134E-2
6.744126625E0;2.576455176E-1;3.428175747E-1;-3.619812801E-2
6.756032875E0;2.863910794E-1;3.502701223E-1;-3.619812801E-2
6.767940688E0;2.874557376E-1;3.236538470E-1;-5.216789246E-2
6.779851625E0;2.374171317E-1;2.576455176E-1;-7.984881103E-2
6.791768813E0;1.447925121E-1;2.299645841E-1;-1.064650863E-1
6.803696938E0;3.513347730E-2;2.469989955E-1;-1.266934574E-1
6.815587563E0;-9.794788063E-2;2.831971347E-1;-1.469218135E-1
6.827498500E0;-2.448696941E-1;3.162012994E-1;-1.628915817E-1
6.839411000E0;-3.843389452E-1;3.076840937E-1;-1.586329788E-1
6.851328188E0;-4.961272776E-1;2.981022298E-1;-1.330813617E-1
6.863261000E0;-5.333900452E-1;3.087487519E-1;-1.011418328E-1
6.875145375E0;-5.057091713E-1;2.714859545E-1;-5.962044746E-2
6.887059438E0;-4.120198786E-1;1.586329788E-1;-2.768092230E-2
6.898968813E0;-2.448696941E-1;-2.129301662E-3;-3.193952609E-3
6.910879750E0;-1.320167035E-1;-9.155996889E-2;7.452555932E-3
6.922792250E0;-1.054004356E-1;-1.128529906E-1;1.490511186E-2
6.934703188E0;-1.703441292E-1;-8.091346174E-2;2.235766686E-2
6.946621938E0;-2.587101460E-1;-4.365068302E-2;2.555162087E-2
6.958526625E0;-3.470761776E-1;-9.581857361E-3;3.193952516E-2
6.970437563E0;-3.843389452E-1;4.897394031E-2;4.577998444E-2
6.982348500E0;-4.045673311E-1;6.494370103E-2;5.003859103E-2
6.994279750E0;-4.098905623E-1;1.703441329E-2;3.939208016E-2
7.006171938E0;-4.290542901E-1;-6.174974889E-2;6.387905218E-3
7.018084438E0;-4.716403186E-1;-1.362753063E-1;-4.577998444E-2
7.029995375E0;-4.886747301E-1;-1.245641485E-1;-6.174974889E-2
7.041925063E0;-4.865454435E-1;-1.032711342E-1;-5.962044746E-2
7.053818813E0;-4.780282378E-1;-1.022064835E-1;-5.962044746E-2
7.065729750E0;-4.748342633E-1;-1.075297371E-1;-4.258603230E-2
7.077642250E0;-4.482180178E-1;-5.642649531E-2;-5.323254038E-3
7.089553188E0;-3.800803423E-1;-7.452555932E-3;1.171115879E-2
7.101465688E0;-2.789385319E-1;-1.064650808E-2;1.384046115E-2
7.113376625E0;-1.980250627E-1;3.193952609E-3;1.171115879E-2
7.125287563E0;-1.394692659E-1;2.448697016E-2;2.235766686E-2
7.137200063E0;-1.362753063E-1;1.277581044E-2;2.661627159E-2
7.149111000E0;-1.703441292E-1;-2.768092230E-2;1.596976258E-2
7.161040688E0;-2.331585288E-1;-8.091346174E-2;5.323254038E-3
7.172934438E0;-3.034254909E-1;-1.256287992E-1;-1.384046115E-2
7.184846938E0;-3.779510558E-1;-1.373399645E-1;-3.619812801E-2
7.196757875E0;-4.301189482E-1;-1.330813617E-1;-4.471533373E-2
7.208668813E0;-4.535412490E-1;-1.469218135E-1;-5.110324174E-2
7.220586000E0;-4.503473043E-1;-1.607622802E-1;-5.642649531E-2
7.232492250E0;-4.269249737E-1;-1.639562249E-1;-5.536184460E-2
7.244404750E0;-3.896622062E-1;-1.501157731E-1;-4.790928960E-2
7.256315688E0;-3.289771080E-1;-1.192408949E-1;-3.300417587E-2
7.268226625E0;-2.619041204E-1;-1.043357849E-1;-1.809906401E-2
7.280156313E0;-2.065422684E-1;-9.155996889E-2;4.258603323E-3
7.292050063E0;-1.437278688E-1;-8.091346174E-2;2.235766686E-2
7.303962563E0;-1.011418328E-1;-8.304276317E-2;3.939208016E-2
7.315873500E0;-8.943066746E-2;-9.901253134E-2;3.939208016E-2
7.327792250E0;-1.128529906E-1;-1.032711342E-1;4.152138159E-2
7.339714125E0;-1.426632106E-1;-1.181762442E-1;3.939208016E-2
7.351609438E0;-1.692794859E-1;-1.011418328E-1;3.513347730E-2
7.363520375E0;-1.852492392E-1;-1.160469428E-1;3.300417587E-2
7.375431313E0;-2.012190074E-1;-1.277581006E-1;2.555162087E-2
7.387350063E0;-2.033483088E-1;-1.107236892E-1;2.342231758E-2
7.399256313E0;-1.927018017E-1;-7.878416032E-2;2.981022373E-2
7.411167250E0;-1.756673902E-1;-5.536184460E-2;3.193952516E-2
7.423078188E0;-1.703441292E-1;-3.832742944E-2;3.300417587E-2
7.434990688E0;-1.767320335E-1;-1.277581044E-2;3.726277873E-2
7.446901625E0;-1.873785406E-1;1.064650808E-2;5.110324174E-2
7.458821938E0;-1.799259931E-1;3.193952609E-3;6.813765317E-2
7.470725063E0;-1.533097178E-1;-1.064650808E-2;8.517206460E-2
7.482636000E0;-1.373399645E-1;-1.171115879E-2;9.155996889E-2
7.494548500E0;-1.437278688E-1;-1.064650831E-3;9.155996889E-2
7.506462563E0;-1.660855263E-1;-1.171115879E-2;8.410741389E-2
7.518370375E0;-1.799259931E-1;-1.809906401E-2;7.771950960E-2
7.530286000E0;-1.799259931E-1;1.277581044E-2;7.984881103E-2
7.542198500E0;-1.799259931E-1;8.410741389E-2;9.155996889E-2
7.554106313E0;-1.607622802E-1;1.022064835E-1;9.794788063E-2
7.566015688E0;-1.139176413E-1;9.155996889E-2;1.043357849E-1
7.577946938E0;-5.110324174E-2;7.771950960E-2;1.096590385E-1
7.589840688E0;-9.581857361E-3;6.707300246E-2;1.128529906E-1
7.601751625E0;1.064650831E-3;3.832742944E-2;1.085943878E-1
7.613664125E0;-2.661627159E-2;2.235766686E-2;9.794788063E-2
7.625575063E0;-8.623671532E-2;3.406882659E-2;8.943066746E-2
7.637486000E0;-1.469218135E-1;6.281439960E-2;8.517206460E-2
7.649398500E0;-2.352878302E-1;1.203055456E-1;8.836601675E-2
7.661309438E0;-2.991668880E-1;1.458571702E-1;9.155996889E-2
7.673220375E0;-3.215245605E-1;1.277581006E-1;9.475392103E-2
7.685139125E0;-2.906496823E-1;1.181762442E-1;1.054004356E-1
7.697053188E0;-2.469989955E-1;1.298874021E-1;1.128529906E-1
7.708956313E0;-2.331585288E-1;1.490511149E-1;1.075297371E-1
7.720867250E0;-2.438050359E-1;1.447925121E-1;1.043357849E-1
7.732779750E0;-2.640334070E-1;1.501157731E-1;1.043357849E-1
7.744690688E0;-2.693566680E-1;1.692794859E-1;1.054004356E-1
7.756617250E0;-2.650980651E-1;2.012190074E-1;1.160469428E-1
7.768514125E0;-2.608394623E-1;2.139948159E-1;1.277581006E-1
7.780426625E0;-2.640334070E-1;2.054776102E-1;1.298874021E-1
7.792337563E0;-2.821324766E-1;1.809906363E-1;1.309520602E-1
7.804250063E0;-2.895850241E-1;1.266934574E-1;1.256287992E-1
7.816187563E0;-2.863910794E-1;3.300417587E-2;1.107236892E-1
7.828071938E0;-2.906496823E-1;-2.022836544E-2;9.368927032E-2
7.839984438E0;-3.119426966E-1;-2.768092230E-2;7.346090674E-2
7.851895375E0;-3.257831633E-1;-1.064650831E-3;5.642649531E-2
7.863806313E0;-3.236538470E-1;3.619812801E-2;4.471533373E-2
7.875717250E0;-2.991668880E-1;7.771950960E-2;3.300417587E-2
7.887629750E0;-2.682920098E-1;1.054004356E-1;3.087487444E-2
7.899542250E0;-2.257059813E-1;1.256287992E-1;3.193952516E-2
7.911453188E0;-1.639562249E-1;1.394692659E-1;4.045673087E-2
7.923371938E0;-1.032711342E-1;1.405339092E-1;4.897394031E-2
7.935276625E0;-5.855579674E-2;1.203055456E-1;6.068509817E-2
7.947187563E0;-3.832742944E-2;8.836601675E-2;7.026695460E-2
7.959100063E0;-3.406882659E-2;1.139176413E-1;7.771950960E-2
7.971011000E0;-2.129301615E-2;1.288227588E-1;9.475392103E-2
7.982923500E0;1.703441329E-2;6.387905218E-3;1.000771821E-1
7.994859438E0;2.129301615E-2;-1.586329788E-1;9.049531817E-2
8.006746938E0;-7.239625603E-2;-2.310292274E-1;8.304276317E-2
8.018659438E0;-2.171887755E-1;-1.884431988E-1;7.239625603E-2
8.030568813E0;-3.513347805E-1;-2.203827202E-1;5.429719388E-2
8.042481313E0;-4.056319594E-1;-3.854036033E-1;8.197811246E-2
8.054392250E0;-4.503473043E-1;-4.365068376E-1;8.730136603E-2
8.066303188E0;-5.046445131E-1;-3.385589719E-1;6.387905031E-2
8.078215688E0;-5.003858805E-1;-2.991668880E-1;3.939208016E-2
8.090126625E0;-4.301189482E-1;-3.215245605E-1;2.022836544E-2
8.102057875E0;-3.779510558E-1;-2.544515431E-1;1.809906401E-2
8.113975063E0;-3.417529166E-1;-1.330813617E-1;1.064650808E-2
8.125861000E0;-2.831971347E-1;-7.665485889E-2;1.596976258E-2
8.137773500E0;-1.895078421E-1;-1.447925121E-1;2.448697016E-2
8.149684438E0;-1.203055456E-1;-2.097362131E-1;3.087487444E-2
8.161595375E0;-6.494370103E-2;-2.704213262E-1;4.258603230E-2
8.173514125E0;-1.064650808E-2;-3.587873280E-1;3.939208016E-2
8.185418813E0;2.129301615E-2;-4.311835766E-1;2.235766686E-2
8.197331313E0;1.809906401E-2;-4.482180178E-1;1.064650831E-3
8.209242250E0;-2.661627159E-2;-3.651752472E-1;-1.916371472E-2
8.221159438E0;-9.368927032E-2;-2.608394623E-1;-3.513347730E-2
8.233065688E0;-1.469218135E-1;-2.118655145E-1;-3.513347730E-2
8.244976625E0;-1.671501845E-1;-2.235766798E-1;-2.768092230E-2
8.256889125E0;-1.298874021E-1;-2.672273517E-1;-1.277581044E-2
8.268800063E0;-4.897394031E-2;-2.938436270E-1;3.193952609E-3
8.280718813E0;2.129301662E-3;-2.427403927E-1;-6.387905218E-3
8.292640688E0;6.281439960E-2;-2.938436270E-1;3.193952609E-3
8.304534438E0;1.298874021E-1;-3.790156841E-1;2.555162087E-2
8.316446938E0;1.820552945E-1;-4.130845368E-1;2.981022373E-2
8.328359438E0;2.012190074E-1;-4.045673311E-1;2.555162087E-2
8.340270375E0;1.735380888E-1;-3.502701223E-1;4.258603323E-3
8.352192250E0;1.203055456E-1;-3.300417662E-1;-2.555162087E-2
8.364093813E0;8.197811246E-2;-3.939208090E-1;-3.513347730E-2
8.376006313E0;5.749114603E-2;-4.013733566E-1;-4.471533373E-2
8.387917250E0;3.726277873E-2;-3.460115194E-1;-6.281439960E-2
8.399840688E0;5.003859103E-2;-3.523994386E-1;-6.387905031E-2
8.411740688E0;5.855579674E-2;-3.907268643E-1;-6.494370103E-2
8.423651625E0;3.193952516E-2;-3.779510558E-1;-6.174974889E-2
8.435562563E0;1.596976258E-2;-4.066966176E-1;-3.513347730E-2
8.447475063E0;3.513347730E-2;-5.014505386E-1;-1.809906401E-2
8.459386000E0;6.068509817E-2;-5.568124056E-1;-1.064650808E-2
8.471317250E0;1.128529906E-1;-6.994755864E-1;4.577998444E-2
8.483209438E0;1.618269235E-1;-7.995527983E-1;7.346090674E-2
8.495121938E0;1.799259931E-1;-8.282983303E-1;1.916371472E-2
8.507032875E0;2.076069117E-1;-7.974234819E-1;-7.452555932E-3
8.518950063E0;2.927789688E-1;-7.527081370E-1;-4.258603323E-3
8.530854750E0;4.237310290E-1;-6.792472601E-1;1.171115879E-2
8.542767250E0;5.365840197E-1;-5.323254466E-1;4.684463516E-2
8.554678188E0;5.993984342E-1;-4.194724262E-1;1.224348471E-1
8.566589125E0;5.791700482E-1;-3.736924529E-1;1.596976221E-1
8.578501625E0;5.110324025E-1;-3.949854672E-1;1.245641485E-1
8.590412563E0;4.311835766E-1;-4.460887015E-1;5.749114603E-2
8.602325063E0;3.992440701E-1;-4.492826462E-1;1.277581044E-2
8.614236000E0;3.928561509E-1;-3.662398756E-1;-4.258603323E-3
8.626146938E0;3.736924529E-1;-4.045673311E-1;1.277581044E-2
8.638059438E0;3.545287251E-1;-4.971919358E-1;1.064650808E-2
8.649970375E0;3.928561509E-1;-6.164328456E-1;2.874557301E-2
8.661882875E0;4.301189482E-1;-6.228207350E-1;5.749114603E-2
8.673793813E0;4.066966176E-1;-4.567352235E-1;8.304276317E-2
8.685704750E0;3.981794119E-1;-4.003087282E-1;1.384046078E-1
8.697623500E0;3.704984784E-1;-3.949854672E-1;1.799259931E-1
8.709528188E0;3.321710527E-1;-3.885975480E-1;1.245641485E-1
8.721442250E0;3.364296556E-1;-3.492054641E-1;-4.258603323E-3
8.733351625E0;3.939208090E-1;-2.661627233E-1;-8.730136603E-2
8.745262563E0;4.546059072E-1;-2.171887755E-1;-1.149822921E-1
8.757190688E0;4.577998519E-1;-2.970375717E-1;-5.323254317E-2
8.769087563E0;3.683691919E-1;-3.492054641E-1;-2.235766686E-2
8.780998500E0;2.054776102E-1;-3.034254909E-1;3.193952609E-3
8.792911000E0;8.943066746E-2;-2.959729433E-1;7.452555932E-3
8.804821938E0;-1.277581044E-2;-3.023608327E-1;-1.277581044E-2
8.816734438E0;-4.258603230E-2;-3.151366413E-1;-6.813765317E-2
8.828670375E0;8.197811246E-2;-3.800803423E-1;-1.373399645E-1
8.840556313E0;2.533869147E-1;-3.396236300E-1;-1.618269235E-1
8.852468813E0;4.216017425E-1;-3.481408358E-1;-1.469218135E-1
8.864379750E0;5.333900452E-1;-3.800803423E-1;-1.320167035E-1
8.876298500E0;5.312607884E-1;-3.917915225E-1;-9.901253134E-2
8.888203188E0;4.184077680E-1;-3.822096586E-1;-7.026695460E-2
8.900114125E0;2.704213262E-1;-2.981022298E-1;-9.368927032E-2
8.912026625E0;1.234994978E-1;-1.511804163E-1;-1.660855263E-1
8.923939125E0;6.174974889E-2;-7.559020817E-2;-2.235766798E-1
8.935850063E0;6.813765317E-2;-6.387905031E-2;-2.661627233E-1
8.947761000E0;1.213701963E-1;-9.368927032E-2;-3.002315462E-1
8.959676625E0;2.044129670E-1;-1.352106631E-1;-3.034254909E-1
8.971584438E0;2.821324766E-1;-1.277581006E-1;-2.672273517E-1
8.983496938E0;2.693566680E-1;1.490511186E-2;-1.490511149E-1
8.995407875E0;7.239625603E-2;3.800803423E-1;3.619812801E-2
9.007318813E0;-2.150594741E-1;6.419844627E-1;1.415985674E-1
9.019231313E0;-4.216017425E-1;3.811450005E-1;7.239625603E-2
9.031142250E0;-5.557477474E-1;-7.771950960E-2;3.513347730E-2
9.043054750E0;-4.365068376E-1;-4.854807854E-1;9.901253134E-2
9.054965688E0;-8.623671532E-2;-6.728593111E-1;1.575683206E-1
9.066876625E0;3.566580415E-1;-6.270793676E-1;2.171887755E-1
9.078787563E0;8.389448524E-1;-4.460887015E-1;2.725506127E-1
9.090700063E0;1.160469413E0;-3.151366413E-1;2.587101460E-1
9.102611000E0;1.227542400E0;-1.426632106E-1;1.064650863E-1
9.114523500E0;9.826727509E-1;1.788613349E-1;-8.197811246E-2
9.126443813E0;6.366612315E-1;4.035026729E-1;-2.438050359E-1
9.138350063E0;3.854036033E-1;3.992440701E-1;-2.906496823E-1
9.150257875E0;1.256287992E-1;5.312607884E-1;-2.991668880E-1
9.162168813E0;-1.256287992E-1;6.206914186E-1;-2.906496823E-1
9.174079750E0;-1.543743759E-1;5.035798550E-1;-2.523222566E-1
9.186006313E0;-2.981022373E-2;2.512575984E-1;-1.767320335E-1
9.197903188E0;1.320167035E-1;3.513347730E-2;-9.049531817E-2
9.209821938E0;1.479864717E-1;1.309520602E-1;-1.171115879E-2
9.221726625E0;1.064650831E-3;3.885975480E-1;-7.452555932E-3
9.233643813E0;-1.671501845E-1;4.354421794E-1;-9.049531817E-2
9.245576625E0;-2.917143404E-1;3.726277947E-1;-2.438050359E-1
9.257461000E0;-3.162012994E-1;4.130845368E-1;-3.843389452E-1
9.269373500E0;-2.161241174E-1;4.205370843E-1;-4.577998519E-1
9.281286000E0;-6.813765317E-2;4.088259339E-1;-4.450240433E-1
9.293196938E0;6.174974889E-2;4.269249737E-1;-3.694338500E-1
9.305107875E0;1.777966917E-1;4.844161272E-1;-2.725506127E-1
9.317020375E0;2.491282970E-1;5.451012254E-1;-2.555162013E-1
9.328931313E0;2.991668880E-1;5.632002950E-1;-2.704213262E-1
9.340842250E0;3.385589719E-1;5.163556337E-1;-2.800031602E-1
9.352767250E0;3.704984784E-1;4.567352235E-1;-2.842617631E-1
9.364665688E0;4.003087282E-1;3.875329196E-1;-3.225892186E-1
9.376578188E0;4.173431396E-1;3.800803423E-1;-3.939208090E-1
9.388490688E0;3.875329196E-1;4.758989215E-1;-4.673817158E-1
9.400401625E0;3.353650272E-1;5.834286809E-1;-4.865454435E-1
9.412315688E0;2.853264213E-1;5.749114752E-1;-4.737696350E-1
9.424248500E0;2.469989955E-1;4.993212521E-1;-4.482180178E-1
9.436136000E0;1.916371584E-1;4.322482347E-1;-4.439594150E-1
9.448048500E0;1.415985674E-1;3.875329196E-1;-4.652524292E-1
9.459959438E0;5.429719388E-2;3.651752472E-1;-4.567352235E-1
9.471875063E0;-5.962044746E-2;3.513347805E-1;-3.960501254E-1
9.483798500E0;-1.628915817E-1;3.449468613E-1;-3.428175747E-1
9.495693813E0;-2.587101460E-1;3.651752472E-1;-2.821324766E-1
9.507604750E0;-3.204599023E-1;4.003087282E-1;-2.512575984E-1
9.519517250E0;-3.630459309E-1;4.386361539E-1;-2.288999259E-1
9.531428188E0;-3.747570813E-1;4.109552205E-1;-1.958957613E-1
9.543340688E0;-3.683691919E-1;3.619812727E-1;-1.639562249E-1
9.555251625E0;-3.321710527E-1;3.204599023E-1;-1.256287992E-1
9.567164125E0;-2.629687488E-1;2.789385319E-1;-6.707300246E-2
9.579075063E0;-1.128529906E-1;2.022836655E-1;-7.452555932E-3
9.590986000E0;4.790928960E-2;1.660855263E-1;3.939208016E-2
9.602896938E0;2.044129670E-1;2.523222566E-1;1.160469428E-1
9.614809438E0;2.576455176E-1;3.545287251E-1;1.543743759E-1
9.626721938E0;1.990897059E-1;4.035026729E-1;1.490511149E-1
9.638632875E0;6.174974889E-2;3.917915225E-1;1.330813617E-1
9.650545375E0;-9.049531817E-2;3.385589719E-1;1.160469428E-1
9.662456313E0;-2.480636388E-1;2.768092155E-1;9.049531817E-2
9.674367250E0;-3.907268643E-1;2.214473784E-1;6.920230389E-2
9.686279750E0;-5.014505386E-1;2.118655145E-1;3.087487444E-2
9.698190688E0;-6.015277505E-1;2.171887755E-1;2.448697016E-2
9.710140688E0;-6.952170134E-1;2.118655145E-1;3.726277873E-2
9.722037563E0;-7.803890705E-1;1.660855263E-1;3.726277873E-2
9.733925063E0;-7.409969568E-1;1.224348471E-1;1.596976258E-2
9.745837563E0;-4.982565939E-1;7.133160532E-2;-3.087487444E-2
9.757746938E0;-9.475392103E-2;9.901253134E-2;-1.596976258E-2
9.769661000E0;2.938436270E-1;2.384817898E-1;3.726277873E-2
9.781579750E0;5.940751433E-1;3.758217394E-1;5.855579674E-2
9.793482875E0;6.196267605E-1;4.535412490E-1;8.623671532E-2
9.805395375E0;4.524766207E-1;4.173431396E-1;9.155996889E-2
9.817306313E0;2.619041204E-1;3.215245605E-1;8.304276317E-2
9.829220375E0;1.384046078E-1;2.831971347E-1;1.149822921E-1
9.841139125E0;9.049531817E-2;2.523222566E-1;1.490511149E-1
9.853040688E0;4.897394031E-2;1.777966917E-1;1.692794859E-1
9.864953188E0;-3.300417587E-2;1.213701963E-1;1.703441292E-1
9.876864125E0;-1.511804163E-1;1.117883399E-1;1.458571702E-1
9.888781313E0;-2.363524884E-1;9.688322991E-2;1.139176413E-1
9.900706313E0;-2.757445574E-1;6.494370103E-2;9.262461960E-2
9.912600063E0;-2.640334070E-1;8.517206647E-3;8.836601675E-2
9.924511000E0;-2.214473784E-1;-2.448697016E-2;8.623671532E-2
9.936421938E0;-1.384046078E-1;-1.064650863E-1;7.771950960E-2
9.948340688E0;-7.771950960E-2;-2.022836655E-1;7.665485889E-2
9.960264125E0;-4.684463516E-2;-2.544515431E-1;5.642649531E-2
9.972156313E0;7.452555932E-3;-3.289771080E-1;2.342231758E-2
9.984068813E0;1.682148278E-1;-4.982565939E-1;3.300417587E-2
9.995979750E0;4.088259339E-1;-5.855579376E-1;1.224348471E-1
1.000789225E1;6.451784372E-1;-6.505016685E-1;2.267706245E-1
1.001980319E1;8.155225515E-1;-7.495141625E-1;2.800031602E-1
1.003171569E1;7.835830450E-1;-7.143807411E-1;2.693566680E-1
1.004362662E1;5.259374976E-1;-5.014505386E-1;1.767320335E-1
1.005553756E1;2.288999259E-1;-1.756673902E-1;5.110324174E-2
1.006745006E1;9.475392103E-2;-9.155996889E-2;1.096590385E-1
1.007936413E1;1.522450745E-1;-3.992440701E-1;3.247185051E-1
1.009127194E1;2.480636388E-1;-6.622128487E-1;5.184849501E-1
1.010318444E1;2.225120217E-1;-5.387133360E-1;5.120970607E-1
1.011509694E1;1.362753063E-1;-1.543743759E-1;3.523994386E-1
1.012701569E1;2.108008713E-1;-1.160469428E-1;2.512575984E-1
1.013893288E1;3.885975480E-1;-2.193180770E-1;2.608394623E-1
1.015083131E1;6.579542160E-1;-3.034254909E-1;3.641105890E-1
1.016274225E1;8.879188299E-1;-3.662398756E-1;4.727049768E-1
1.017465475E1;1.016741514E0;-3.130073547E-1;4.471533597E-1
1.018656881E1;9.347634315E-1;-3.726277873E-2;2.033483088E-1
1.019847819E1;7.399323583E-1;2.938436270E-1;-2.448697016E-2
1.021038912E1;5.152910352E-1;5.206142664E-1;-2.246413231E-1
1.022230006E1;3.066194355E-1;4.876100719E-1;-3.641105890E-1
1.023421100E1;1.565036774E-1;3.193952441E-1;-2.320938855E-1
1.024612819E1;6.281439960E-2;7.665485889E-2;-2.831971347E-1
1.025803756E1;9.688322991E-2;-1.958957613E-1;-7.175746560E-1
1.026994694E1;6.281439960E-2;-1.703441329E-2;-7.942295074E-1
1.028185788E1;-2.288999259E-1;7.037342191E-1;-6.451784372E-1
1.029377038E1;-7.612253428E-1;1.552260876E0;-3.460115194E-1
1.030568912E1;-1.012483001E0;1.600170255E0;-1.085943878E-1
1.031759381E1;-1.222219110E0;1.197732210E0;1.384046115E-2
1.032950475E1;-1.598040938E0;8.517206907E-1;5.962044746E-2
1.034141569E1;-2.057970047E0;4.460887015E-1;7.346090674E-2
1.035332819E1;-2.299645901E0;-6.068509817E-2;9.688322991E-2
1.036524538E1;-2.180404902E0;-7.484495640E-1;1.639562249E-1
1.037715944E1;-1.782225490E0;-1.201990843E0;2.438050359E-1
1.038906256E1;-1.195602894E0;-1.374464273E0;3.002315462E-1
1.040097506E1;-3.960501254E-1;-1.054004312E0;2.395464331E-1
1.041288600E1;2.555162013E-1;-2.693566680E-1;7.559020817E-2
1.042480319E1;6.249500513E-1;2.523222566E-1;8.304276317E-2
1.043670944E1;8.304276466E-1;3.779510558E-1;3.619812801E-2
1.044862194E1;8.410741687E-1;2.267706245E-1;-1.043357849E-1
1.046054069E1;6.398551464E-1;3.193952609E-3;-2.736152709E-1
1.047244381E1;3.119426966E-1;-9.049531817E-2;-3.822096586E-1
1.048435475E1;-1.490511186E-2;-7.452555932E-3;-3.917915225E-1
1.049629381E1;-2.512575984E-1;2.661627159E-2;-3.364296556E-1
1.050817819E1;-4.098905623E-1;-6.281439960E-2;-2.853264213E-1
1.052008912E1;-5.727821589E-1;-1.650208831E-1;-2.278352827E-1
1.053200163E1;-5.738468170E-1;-3.587873280E-1;-1.586329788E-1
1.054391412E1;-3.864682615E-1;-5.685235262E-1;-1.384046078E-1
1.055583288E1;-2.171887755E-1;-3.928561509E-1;-1.735380888E-1
1.056773600E1;-8.836601675E-2;-2.044129670E-1;-2.331585288E-1
1.057964850E1;-4.152138159E-2;-5.110324174E-2;-2.906496823E-1
1.059155944E1;-1.405339092E-1;2.086715698E-1;-3.694338500E-1
1.060347819E1;-2.981022298E-1;4.045673311E-1;-4.684463739E-1
1.061538288E1;-4.152138233E-1;4.205370843E-1;-5.419072509E-1
1.062729381E1;-5.025151968E-1;3.066194355E-1;-5.749114752E-1
1.063920475E1;-5.578770638E-1;1.618269235E-1;-5.504244566E-1
1.065111725E1;-6.324025989E-1;1.171115879E-2;-4.397007823E-1
1.066303444E1;-7.005402446E-1;-3.726277873E-2;-3.960501254E-1
1.067495788E1;-7.324797511E-1;-3.193952516E-2;-3.949854672E-1
1.068685163E1;-6.600835323E-1;-5.216789246E-2;-4.194724262E-1
1.069876412E1;-4.737696350E-1;-1.852492392E-1;-4.492826462E-1
1.071067506E1;-2.033483088E-1;-3.630459309E-1;-4.482180178E-1
1.072260006E1;3.939208016E-2;-3.587873280E-1;-4.056319594E-1
1.073451569E1;2.491282970E-1;-1.746027321E-1;-3.193952441E-1
1.074640944E1;5.089030862E-1;2.022836544E-2;-1.958957613E-1
1.075832038E1;7.644193172E-1;8.091346174E-2;-1.618269235E-1
1.077023288E1;8.836601973E-1;-6.920230389E-2;-2.012190074E-1
1.078214381E1;8.027467132E-1;-1.863138974E-1;-2.512575984E-1
1.079405631E1;4.684463739E-1;-5.216789246E-2;-2.448696941E-1
1.080598444E1;1.352106631E-1;1.479864717E-1;-1.980250627E-1
1.081787975E1;-2.097362131E-1;2.448696941E-1;-1.607622802E-1
1.082979069E1;-3.800803423E-1;1.671501845E-1;-1.256287992E-1
1.084170319E1;-4.077612758E-1;9.049531817E-2;-8.410741389E-2
1.085361412E1;-3.662398756E-1;1.043357849E-1;-3.726277873E-2
1.086552663E1;-2.800031602E-1;1.618269235E-1;-5.323254038E-3
1.087744538E1;-1.671501845E-1;2.171887755E-1;2.022836544E-2
1.088935006E1;-1.809906401E-2;1.735380888E-1;2.768092230E-2
1.090126100E1;1.171115935E-1;7.984881103E-2;2.661627159E-2
1.091319069E1;1.927018017E-1;2.874557301E-2;2.448697016E-2
1.092508444E1;2.054776102E-1;7.026695460E-2;4.152138159E-2
1.093699538E1;1.554390192E-1;1.628915817E-1;5.749114603E-2
1.094890788E1;7.984881103E-2;1.969604045E-1;7.239625603E-2
1.096081881E1;2.768092230E-2;1.777966917E-1;7.771950960E-2
1.097272975E1;-2.235766686E-2;1.565036774E-1;7.239625603E-2
1.098464225E1;-5.962044746E-2;9.688322991E-2;6.600835174E-2
1.099655319E1;-8.091346174E-2;3.406882659E-2;6.920230389E-2
1.100846413E1;-1.203055456E-1;-2.661627159E-2;7.026695460E-2
1.102037662E1;-1.522450745E-1;-6.600835174E-2;6.813765317E-2
1.103228912E1;-1.788613349E-1;-1.011418328E-1;7.452555746E-2
1.104420006E1;-2.086715698E-1;-9.688322991E-2;8.623671532E-2
1.105611100E1;-2.650980651E-1;-7.665485889E-2;9.262461960E-2
1.106802350E1;-3.225892186E-1;-8.730136603E-2;9.368927032E-2
1.107993444E1;-3.619812727E-1;-9.581857920E-2;1.032711342E-1
1.109186256E1;-3.790156841E-1;-7.878416032E-2;1.171115935E-1
1.110375788E1;-3.619812727E-1;-5.429719388E-2;1.288227588E-1
1.111566881E1;-3.055547774E-1;-6.920230389E-2;1.309520602E-1
1.112758131E1;-2.139948159E-1;-6.600835174E-2;1.415985674E-1
1.113951412E1;-1.160469428E-1;-8.517206647E-3;1.607622802E-1
1.115140319E1;-3.832742944E-2;4.471533373E-2;1.724734306E-1
1.116331569E1;7.452555932E-3;6.281439960E-2;1.756673902E-1
1.117522662E1;1.490511186E-2;6.707300246E-2;1.692794859E-1
1.118713912E1;-1.064650808E-2;6.813765317E-2;1.586329788E-1
1.119905319E1;-5.216789246E-2;7.771950960E-2;1.543743759E-1
1.121098444E1;-1.256287992E-1;1.373399645E-1;1.628915817E-1
1.122287350E1;-2.288999259E-1;2.065422684E-1;1.799259931E-1
1.123478444E1;-3.811450005E-1;2.810678184E-1;1.863138974E-1
1.124669694E1;-5.663942695E-1;3.151366413E-1;1.990897059E-1
1.125864069E1;-7.697425485E-1;3.257831633E-1;2.257059813E-1
1.127051881E1;-9.070824981E-1;2.949082851E-1;2.619041204E-1
1.128243131E1;-9.241169095E-1;1.777966917E-1;2.842617631E-1
1.129434225E1;-8.155225515E-1;7.346090674E-2;3.044901490E-1
1.130625475E1;-6.590188742E-1;7.771950960E-2;3.034254909E-1
1.131817506E1;-5.184849501E-1;1.660855263E-1;2.768092155E-1
1.133007662E1;-4.641877711E-1;2.810678184E-1;2.512575984E-1
1.134199069E1;-4.833514690E-1;3.981794119E-1;2.352878302E-1
1.135390162E1;-5.514891148E-1;4.780282378E-1;2.214473784E-1
1.136581256E1;-5.738468170E-1;5.099677444E-1;2.193180770E-1
1.137772663E1;-4.184077680E-1;4.098905623E-1;2.363524884E-1
1.138965475E1;-7.346090674E-2;1.171115935E-1;2.565808594E-1
1.140154694E1;4.567352235E-1;-3.374943137E-1;2.725506127E-1
1.141345944E1;7.292858362E-1;-3.406882584E-1;1.895078421E-1
1.142537038E1;7.154453397E-1;6.281439960E-2;8.197811246E-2
1.143728131E1;6.206914186E-1;2.384817898E-1;2.235766686E-2
1.144920944E1;4.876100719E-1;2.214473784E-1;1.064650831E-3
1.146110475E1;2.288999259E-1;3.481408358E-1;3.406882659E-2
1.147301725E1;-1.022064835E-1;6.260147095E-1;7.133160532E-2
1.148492819E1;-3.960501254E-1;7.452555895E-1;6.174974889E-2
1.149683913E1;-5.855579376E-1;6.355965734E-1;1.809906401E-2
1.150875319E1;-7.590960264E-1;4.663170576E-1;-2.981022373E-2
1.152066413E1;-9.070824981E-1;4.098905623E-1;-5.216789246E-2
1.153257506E1;-1.065715432E0;3.949854672E-1;-9.794788063E-2
1.154448600E1;-1.155146122E0;2.480636388E-1;-1.341460049E-1
1.155642819E1;-1.182827115E0;1.277581044E-2;-1.320167035E-1
1.156830944E1;-1.149822950E0;-1.799259931E-1;-1.160469428E-1
1.158022038E1;-1.085943818E0;-2.469989955E-1;-1.096590385E-1
1.159213288E1;-1.017806172E0;-1.501157731E-1;-1.043357849E-1
1.160404381E1;-9.986425042E-1;5.855579674E-2;-1.171115935E-1
1.161595631E1;-1.039099216E0;2.310292274E-1;-1.224348471E-1
1.162789225E1;-1.107236862E0;2.672273517E-1;-1.181762442E-1
1.163977975E1;-1.215831280E0;2.650980651E-1;-9.581857920E-2
1.165169069E1;-1.274387002E0;2.076069117E-1;-8.091346174E-2
1.166360162E1;-1.204120159E0;8.410741389E-2;-8.730136603E-2
1.167551413E1;-9.741555452E-1;6.281439960E-2;-1.277581006E-1
1.168744381E1;-7.399323583E-1;1.384046078E-1;-1.490511149E-1
1.169933600E1;-5.184849501E-1;1.873785406E-1;-1.501157731E-1
1.171124850E1;-3.555933833E-1;2.033483088E-1;-1.447925121E-1
1.172315944E1;-2.682920098E-1;2.821324766E-1;-1.501157731E-1
1.173507038E1;-2.831971347E-1;4.141491652E-1;-1.437278688E-1
1.174698288E1;-3.236538470E-1;4.737696350E-1;-1.330813617E-1
1.175889538E1;-3.534640670E-1;4.013733566E-1;-1.032711342E-1
1.177080631E1;-3.587873280E-1;2.438050359E-1;-8.623671532E-2
1.178271881E1;-3.460115194E-1;1.447925121E-1;-9.262461960E-2
1.179463600E1;-3.481408358E-1;1.671501845E-1;-1.277581006E-1
1.180654381E1;-3.449468613E-1;1.969604045E-1;-1.660855263E-1
1.181847350E1;-3.098133802E-1;1.788613349E-1;-1.916371584E-1
1.183036569E1;-2.842617631E-1;1.533097178E-1;-2.395464331E-1
1.184227506E1;-2.640334070E-1;9.475392103E-2;-2.629687488E-1
1.185419225E1;-1.714087874E-1;2.448697016E-2;-2.565808594E-1
1.186610788E1;-1.490511186E-2;-1.809906401E-2;-2.406110913E-1
1.187801100E1;1.330813617E-1;-5.323254317E-2;-2.395464331E-1
1.188993131E1;1.905725002E-1;-7.239625603E-2;-2.491282970E-1
1.190183444E1;1.107236892E-1;-4.790928960E-2;-2.533869147E-1
1.191375163E1;-3.193952516E-2;1.596976258E-2;-2.395464331E-1
1.192565631E1;-1.799259931E-1;3.300417587E-2;-2.342231870E-1
1.193756881E1;-2.523222566E-1;2.129301662E-3;-2.320938855E-1
1.194947975E1;-2.363524884E-1;-4.577998444E-2;-2.235766798E-1
1.196139225E1;-1.575683206E-1;-9.049531817E-2;-2.150594741E-1
1.197330319E1;-9.049531817E-2;-1.192408949E-1;-2.033483088E-1
1.198521569E1;-1.916371472E-2;-1.320167035E-1;-1.841845959E-1
1.199712819E1;2.768092230E-2;-1.245641485E-1;-1.639562249E-1
1.200903913E1;5.855579674E-2;-8.730136603E-2;-1.352106631E-1
1.202095006E1;1.479864717E-1;-7.452555746E-2;-1.171115935E-1
1.203286100E1;3.151366413E-1;-1.054004356E-1;-1.043357849E-1
1.204479850E1;5.163556337E-1;-1.320167035E-1;-9.368927032E-2
1.205668444E1;7.314151525E-1;-1.203055456E-1;-5.855579674E-2
1.206859538E1;8.591732383E-1;-7.133160532E-2;-3.193952609E-3
1.208050788E1;9.017592669E-1;1.171115879E-2;9.262461960E-2
1.209241881E1;8.538499475E-1;6.920230389E-2;1.714087874E-1
1.210432975E1;7.835830450E-1;1.565036774E-1;2.278352827E-1
1.211624225E1;6.505016685E-1;2.981022298E-1;2.682920098E-1
1.212815319E1;5.131617188E-1;4.184077680E-1;2.842617631E-1
1.214006569E1;4.311835766E-1;5.408426523E-1;3.279124498E-1
1.215197663E1;5.812993646E-1;6.611481905E-1;3.758217394E-1
1.216391413E1;9.816080928E-1;7.665486336E-1;3.374943137E-1
1.217580006E1;1.533097267E0;7.122514248E-1;2.001543641E-1
1.218771100E1;1.924888730E0;7.047988772E-1;1.117883399E-1
1.219962350E1;1.732186913E0;5.759761333E-1;6.920230389E-2
1.221153444E1;1.083814502E0;3.193952609E-3;-3.513347730E-2
1.222345475E1;4.482180178E-1;-6.143035293E-1;-1.958957613E-1
1.223535788E1;1.384046078E-1;-7.431262732E-1;-2.374171317E-1
1.224726881E1;-2.448697016E-2;-4.833514690E-1;-1.809906363E-1
1.225918131E1;-1.064650808E-2;-7.559020817E-2;-1.415985674E-1
1.227109225E1;1.533097178E-1;2.352878302E-1;-7.559020817E-2
1.228300475E1;3.843389452E-1;3.417529166E-1;-2.555162087E-2
1.229491569E1;6.462430358E-1;2.650980651E-1;-5.323254038E-3
1.230682819E1;8.421388268E-1;4.577998444E-2;1.171115879E-2
1.231873912E1;8.197811246E-1;-1.362753063E-1;7.452555932E-3
1.233065163E1;6.696653962E-1;-1.841845959E-1;-2.022836544E-2
1.234256256E1;4.343775511E-1;-1.767320335E-1;-6.707300246E-2
1.235447350E1;2.076069117E-1;-1.714087874E-1;-9.581857920E-2
1.236638600E1;8.410741389E-2;-1.522450745E-1;-9.688322991E-2
1.237829850E1;5.110324174E-2;-1.043357849E-1;-9.155996889E-2
1.239021412E1;1.266934574E-1;-8.517206460E-2;-8.730136603E-2
1.240212038E1;2.395464331E-1;-1.022064835E-1;-7.984881103E-2
1.241403288E1;3.406882584E-1;-9.581857920E-2;-7.133160532E-2
1.242594381E1;3.673045337E-1;-8.410741389E-2;-6.068509817E-2
1.243785475E1;3.364296556E-1;-9.581857920E-2;-5.749114603E-2
1.244976725E1;2.587101460E-1;-1.362753063E-1;-5.216789246E-2
1.246167819E1;1.788613349E-1;-1.426632106E-1;-4.045673087E-2
1.247359069E1;1.341460049E-1;-1.075297371E-1;-2.129301615E-2
1.248550163E1;1.171115935E-1;-6.068509817E-2;-5.323254038E-3
1.249741412E1;1.490511149E-1;-1.171115879E-2;3.619812801E-2
1.250932506E1;2.640334070E-1;3.193952609E-3;5.855579674E-2
1.252123600E1;4.386361539E-1;-7.026695460E-2;6.920230389E-2
1.253314850E1;6.004630923E-1;-1.948311031E-1;4.684463516E-2
1.254505944E1;6.558248997E-1;-2.831971347E-1;1.064650808E-2
1.255697194E1;6.238853931E-1;-3.481408358E-1;-3.300417587E-2
1.256888756E1;5.610709786E-1;-4.152138233E-1;-6.494370103E-2
1.258080631E1;4.205370843E-1;-4.599291682E-1;-1.043357849E-1
1.259270631E1;1.948311031E-1;-3.800803423E-1;-1.075297371E-1
1.260461725E1;-1.171115935E-1;-2.533869147E-1;-9.262461960E-2
1.261652975E1;-4.141491652E-1;-2.331585288E-1;-9.049531817E-2
1.262844069E1;-6.260147095E-1;-2.757445574E-1;-6.281439960E-2
1.264035163E1;-7.516434789E-1;-3.885975480E-1;-3.087487444E-2
1.265226256E1;-7.186393142E-1;-4.939979911E-1;3.193952516E-2
1.266417506E1;-5.227435827E-1;-5.227435827E-1;1.054004356E-1
1.267608600E1;-2.001543641E-1;-4.375714958E-1;1.511804163E-1
1.268800788E1;1.895078421E-1;-3.343003690E-1;2.065422684E-1
1.269990944E1;6.143035293E-1;-1.905725002E-1;2.448696941E-1
1.271182038E1;8.794015646E-1;2.874557301E-2;2.469989955E-1
1.272373288E1;1.034840584E0;2.171887755E-1;2.555162013E-1
1.273564381E1;1.032711267E0;3.044901490E-1;2.608394623E-1
1.274756256E1;8.719490170E-1;2.310292274E-1;2.576455176E-1
1.275948288E1;6.930876970E-1;1.916371472E-2;2.906496823E-1
1.277137819E1;5.248728395E-1;-2.629687488E-1;3.971147537E-1
1.278329850E1;3.758217394E-1;-4.546059072E-1;5.152910352E-1
1.279520319E1;2.288999259E-1;-5.834286809E-1;6.441137791E-1
1.280711569E1;1.777966917E-1;-7.239625454E-1;6.792472601E-1
1.281902819E1;1.916371584E-1;-8.357509375E-1;6.675360799E-1
1.283093756E1;1.937664598E-1;-8.144578934E-1;6.196267605E-1
1.284284850E1;1.266934574E-1;-5.536184311E-1;5.993984342E-1
1.285476100E1;6.707300246E-2;-1.501157731E-1;5.940751433E-1
1.286667194E1;7.239625603E-2;5.216789246E-2;5.536184311E-1
1.287859381E1;1.064650863E-1;1.788613349E-1;5.067738295E-1
1.289049538E1;1.628915817E-1;2.704213262E-1;4.727049768E-1
1.290240788E1;2.608394623E-1;3.683691919E-1;4.343775511E-1
1.291431881E1;3.864682615E-1;4.620584548E-1;3.481408358E-1
1.292623444E1;5.727821589E-1;3.939208090E-1;2.193180770E-1
1.293815475E1;8.251044154E-1;2.267706245E-1;8.197811246E-2
1.295005475E1;1.045487165E0;4.045673087E-2;-1.384046115E-2
1.296196569E1;1.288227558E0;-1.948311031E-1;-9.688322991E-2
1.297387662E1;1.446860433E0;-3.470761776E-1;-1.437278688E-1
1.298578912E1;1.345718622E0;-1.777966917E-1;-1.735380888E-1
1.299770006E1;9.102764726E-1;2.150594741E-1;-2.214473784E-1
1.300961100E1;4.428947568E-1;4.514119625E-1;-2.054776102E-1
1.302152194E1;3.300417587E-2;4.450240433E-1;-6.920230389E-2
1.303343444E1;-2.129301727E-1;2.810678184E-1;1.767320335E-1
1.304535319E1;-2.086715698E-1;-1.990897059E-1;4.354421794E-1
1.305728444E1;-2.874557301E-2;-9.720262289E-1;7.590960264E-1
1.306917038E1;-1.660855263E-1;-8.559792638E-1;7.984881401E-1
1.308108131E1;-4.226663709E-1;-3.257831633E-1;4.418300986E-1
1.309299225E1;-2.778738737E-1;-1.139176413E-1;3.832742944E-2
1.310490319E1;-1.298874021E-1;3.108780384E-1;-1.905725002E-1
1.311683756E1;-6.281439960E-2;8.251044154E-1;-3.715631366E-1
1.312872819E1;-1.277581006E-1;1.488381863E0;-5.248728395E-1
1.314063913E1;-2.757445574E-1;1.882302642E0;-5.812993646E-1
1.315255006E1;-4.716403186E-1;1.773708344E0;-5.046445131E-1
1.316446725E1;-5.717175007E-1;1.255223393E0;-3.587873280E-1
1.317637350E1;-5.823640227E-1;5.440365672E-1;-2.906496823E-1
1.318829225E1;-4.194724262E-1;-3.619812801E-2;-2.917143404E-1
1.320019694E1;-1.682148278E-1;-1.043357849E-1;-3.055547774E-1
1.321210788E1;1.415985674E-1;4.897394031E-2;-3.417529166E-1
1.322402350E1;3.236538470E-1;1.969604045E-1;-3.715631366E-1
1.323593131E1;4.077612758E-1;2.448696941E-1;-3.885975480E-1
1.324784225E1;4.418300986E-1;2.608394623E-1;-4.045673311E-1
1.325975475E1;3.907268643E-1;2.384817898E-1;-4.343775511E-1
1.327166569E1;3.087487519E-1;1.405339092E-1;-4.844161272E-1
1.328360944E1;2.288999259E-1;-1.490511186E-2;-5.120970607E-1
1.329550944E1;1.777966917E-1;-1.863138974E-1;-5.057091713E-1
1.330740162E1;1.703441292E-1;-3.779510558E-1;-4.407654405E-1
1.331931256E1;1.905725002E-1;-4.599291682E-1;-3.204599023E-1
1.333122506E1;2.182534188E-1;-3.885975480E-1;-2.161241174E-1
1.334313756E1;2.257059813E-1;-2.342231870E-1;-1.671501845E-1
1.335504694E1;1.873785406E-1;-8.517206460E-2;-1.586329788E-1
1.336696412E1;1.117883399E-1;-5.642649531E-2;-1.777966917E-1
1.337887038E1;-2.555162087E-2;-7.133160532E-2;-1.884431988E-1
1.339078288E1;-1.586329788E-1;-1.426632106E-1;-1.905725002E-1
1.340269381E1;-2.523222566E-1;-1.809906363E-1;-1.884431988E-1
1.341460631E1;-3.087487519E-1;-2.076069117E-1;-1.756673902E-1
1.342651725E1;-3.289771080E-1;-1.746027321E-1;-1.533097178E-1
1.343842819E1;-3.343003690E-1;-8.410741389E-2;-1.213701963E-1
1.345034069E1;-3.044901490E-1;2.129301615E-2;-9.262461960E-2
1.346225162E1;-2.576455176E-1;1.085943878E-1;-6.494370103E-2
1.347417975E1;-2.108008713E-1;1.437278688E-1;-4.577998444E-2
1.348607506E1;-1.458571702E-1;1.149822921E-1;-3.726277873E-2
1.349798756E1;-1.000771821E-1;8.091346174E-2;-3.406882659E-2
1.350989850E1;-7.133160532E-2;7.133160532E-2;-1.916371472E-2
1.352180944E1;-4.897394031E-2;9.049531817E-2;8.517206647E-3
1.353372038E1;-1.703441329E-2;1.160469428E-1;3.087487444E-2
1.354563288E1;5.536184460E-2;6.387905031E-2;5.003859103E-2
1.355754381E1;1.820552945E-1;-2.768092230E-2;6.494370103E-2
1.356945631E1;3.747570813E-1;-4.471533373E-2;8.197811246E-2
1.358137350E1;5.206142664E-1;1.384046115E-2;1.085943878E-1
1.359327819E1;6.025923491E-1;1.309520602E-1;1.234994978E-1
1.360519069E1;5.962044597E-1;2.416757345E-1;1.256287992E-1
1.361710162E1;5.142263770E-1;2.736152709E-1;1.128529906E-1
1.362901413E1;3.545287251E-1;2.267706245E-1;9.155996889E-2
1.364093131E1;2.246413231E-1;1.852492392E-1;7.559020817E-2
1.365283756E1;1.352106631E-1;1.522450745E-1;6.174974889E-2
1.366474850E1;1.224348471E-1;1.501157731E-1;6.068509817E-2
1.367665944E1;1.384046078E-1;1.873785406E-1;7.133160532E-2
1.368857038E1;1.234994978E-1;2.619041204E-1;9.155996889E-2
1.370049225E1;5.110324174E-2;2.949082851E-1;1.043357849E-1
1.371239381E1;-4.365068302E-2;2.789385319E-1;1.234994978E-1
1.372430631E1;-1.330813617E-1;2.097362131E-1;1.341460049E-1
1.373621881E1;-1.916371584E-1;1.735380888E-1;1.501157731E-1
1.374812975E1;-1.852492392E-1;1.394692659E-1;1.692794859E-1
1.376004225E1;-1.415985674E-1;9.368927032E-2;1.809906363E-1
1.377195163E1;-5.962044746E-2;3.193952516E-2;1.969604045E-1
1.378386413E1;5.323254317E-2;-4.790928960E-2;1.756673902E-1
1.379577506E1;2.416757345E-1;-1.767320335E-1;1.288227588E-1
1.380768756E1;4.407654405E-1;-2.927789688E-1;6.494370103E-2
1.381959850E1;5.717175007E-1;-2.661627233E-1;3.832742944E-2
1.383151881E1;6.334672570E-1;-1.447925121E-1;5.003859103E-2
1.384342194E1;6.313379407E-1;5.003859103E-2;7.559020817E-2
1.385533444E1;5.301961303E-1;2.022836655E-1;1.000771821E-1
1.386724694E1;2.800031602E-1;2.629687488E-1;8.517206460E-2
1.387915788E1;3.087487444E-2;1.522450745E-1;2.661627159E-2
1.389108131E1;-1.352106631E-1;2.129301662E-3;-4.045673087E-2
1.390298444E1;-1.373399645E-1;8.943066746E-2;-7.665485889E-2
1.391489225E1;-1.043357849E-1;2.086715698E-1;-9.368927032E-2
1.392680319E1;-1.565036774E-1;1.777966917E-1;-8.197811246E-2
1.393871412E1;-3.076840937E-1;8.304276317E-2;-7.984881103E-2
1.395065162E1;-4.801575243E-1;1.384046115E-2;-9.155996889E-2
1.396253913E1;-6.047216654E-1;-1.096590385E-1;-8.517206460E-2
1.397445006E1;-6.345319152E-1;-2.853264213E-1;-6.494370103E-2
1.398636100E1;-6.068509817E-1;-4.684463739E-1;-2.768092230E-2
1.399827350E1;-5.685235262E-1;-5.238082409E-1;1.171115879E-2
1.401019225E1;-5.291314721E-1;-4.908040464E-1;5.110324174E-2
1.402209538E1;-4.865454435E-1;-3.960501254E-1;9.262461960E-2
1.403400788E1;-4.407654405E-1;-3.215245605E-1;1.277581006E-1
1.404592038E1;-3.800803423E-1;-2.555162013E-1;1.511804163E-1
1.405783288E1;-2.991668880E-1;-2.480636388E-1;1.692794859E-1
1.406974538E1;-1.927018017E-1;-2.246413231E-1;1.863138974E-1
1.408165631E1;-5.642649531E-2;-1.905725002E-1;2.044129670E-1
1.409356569E1;1.096590385E-1;-2.139948159E-1;2.129301727E-1
1.410547819E1;3.098133802E-1;-1.724734306E-1;2.320938855E-1
1.411738756E1;4.748342633E-1;-1.128529906E-1;2.374171317E-1
1.412930006E1;5.791700482E-1;1.064650808E-2;2.438050359E-1
1.414121100E1;6.121742129E-1;7.026695460E-2;2.469989955E-1
1.415312350E1;5.589416623E-1;6.387905031E-2;2.416757345E-1
1.416503600E1;4.375714958E-1;3.300417587E-2;2.320938855E-1
1.417694694E1;3.172659576E-1;0.000000000E0;2.086715698E-1
1.418885788E1;2.821324766E-1;7.452555932E-3;1.809906363E-1
1.420076881E1;3.172659576E-1;-3.193952609E-3;1.703441292E-1
1.421268131E1;3.779510558E-1;-2.022836544E-2;1.660855263E-1
1.422459225E1;4.088259339E-1;-3.406882659E-2;1.820552945E-1
1.423650475E1;3.683691919E-1;-3.726277873E-2;2.214473784E-1
1.424842662E1;2.885203660E-1;-3.300417587E-2;2.650980651E-1
1.426032663E1;1.916371584E-1;-4.258603230E-2;2.810678184E-1
1.427224069E1;1.384046078E-1;-5.642649531E-2;2.778738737E-1
1.428415163E1;1.032711342E-1;-7.984881103E-2;2.533869147E-1
1.429606881E1;5.642649531E-2;-4.152138159E-2;2.139948159E-1
1.430797350E1;4.258603323E-3;-7.452555932E-3;1.724734306E-1
1.431988600E1;-5.962044746E-2;-3.300417587E-2;1.149822921E-1
1.433179694E1;-1.171115935E-1;-7.239625603E-2;8.197811246E-2
1.434370944E1;-1.746027321E-1;-8.304276317E-2;5.216789246E-2
1.435562038E1;-1.852492392E-1;-9.049531817E-2;2.981022373E-2
1.436753912E1;-1.533097178E-1;-1.362753063E-1;4.258603323E-3
1.437944381E1;-8.410741389E-2;-1.905725002E-1;-2.235766686E-2
1.439135631E1;-1.596976258E-2;-2.267706245E-1;-5.429719388E-2
1.440326725E1;3.726277873E-2;-2.310292274E-1;-8.304276317E-2
1.441517819E1;9.262461960E-2;-2.895850241E-1;-7.771950960E-2
1.442710319E1;1.905725002E-1;-4.269249737E-1;-3.406882659E-2
1.443900163E1;3.012961745E-1;-5.685235262E-1;4.577998444E-2
1.445091256E1;4.546059072E-1;-7.058635354E-1;1.309520602E-1
1.446282506E1;6.111095548E-1;-7.835830450E-1;1.958957613E-1
1.447473756E1;7.122514248E-1;-7.952941656E-1;2.257059813E-1
1.448664850E1;7.165099978E-1;-7.793244123E-1;2.555162013E-1
1.449855944E1;6.387904882E-1;-7.889062762E-1;2.938436270E-1
1.451047038E1;5.344547033E-1;-8.985652924E-1;3.236538470E-1
1.452238288E1;3.843389452E-1;-9.656383395E-1;2.757445574E-1
1.453430006E1;1.767320335E-1;-8.176518679E-1;1.288227588E-1
1.454620631E1;-9.901253134E-2;-4.737696350E-1;-3.726277873E-2
1.455811725E1;-3.470761776E-1;-1.895078421E-1;-8.517206460E-2
1.457002975E1;-4.982565939E-1;-1.107236892E-1;-4.790928960E-2
1.458194069E1;-4.812221825E-1;-2.331585288E-1;1.703441329E-2
1.459385319E1;-3.609166443E-1;-3.779510558E-1;4.152138159E-2
1.460577350E1;-2.150594741E-1;-4.205370843E-1;2.555162087E-2
1.461767506E1;-7.984881103E-2;-3.694338500E-1;-5.323254038E-3
1.462958756E1;4.258603230E-2;-2.288999259E-1;-2.129301615E-2
1.464149850E1;1.309520602E-1;-8.943066746E-2;-2.448697016E-2
1.465341100E1;1.682148278E-1;-2.555162087E-2;-1.064650808E-2
1.466532194E1;1.863138974E-1;-5.216789246E-2;-4.258603323E-3
1.467723288E1;2.150594741E-1;-1.352106631E-1;-1.384046115E-2
1.468914538E1;2.491282970E-1;-2.278352827E-1;-1.916371472E-2
1.470105631E1;2.831971347E-1;-3.087487519E-1;-1.703441329E-2
1.471297506E1;2.491282970E-1;-2.267706245E-1;-3.406882659E-2
1.472487975E1;6.174974889E-2;7.239625603E-2;-1.054004356E-1
1.473679225E1;-1.990897059E-1;3.694338500E-1;-1.863138974E-1
1.474870319E1;-3.683691919E-1;3.673045337E-1;-2.682920098E-1
1.476061413E1;-4.684463739E-1;2.054776102E-1;-2.842617631E-1
1.477252663E1;-5.078384280E-1;-6.387905218E-3;-2.565808594E-1
1.478443756E1;-5.152910352E-1;-2.299645841E-1;-2.203827202E-1
1.479635006E1;-4.897393882E-1;-3.289771080E-1;-1.841845959E-1
1.480826100E1;-4.311835766E-1;-3.162012994E-1;-1.543743759E-1
1.482017350E1;-3.864682615E-1;-2.033483088E-1;-1.256287992E-1
1.483208444E1;-3.736924529E-1;-5.323254317E-2;-8.943066746E-2
1.484400475E1;-4.098905623E-1;1.075297371E-1;-8.304276317E-2
1.485590788E1;-4.897393882E-1;2.203827202E-1;-7.452555746E-2
1.486781881E1;-5.781053901E-1;2.587101460E-1;-5.962044746E-2
1.487973131E1;-6.089802980E-1;1.618269235E-1;-7.026695460E-2
1.489164694E1;-5.855579376E-1;-2.768092230E-2;-5.003859103E-2
1.490355319E1;-5.738468170E-1;-1.256287992E-1;0.000000000E0
1.491546569E1;-6.121742129E-1;-2.235766686E-2;2.342231758E-2
1.492738288E1;-6.824411750E-1;2.970375717E-1;5.110324174E-2
1.493928912E1;-6.654067636E-1;6.068509817E-1;9.368927032E-2
1.495122194E1;-4.492826462E-1;6.590188742E-1;1.362753063E-1
1.496311100E1;-2.874557301E-2;4.269249737E-1;1.841845959E-1
1.497502194E1;3.619812727E-1;2.714859545E-1;2.331585288E-1
1.498693444E1;6.132388711E-1;3.704984784E-1;2.619041204E-1
1.499884694E1;6.281439662E-1;6.164328456E-1;2.789385319E-1
1.501076413E1;4.535412490E-1;7.718718648E-1;2.587101460E-1
1.502267038E1;2.012190074E-1;7.303504944E-1;2.650980651E-1
1.503457975E1;-5.749114603E-2;5.270021558E-1;2.576455176E-1
1.504649225E1;-1.916371584E-1;3.321710527E-1;2.299645841E-1
1.505840475E1;-2.757445574E-1;2.608394623E-1;2.044129670E-1
1.507032194E1;-3.747570813E-1;2.384817898E-1;1.958957613E-1
1.508222662E1;-5.014505386E-1;1.746027321E-1;2.076069117E-1
1.509413913E1;-5.749114752E-1;7.878416032E-2;2.427403927E-1
1.510605006E1;-6.536956429E-1;5.962044746E-2;2.682920098E-1
1.511796256E1;-7.047988772E-1;1.543743759E-1;2.746799290E-1
1.512987350E1;-7.346090674E-1;2.821324766E-1;2.938436270E-1
1.514178444E1;-7.260918617E-1;3.960501254E-1;3.140719831E-1
1.515369694E1;-6.292086244E-1;4.269249737E-1;3.162012994E-1
1.516560788E1;-4.961272776E-1;4.226663709E-1;2.895850241E-1
1.517752038E1;-4.279896319E-1;4.577998519E-1;2.416757345E-1
1.518943444E1;-4.088259339E-1;5.184849501E-1;1.873785406E-1
1.520134225E1;-4.290542901E-1;5.557477474E-1;1.639562249E-1
1.521325475E1;-5.280668139E-1;5.546830893E-1;1.682148278E-1
1.522516569E1;-7.090574503E-1;5.035798550E-1;1.841845959E-1
1.523707819E1;-8.006174564E-1;2.981022298E-1;2.054776102E-1
1.524898913E1;-7.750658393E-1;8.836601675E-2;2.544515431E-1
1.526090006E1;-7.750658393E-1;6.281439960E-2;2.842617631E-1
1.527281256E1;-7.484495640E-1;1.245641485E-1;2.544515431E-1
1.528472350E1;-5.823640227E-1;8.304276317E-2;2.097362131E-1
1.529663756E1;-3.343003690E-1;1.171115879E-2;1.788613349E-1
1.530854850E1;-1.171115935E-1;2.768092230E-2;1.692794859E-1
1.532045944E1;3.087487444E-2;1.234994978E-1;1.756673902E-1
1.533237194E1;1.213701963E-1;2.310292274E-1;2.054776102E-1
1.534428288E1;1.277581006E-1;2.704213262E-1;2.438050359E-1
1.535619538E1;4.790928960E-2;2.214473784E-1;2.831971347E-1
1.536811569E1;-3.832742944E-2;1.107236892E-1;3.044901490E-1
1.538001725E1;-1.203055456E-1;-3.193952609E-3;3.204599023E-1
1.539192819E1;-1.607622802E-1;-9.155996889E-2;3.012961745E-1
1.540384069E1;-1.298874021E-1;-2.044129670E-1;2.459343374E-1
1.541575319E1;-5.003859103E-2;-2.927789688E-1;1.650208831E-1
1.542766413E1;3.193952516E-2;-3.428175747E-1;1.000771821E-1
1.543957819E1;1.011418328E-1;-3.438822329E-1;3.406882659E-2
1.545148756E1;1.192408949E-1;-2.640334070E-1;-5.749114603E-2
1.546339850E1;7.239625603E-2;-1.501157731E-1;-1.501157731E-1
1.547530944E1;-1.916371472E-2;-1.650208831E-1;-2.278352827E-1
1.548722194E1;-1.043357849E-1;-2.193180770E-1;-2.810678184E-1
1.549913444E1;-1.682148278E-1;-2.778738737E-1;-3.034254909E-1
1.551104381E1;-1.990897059E-1;-3.885975480E-1;-2.906496823E-1
1.552295631E1;-1.958957613E-1;-5.898165703E-1;-2.384817898E-1
1.553486725E1;-1.916371584E-1;-7.516434789E-1;-1.746027321E-1
1.554677819E1;-2.363524884E-1;-7.484495640E-1;-1.511804163E-1
1.555869069E1;-2.991668880E-1;-6.483723521E-1;-2.203827202E-1
1.557060319E1;-2.299645841E-1;-5.908812284E-1;-2.342231870E-1
1.558251413E1;5.216789246E-2;-3.481408358E-1;-1.032711342E-1
1.559442506E1;4.631231129E-1;2.033483088E-1;1.703441329E-2
1.560633756E1;8.048760295E-1;6.004630923E-1;4.258603323E-3
1.561825163E1;1.039099216E0;4.716403186E-1;5.323254317E-2
1.563016100E1;1.130659223E0;0.000000000E0;2.395464331E-1
1.564207194E1;1.316973090E0;-1.055068970E0;2.863910794E-1
1.565398288E1;1.445795894E0;-1.851427794E0;1.181762442E-1
1.566590319E1;1.270128489E0;-1.736445546E0;5.323254038E-3
1.567781256E1;8.378801942E-1;-9.113411307E-1;-7.346090674E-2
1.568971881E1;2.587101460E-1;2.746799290E-1;-1.426632106E-1
1.570162975E1;-9.049531817E-2;8.219104409E-1;-2.491282970E-1
1.571354225E1;-1.958957613E-1;3.949854672E-1;-3.534640670E-1
1.572545319E1;-2.118655145E-1;-3.854036033E-1;-4.439594150E-1
1.573736569E1;-3.098133802E-1;-5.600063205E-1;-5.057091713E-1
1.574927662E1;-4.865454435E-1;-3.023608327E-1;-4.876100719E-1
1.576118756E1;-5.312607884E-1;-4.365068302E-2;-4.162784815E-1
1.577310006E1;-4.120198786E-1;1.043357849E-1;-4.311835766E-1
1.578501100E1;-3.193952441E-1;2.863910794E-1;-5.546830893E-1
1.579693131E1;-2.661627233E-1;5.802347064E-1;-7.292858362E-1
1.580883444E1;-1.735380888E-1;7.569667697E-1;-9.049532413E-1
1.582076256E1;-2.448697016E-2;8.911127448E-1;-1.017806172E0
1.583265788E1;2.395464331E-1;9.581857324E-1;-9.709615707E-1
1.584458912E1;5.099677444E-1;8.474620581E-1;-7.889062762E-1
1.585647975E1;7.367383838E-1;4.492826462E-1;-5.089030862E-1
1.586839225E1;8.644964695E-1;-8.410741389E-2;-2.682920098E-1
1.588030475E1;7.527081370E-1;-3.492054641E-1;-2.991668880E-1
1.589221569E1;3.971147537E-1;-3.790156841E-1;-3.704984784E-1
1.590412663E1;-3.406882659E-2;-3.289771080E-1;-4.077612758E-1
1.591603756E1;-4.939979911E-1;-2.182534188E-1;-4.301189482E-1
1.592795006E1;-7.984881401E-1;-1.682148278E-1;-4.386361539E-1
1.593986256E1;-9.901252985E-1;-2.054776102E-1;-4.397007823E-1
1.595177350E1;-1.028452754E0;-3.076840937E-1;-4.407654405E-1
1.596369381E1;-9.816080928E-1;-4.035026729E-1;-4.301189482E-1
1.597559850E1;-8.932420611E-1;-4.833514690E-1;-3.864682615E-1
1.598750788E1;-8.038113713E-1;-5.429719090E-1;-3.470761776E-1
1.599942038E1;-7.495141625E-1;-5.653296113E-1;-2.927789688E-1
1.601133131E1;-7.771950960E-1;-4.333128929E-1;-2.118655145E-1
1.602324225E1;-8.794015646E-1;-2.033483088E-1;-1.426632106E-1
1.603515475E1;-1.014612198E0;2.874557301E-2;-8.304276317E-2
1.604706569E1;-1.167922020E0;2.480636388E-1;-4.577998444E-2
1.605897819E1;-1.306326628E0;3.779510558E-1;-1.064650808E-2
1.607088912E1;-1.347847939E0;3.438822329E-1;3.513347730E-2
1.608280944E1;-1.267999172E0;1.937664598E-1;1.000771821E-1
1.609473288E1;-1.068909407E0;2.981022373E-2;1.405339092E-1
1.610662350E1;-7.303504944E-1;-1.011418328E-1;1.724734306E-1
1.611853600E1;-3.854036033E-1;-2.065422684E-1;1.927018017E-1
1.613044694E1;8.517206647E-3;-2.661627233E-1;1.192408949E-1
1.614235788E1;1.543743759E-1;-1.405339092E-1;1.171115879E-2
1.615427038E1;1.171115935E-1;1.405339092E-1;-8.623671532E-2
1.616618131E1;-5.855579674E-2;3.971147537E-1;-1.458571702E-1
1.617809381E1;-2.714859545E-1;5.067738295E-1;-1.341460049E-1
1.619000475E1;-5.781053901E-1;3.460115194E-1;-5.323254317E-2
1.620191725E1;-8.655611277E-1;2.874557301E-2;-1.703441329E-2
1.621382819E1;-1.118947983E0;-3.002315462E-1;-2.448697016E-2
1.622573912E1;-1.253094077E0;-5.451012254E-1;-1.916371472E-2
1.623765162E1;-1.126400590E0;-6.366612315E-1;6.387905218E-3
1.624956256E1;-7.601606846E-1;-6.238853931E-1;1.490511186E-2
1.626147350E1;-3.311064243E-1;-5.099677444E-1;1.277581044E-2
1.627339850E1;1.352106631E-1;-2.576455176E-1;-1.064650831E-3
1.628529694E1;4.652524292E-1;2.661627159E-2;-1.277581044E-2
1.629720944E1;6.920230389E-1;2.959729433E-1;-2.022836544E-2
1.630912038E1;8.176518679E-1;4.301189482E-1;-2.874557301E-2
1.632105319E1;8.091346622E-1;4.790928662E-1;-3.726277873E-2
1.633294381E1;6.781826019E-1;4.482180178E-1;-5.749114603E-2
1.634485475E1;4.141491652E-1;3.800803423E-1;-8.304276317E-2
1.635676725E1;-1.490511186E-2;2.895850241E-1;-1.256287992E-1
1.636867975E1;-4.780282378E-1;2.427403927E-1;-1.682148278E-1
1.638059225E1;-8.666257858E-1;2.342231870E-1;-1.905725002E-1
1.639250788E1;-1.078491330E0;1.607622802E-1;-2.001543641E-1
1.640441413E1;-1.155146122E0;2.874557301E-2;-2.054776102E-1
1.641632506E1;-1.088073134E0;-8.623671532E-2;-1.927018017E-1
1.642823600E1;-9.006946087E-1;-1.394692659E-1;-1.639562249E-1
1.644015163E1;-6.111095548E-1;-1.043357849E-1;-1.213701963E-1
1.645205944E1;-3.151366413E-1;1.064650808E-2;-8.517206460E-2
1.646397038E1;-3.087487444E-2;1.937664598E-1;-4.897394031E-2
1.647588288E1;1.320167035E-1;3.438822329E-1;-2.448697016E-2
1.648779538E1;1.980250627E-1;4.567352235E-1;-1.171115879E-2
1.649970631E1;1.714087874E-1;5.163556337E-1;0.000000000E0
1.651161881E1;1.288227588E-1;5.110324025E-1;1.596976258E-2
1.652352975E1;1.192408949E-1;4.450240433E-1;2.874557301E-2
1.653544069E1;1.298874021E-1;3.555933833E-1;3.513347730E-2
1.654735319E1;1.373399645E-1;2.544515431E-1;2.874557301E-2
1.655926413E1;1.266934574E-1;1.735380888E-1;2.022836544E-2
1.657117662E1;1.117883399E-1;6.600835174E-2;1.064650831E-3
1.658308756E1;1.022064835E-1;-8.836601675E-2;-1.384046115E-2
1.659499850E1;1.596976221E-1;-2.587101460E-1;-2.342231758E-2
1.660691100E1;3.598519862E-1;-4.524766207E-1;-6.707300246E-2
1.661882662E1;7.452555895E-1;-7.218332887E-1;-9.049531817E-2
1.663073288E1;1.720475793E0;-1.781160831E0;1.341460049E-1
1.664264381E1;2.339037895E0;-1.975991964E0;2.778738737E-1
1.665455631E1;1.933405876E0;-9.049531817E-2;1.245641485E-1
1.666646725E1;1.316973090E0;1.574618578E0;8.943066746E-2
1.667837975E1;1.403209805E0;1.023129463E0;3.736924529E-1
1.669029381E1;1.309520483E0;9.581857361E-3;7.835830450E-1
1.670220319E1;7.644193172E-1;-1.724734306E-1;9.400866628E-1
1.671411413E1;1.799259931E-1;-2.523222566E-1;9.496685266E-1
1.672602662E1;1.277581044E-2;-7.580313683E-1;9.390220642E-1
1.673793756E1;1.703441292E-1;-1.109366179E0;8.506560326E-1
1.674986413E1;2.821324766E-1;-9.933192134E-1;6.590188742E-1
1.676176100E1;2.970375717E-1;-6.749886274E-1;4.407654405E-1
1.677367194E1;3.438822329E-1;-3.374943137E-1;2.501929402E-1
1.678558444E1;4.780282378E-1;-1.841845959E-1;1.884431988E-1
1.679749538E1;6.217560768E-1;-2.022836544E-2;2.161241174E-1
1.680940788E1;6.813765168E-1;1.575683206E-1;2.076069117E-1
1.682131881E1;6.579542160E-1;2.640334070E-1;1.756673902E-1
1.683323131E1;5.120970607E-1;2.491282970E-1;1.139176413E-1
1.684515006E1;2.480636388E-1;1.234994978E-1;1.490511186E-2
1.685705788E1;3.193952516E-2;-3.193952516E-2;-6.920230389E-2
1.686896881E1;8.517206647E-3;-1.330813617E-1;-6.813765317E-2
1.688087663E1;1.288227588E-1;-1.831199378E-1;2.235766686E-2
1.689278912E1;2.587101460E-1;-2.235766798E-1;1.160469428E-1
1.690470006E1;2.970375717E-1;-3.822096586E-1;2.288999259E-1
1.691661881E1;3.492054641E-1;-7.154453397E-1;3.321710527E-1
1.692852350E1;3.715631366E-1;-1.040163875E0;4.695110321E-1
1.694043600E1;2.406110913E-1;-1.066780090E0;5.749114752E-1
1.695234694E1;-3.832742944E-2;-8.698197603E-1;5.472305417E-1
1.696425788E1;-2.587101460E-1;-7.857123017E-1;4.918686748E-1
1.697616881E1;-2.736152709E-1;-9.241169095E-1;4.865454435E-1
1.698808131E1;-7.133160532E-2;-1.153016806E0;5.312607884E-1
1.699999225E1;2.044129670E-1;-1.369140983E0;5.003858805E-1
1.701190475E1;3.885975480E-1;-1.445795894E0;4.013733566E-1
1.702381569E1;1.863138974E-1;-1.211572647E0;3.140719831E-1
1.703573131E1;-3.289771080E-1;-6.505016685E-1;2.725506127E-1
1.704763912E1;-7.984881401E-1;-2.874557376E-1;2.682920098E-1
1.705955006E1;-9.443452954E-1;-5.940751433E-1;3.300417662E-1
1.707146256E1;-7.016049027E-1;-1.476670742E0;6.324025989E-1
1.708337350E1;-3.002315462E-1;-2.161241293E0;9.581857324E-1
1.709528756E1;1.075297371E-1;-2.293257952E0;1.077426672E0
1.710719694E1;5.536184311E-1;-1.861009717E0;8.442681432E-1
1.711910944E1;9.113411307E-1;-1.282904267E0;4.524766207E-1
1.713102038E1;1.183891773E0;-5.227435827E-1;1.277581044E-2
1.714293131E1;1.196667552E0;1.682148278E-1;-3.438822329E-1
1.715484381E1;8.549146056E-1;3.417529166E-1;-6.228207350E-1
1.716675475E1;2.299645841E-1;3.800803423E-1;-7.569667697E-1
1.717866569E1;-4.524766207E-1;4.961272776E-1;-7.431262732E-1
1.719057819E1;-8.644964695E-1;6.664714217E-1;-7.165099978E-1
1.720248912E1;-1.085943818E0;8.240397573E-1;-6.994755864E-1
1.721443444E1;-9.198583364E-1;6.856351495E-1;-6.111095548E-1
1.722632194E1;-5.972691178E-1;5.812993646E-1;-5.195496082E-1
1.723822350E1;-4.503473043E-1;8.900480866E-1;-5.663942695E-1
1.725013600E1;-5.025151968E-1;1.440472603E0;-7.282211781E-1
1.726204694E1;-6.845704913E-1;2.071810484E0;-9.326341152E-1
1.727395944E1;-8.293629885E-1;2.427403927E0;-1.056133628E0
1.728587038E1;-9.113411307E-1;2.598812819E0;-1.109366179E0
1.729778288E1;-9.475392699E-1;2.543450832E0;-1.075297356E0
1.730969381E1;-8.889834285E-1;2.146336079E0;-9.454099536E-1
1.732160631E1;-7.292858362E-1;1.568230629E0;-6.302732825E-1
1.733351881E1;-5.770407319E-1;9.400866628E-1;-2.895850241E-1
1.734542975E1;-4.301189482E-1;3.555933833E-1;-1.799259931E-1
1.735734069E1;-3.811450005E-1;9.581857920E-2;-1.863138974E-1
1.736925319E1;-3.917915225E-1;-5.323254317E-2;-1.575683206E-1
1.738116569E1;-4.482180178E-1;-9.262461960E-2;-1.575683206E-1
1.739307506E1;-5.451012254E-1;-6.813765317E-2;-1.756673902E-1
1.740498912E1;-6.590188742E-1;-2.129301662E-3;-1.873785406E-1
1.741689850E1;-7.676132321E-1;9.581857920E-2;-1.895078421E-1
1.742880944E1;-8.591732383E-1;2.118655145E-1;-2.097362131E-1
1.744072194E1;-9.315694571E-1;2.853264213E-1;-2.257059813E-1
1.745263444E1;-9.730908871E-1;3.162012994E-1;-2.246413231E-1
1.746454381E1;-1.000771761E0;2.714859545E-1;-2.086715698E-1
1.747645631E1;-1.034840584E0;2.097362131E-1;-1.777966917E-1
1.748836725E1;-1.078491330E0;1.447925121E-1;-1.245641485E-1
1.750027975E1;-1.121077299E0;8.730136603E-2;-6.281439960E-2
1.751219694E1;-1.145564318E0;1.277581044E-2;-5.323254317E-2
1.752410319E1;-1.135982394E0;-7.878416032E-2;-5.536184460E-2
1.753601412E1;-1.085943818E0;-2.331585288E-1;-4.577998444E-2
1.754792506E1;-1.003965735E0;-3.758217394E-1;-2.235766686E-2
1.755983600E1;-8.219104409E-1;-4.822868407E-1;-1.064650808E-2
1.757174850E1;-5.876872540E-1;-5.025151968E-1;-1.809906401E-2
1.758366413E1;-2.842617631E-1;-4.460887015E-1;-3.832742944E-2
1.759557194E1;8.410741389E-2;-2.501929402E-1;-2.874557301E-2
1.760749225E1;3.630459309E-1;5.962044746E-2;-4.258603323E-3
1.761939538E1;3.971147537E-1;5.312607884E-1;5.110324174E-2
1.763131256E1;2.193180770E-1;6.941523552E-1;5.962044746E-2
1.764321725E1;1.384046115E-2;6.143035293E-1;4.258603230E-2
1.765512975E1;-1.085943878E-1;3.992440701E-1;1.916371472E-2
1.766704225E1;-5.855579674E-2;2.523222566E-1;1.171115879E-2
1.767895319E1;5.642649531E-2;1.234994978E-1;4.258603323E-3
1.769086412E1;1.724734306E-1;1.171115935E-1;-2.235766686E-2
1.770279069E1;2.991668880E-1;1.234994978E-1;-2.022836544E-2
1.771468756E1;4.524766207E-1;1.820552945E-1;-1.809906401E-2
1.772659850E1;6.898937225E-1;3.076840937E-1;-3.193952609E-3
1.773850944E1;9.560564756E-1;4.876100719E-1;2.129301615E-2
1.775042350E1;1.162598729E0;7.207686305E-1;7.026695460E-2
1.776233288E1;1.279710293E0;9.848020077E-1;1.330813617E-1
1.777424538E1;1.293550730E0;1.071038723E0;2.033483088E-1
1.778615788E1;1.256287932E0;8.868541718E-1;2.459343374E-1
1.779806881E1;1.194538236E0;5.376486778E-1;2.278352827E-1
1.780998131E1;1.157275438E0;7.026695460E-2;2.076069117E-1
1.782190163E1;1.306326628E0;-6.686007380E-1;2.022836655E-1
1.783380319E1;1.450054407E0;-1.241382837E0;1.714087874E-1
1.784571569E1;1.441537261E0;-1.417050242E0;2.874557301E-2
1.785762819E1;1.291421413E0;-1.427696824E0;-2.981022373E-2
1.786954069E1;9.081471562E-1;-1.144499660E0;5.323254038E-3
1.788145006E1;3.396236300E-1;-5.472305417E-1;5.323254317E-2
1.789336256E1;-1.107236892E-1;-2.076069117E-1;1.266934574E-1
1.790527350E1;-2.438050359E-1;-3.087487519E-1;2.033483088E-1
1.791718600E1;-2.906496823E-1;-8.623671532E-2;2.246413231E-1
1.792909694E1;-2.299645841E-1;5.429719090E-1;1.650208831E-1
1.794100788E1;-1.490511186E-2;1.182827115E0;3.832742944E-2
1.795292038E1;4.599291682E-1;1.311649799E0;-1.064650831E-3
1.796483131E1;8.155225515E-1;1.133853197E0;3.513347730E-2
1.797674381E1;9.454099536E-1;9.794787765E-1;5.003859103E-2
1.798865475E1;9.624443650E-1;7.654839754E-1;2.129301615E-2
1.800056881E1;9.379574060E-1;4.769635797E-1;-1.171115879E-2
1.801247819E1;9.166643620E-1;1.820552945E-1;-4.258603230E-2
1.802438913E1;8.251044154E-1;5.110324174E-2;-6.707300246E-2
1.803630162E1;6.281439662E-1;-1.490511186E-2;-1.916371472E-2
1.804821881E1;3.981794119E-1;-1.054004356E-1;2.022836544E-2
1.806012350E1;2.001543641E-1;-2.384817898E-1;-2.448697016E-2
1.807203444E1;1.639562249E-1;-4.748342633E-1;-6.494370103E-2
1.808394694E1;2.225120217E-1;-6.111095548E-1;-5.962044746E-2
1.809585788E1;2.278352827E-1;-5.972691178E-1;-7.239625603E-2
1.810777038E1;1.309520602E-1;-4.514119625E-1;-1.852492392E-1
1.811968131E1;3.939208016E-2;-1.714087874E-1;-3.971147537E-1
1.813159225E1;7.133160532E-2;1.075297371E-1;-5.163556337E-1
1.814350475E1;1.639562249E-1;4.673817158E-1;-4.354421794E-1
1.815541569E1;1.469218135E-1;8.613025546E-1;-1.820552945E-1
1.816732819E1;-1.703441292E-1;1.176439166E0;-3.513347730E-2
1.817924850E1;-8.165872097E-1;1.672566414E0;5.962044746E-2
1.819115006E1;-1.325490236E0;1.814164996E0;1.085943878E-1
1.820306256E1;-1.555454850E0;1.328684211E0;1.362753063E-1
1.821497350E1;-1.427696824E0;4.577998519E-1;8.836601675E-2
1.822689225E1;-1.161534071E0;-1.181762442E-1;8.836601675E-2
1.823879850E1;-9.028239250E-1;-3.140719831E-1;9.688322991E-2
1.825070944E1;-6.494370103E-1;-3.726277947E-1;7.026695460E-2
1.826262194E1;-3.289771080E-1;-4.812221825E-1;-7.452555746E-2
1.827453288E1;-1.533097178E-1;-5.589416623E-1;-5.216789246E-2
1.828644381E1;-1.575683206E-1;-1.841845959E-1;-9.049531817E-2
1.829835788E1;-2.150594741E-1;2.512575984E-1;-1.799259931E-1
1.831026725E1;-7.133160532E-2;2.693566680E-1;-1.394692659E-1
1.832217819E1;1.171115935E-1;-1.575683206E-1;-1.096590385E-1
1.833409069E1;1.628915817E-1;-8.133932352E-1;-1.948311031E-1
1.834600944E1;-3.300417587E-2;-1.093396425E0;-3.215245605E-1
1.835791412E1;-3.577226698E-1;-1.141305685E0;-4.428947568E-1
1.836982506E1;-6.781826019E-1;-1.239253521E0;-5.663942695E-1
1.838173600E1;-7.995527983E-1;-1.373399615E0;-6.611481905E-1
1.839364850E1;-7.633546591E-1;-1.318037748E0;-6.174975038E-1
1.840556569E1;-6.590188742E-1;-1.151952267E0;-4.971919358E-1
1.841747194E1;-5.770407319E-1;-8.751429915E-1;-4.162784815E-1
1.842938288E1;-5.035798550E-1;-7.047988772E-1;-3.502701223E-1
1.844129538E1;-3.332357109E-1;-6.632774472E-1;-3.098133802E-1
1.845320631E1;-1.671501845E-1;-7.090574503E-1;-3.204599023E-1
1.846512662E1;-1.724734306E-1;-5.216789246E-1;-3.928561509E-1
1.847702975E1;-2.565808594E-1;-2.800031602E-1;-4.439594150E-1
1.848894069E1;-3.343003690E-1;-1.618269235E-1;-4.482180178E-1
1.850085319E1;-4.375714958E-1;-1.075297371E-1;-3.960501254E-1
1.851276412E1;-5.610709786E-1;-7.878416032E-2;-3.619812727E-1
1.852467662E1;-7.111867666E-1;2.022836544E-2;-3.438822329E-1
1.853658756E1;-8.975006342E-1;1.735380888E-1;-3.162012994E-1
1.854849850E1;-1.025258780E0;2.448696941E-1;-2.821324766E-1
1.856041100E1;-1.058262944E0;1.405339092E-1;-2.406110913E-1
1.857232194E1;-1.001836419E0;-4.577998444E-2;-2.118655145E-1
1.858423444E1;-8.740783334E-1;-1.469218135E-1;-2.171887755E-1
1.859614538E1;-6.920230389E-1;-1.298874021E-1;-2.257059813E-1
1.860805631E1;-4.386361539E-1;2.448697016E-2;-1.777966917E-1
1.861996881E1;-1.777966917E-1;2.054776102E-1;-1.107236892E-1
1.863187975E1;1.788613349E-1;1.884431988E-1;-9.049531817E-2
1.864379694E1;5.440365672E-1;-2.235766686E-2;-8.943066746E-2
1.865571413E1;7.165099978E-1;-5.216789246E-2;-8.410741389E-2
1.866761412E1;6.345319152E-1;1.746027321E-1;-5.962044746E-2
1.867952506E1;4.716403186E-1;3.374943137E-1;-3.087487444E-2
1.869143756E1;3.641105890E-1;1.596976221E-1;-2.129301662E-3
1.870334850E1;3.279124498E-1;-2.203827202E-1;4.152138159E-2
1.871526100E1;2.938436270E-1;-3.875329196E-1;4.258603230E-2
1.872717194E1;2.310292274E-1;-2.576455176E-1;5.749114603E-2
1.873908444E1;1.660855263E-1;3.406882659E-2;1.224348471E-1
1.875099538E1;1.096590385E-1;3.822096586E-1;2.108008713E-1
1.876290788E1;8.623671532E-2;6.419844627E-1;2.629687488E-1
1.877481881E1;5.110324174E-2;8.676904440E-1;2.959729433E-1
1.878673131E1;1.277581044E-2;9.698969126E-1;2.810678184E-1
1.879864225E1;5.323254038E-3;6.377258301E-1;1.937664598E-1
1.881055475E1;2.768092230E-2;-2.682920098E-1;2.139948159E-1
1.882246725E1;-7.452555932E-3;-7.122514248E-1;1.841845959E-1
1.883437662E1;-1.075297371E-1;-6.451784372E-1;1.554390192E-1
1.884628913E1;-1.266934574E-1;-4.929333329E-1;1.245641485E-1
1.885820006E1;-5.323254038E-3;-4.216017425E-1;1.341460049E-1
1.887011256E1;2.097362131E-1;-3.119426966E-1;1.905725002E-1
1.888202350E1;3.619812727E-1;-5.323254317E-2;2.480636388E-1
1.889393600E1;3.885975480E-1;3.523994386E-1;3.236538470E-1
1.890584694E1;3.364296556E-1;6.100449562E-1;3.832743168E-1
1.891775788E1;2.991668880E-1;7.942295074E-1;4.631231129E-1
1.892967038E1;3.406882584E-1;9.698969126E-1;5.099677444E-1
1.894158131E1;3.715631366E-1;1.243512154E0;4.929333329E-1
1.895349225E1;2.512575984E-1;1.477735400E0;4.748342633E-1
1.896540475E1;-1.160469428E-1;1.508610249E0;4.247956872E-1
1.897731569E1;-7.346090674E-1;1.246706128E0;3.044901490E-1
1.898922819E1;-1.467088819E0;7.910355926E-1;2.374171317E-1
1.900113912E1;-1.947246432E0;4.939979911E-1;2.012190074E-1
1.901305475E1;-2.118655205E0;2.352878302E-1;1.032711342E-1
1.902496256E1;-2.122913837E0;-1.543743759E-1;8.410741389E-2
1.903687350E1;-1.979185939E0;-5.993984342E-1;1.735380888E-1
1.904878600E1;-1.700247407E0;-1.006095052E0;2.448696941E-1
1.906069694E1;-1.348912597E0;-1.238188982E0;2.981022298E-1
1.907260788E1;-9.464746118E-1;-1.329748869E0;3.694338500E-1
1.908452038E1;-3.225892186E-1;-1.377658129E0;4.141491652E-1
1.909643131E1;3.715631366E-1;-1.367011666E0;4.066966176E-1
1.910834381E1;1.075297356E0;-9.198583364E-1;3.641105890E-1
1.912025475E1;1.397886515E0;-1.660855263E-1;3.641105890E-1
1.913216725E1;1.582071185E0;6.387904882E-1;3.779510558E-1
1.914407819E1;1.608687401E0;9.347634315E-1;3.779510558E-1
1.915598912E1;1.539485097E0;1.044422507E0;3.779510558E-1
1.916790163E1;1.360623717E0;1.194538236E0;4.184077680E-1
1.917981256E1;1.089137793E0;1.367011666E0;4.822868407E-1
1.919172350E1;7.697425485E-1;1.260546565E0;4.982565939E-1
1.920363600E1;5.632002950E-1;7.974234819E-1;5.248728395E-1
1.921554694E1;4.780282378E-1;1.671501845E-1;5.142263770E-1
1.922745788E1;4.460887015E-1;-4.897394031E-2;4.535412490E-1
1.923937663E1;2.863910794E-1;1.692794859E-1;4.194724262E-1
1.925128288E1;4.258603323E-3;5.674588680E-1;4.908040464E-1
1.926319381E1;-1.884431988E-1;6.568895578E-1;6.249500513E-1
1.927510475E1;-2.001543641E-1;2.384817898E-1;7.878416181E-1
1.928701725E1;-5.855579674E-2;-3.428175747E-1;9.070824981E-1
1.929892819E1;1.565036774E-1;-7.484495640E-1;9.624443650E-1
1.931084069E1;4.641877711E-1;-1.035905242E0;9.986425042E-1
1.932275163E1;6.813765168E-1;-9.954485297E-1;1.001836419E0
1.933466412E1;7.495141625E-1;-5.908812284E-1;9.305048585E-1
1.934657506E1;7.527081370E-1;-2.895850241E-1;8.495913744E-1
1.935848756E1;8.261690736E-1;-4.024380147E-1;8.495913744E-1
1.937040788E1;8.943067193E-1;-6.111095548E-1;9.709615707E-1
1.938231100E1;7.111867666E-1;-5.749114752E-1;1.183891773E0
1.939422194E1;2.427403927E-1;-4.631231129E-1;1.194538236E0
1.940613288E1;-4.503473043E-1;-4.769635797E-1;8.847248554E-1
1.941804381E1;-8.368155360E-1;-6.324025989E-1;6.228207350E-1
1.942995631E1;-6.952170134E-1;-7.516434789E-1;5.653296113E-1
1.944186881E1;-3.044901490E-1;-8.708843589E-1;5.876872540E-1
1.945377975E1;-6.494370103E-2;-7.218332887E-1;5.855579376E-1
1.946569069E1;7.452555932E-3;-4.929333329E-1;3.736924529E-1
1.947760163E1;-4.471533373E-2;-5.227435827E-1;1.415985674E-1
1.948951412E1;-1.415985674E-1;-5.131617188E-1;-2.129301662E-3
1.950142662E1;-1.256287992E-1;-6.579542160E-1;-1.022064835E-1
1.951333756E1;1.064650831E-3;-4.322482347E-1;-2.065422684E-1
1.952524850E1;1.735380888E-1;2.555162087E-2;-3.673045337E-1
1.953716725E1;3.673045337E-1;3.513347805E-1;-5.238082409E-1
1.954907194E1;5.749114752E-1;4.524766207E-1;-6.696653962E-1
1.956098288E1;8.921774030E-1;3.715631366E-1;-9.092118144E-1
1.957289538E1;1.279710293E0;1.000771821E-1;-1.175374508E0
1.958480631E1;1.641691566E0;-2.650980651E-1;-1.298874021E0
1.959672038E1;1.919565439E0;-6.696653962E-1;-1.294615388E0
1.960863912E1;2.133560181E0;-1.184956431E0;-1.118947983E0
1.962054069E1;2.188922167E0;-1.413856268E0;-8.453327417E-1
1.963245319E1;2.106944084E0;-1.374464273E0;-4.439594150E-1
1.964436413E1;1.885496616E0;-8.634318113E-1;-1.756673902E-1
1.965627662E1;1.563972116E0;-1.969604045E-1;-1.234994978E-1
1.966818912E1;1.244576812E0;5.642649531E-2;-1.533097178E-1
1.968009850E1;9.933192134E-1;-1.511804163E-1;-2.033483088E-1
1.969201100E1;7.793244123E-1;-6.952170134E-1;-3.087487519E-1
1.970392194E1;4.844161272E-1;-1.141305685E0;-4.460887015E-1
1.971583913E1;-1.596976258E-2;-9.038885832E-1;-5.344547033E-1
1.972774538E1;-3.960501254E-1;-5.951398015E-1;-5.898165703E-1
1.973965631E1;-6.068509817E-1;-3.108780384E-1;-7.431262732E-1
1.975156881E1;-7.761304379E-1;2.214473784E-1;-8.772723079E-1
1.976348131E1;-8.740783334E-1;7.601606846E-1;-9.517978430E-1
1.977539381E1;-8.911127448E-1;9.911899567E-1;-9.336987734E-1
1.978730319E1;-8.719490170E-1;1.056133628E0;-8.091346622E-1
1.979921569E1;-8.474620581E-1;1.082749963E0;-6.686007380E-1
1.981112662E1;-8.613025546E-1;1.181762457E0;-6.324025989E-1
1.982303912E1;-8.613025546E-1;1.262675881E0;-6.409198046E-1
1.983495788E1;-7.729365230E-1;1.163663387E0;-6.568895578E-1
1.984686256E1;-5.248728395E-1;8.059406877E-1;-6.579542160E-1
1.985877350E1;-2.438050359E-1;3.715631366E-1;-6.217560768E-1
1.987068600E1;2.768092230E-2;-1.809906401E-2;-5.387133360E-1
1.988259694E1;1.628915817E-1;-1.458571702E-1;-4.354421794E-1
1.989451569E1;5.855579674E-2;1.171115935E-1;-3.513347805E-1
1.990642194E1;-1.628915817E-1;5.333900452E-1;-3.044901490E-1
1.991833131E1;-4.769635797E-1;1.025258780E0;-2.640334070E-1
1.993024381E1;-6.962816715E-1;1.234995008E0;-2.203827202E-1
1.994215475E1;-8.059406877E-1;1.096590400E0;-1.469218135E-1
1.995406725E1;-8.740783334E-1;8.655611277E-1;-1.022064835E-1
1.996597819E1;-9.145350456E-1;5.632002950E-1;-1.011418328E-1
1.997788912E1;-9.422159791E-1;3.896622062E-1;-1.224348471E-1
1.998980944E1;-9.773494601E-1;3.843389452E-1;-1.714087874E-1
2.000171256E1;-1.036969900E0;5.812993646E-1;-1.884431988E-1
2.001362819E1;-1.112560153E0;7.899709344E-1;-1.277581006E-1
2.002553912E1;-1.216895938E0;9.273108840E-1;2.555162087E-2
2.003744694E1;-1.328684211E0;9.826727509E-1;1.309520602E-1
2.004935944E1;-1.455377698E0;9.965131879E-1;2.044129670E-1
2.006127038E1;-1.523515344E0;9.230522513E-1;2.938436270E-1
2.007318444E1;-1.491575837E0;7.835830450E-1;4.077612758E-1
2.008510788E1;-1.310585141E0;5.930105448E-1;4.886747301E-1
2.009700475E1;-9.858666658E-1;3.619812727E-1;4.822868407E-1
2.010891725E1;-5.482951999E-1;8.304276317E-2;4.301189482E-1
2.012082819E1;-7.346090674E-2;-8.304276317E-2;4.961272776E-1
2.013274069E1;3.034254909E-1;-5.216789246E-2;6.930876970E-1
2.014465162E1;4.982565939E-1;2.193180770E-1;7.505788207E-1
2.015656256E1;7.644193172E-1;4.939979911E-1;5.802347064E-1
2.016847506E1;1.010353684E0;4.546059072E-1;3.960501254E-1
2.018038600E1;1.021000147E0;-4.503473043E-1;1.788613349E-1
2.019230319E1;6.505016685E-1;-7.037342191E-1;1.117883399E-1
2.020420944E1;-2.874557301E-2;-1.117883399E-1;1.607622802E-1
2.021612038E1;-5.110324025E-1;4.269249737E-1;2.650980651E-1
2.022803288E1;-5.993984342E-1;4.375714958E-1;3.577226698E-1
2.023994381E1;-6.739239693E-1;2.853264213E-1;4.428947568E-1
2.025185475E1;-8.080700040E-1;2.299645841E-1;4.301189482E-1
2.026377038E1;-1.010353684E0;4.801575243E-1;4.024380147E-1
2.027568912E1;-1.133853197E0;8.527853489E-1;3.662398756E-1
2.028759069E1;-1.099784374E0;1.206249356E0;3.108780384E-1
2.029950162E1;-1.023129463E0;1.250964761E0;3.470761776E-1
2.031141256E1;-9.624443650E-1;1.025258780E0;2.810678184E-1
2.032332506E1;-8.911127448E-1;5.408426523E-1;2.129301727E-1
2.033523600E1;-7.984881401E-1;-7.984881103E-2;4.790928960E-2
2.034714850E1;-7.356737256E-1;-5.035798550E-1;-1.788613349E-1
2.035906100E1;-7.388677001E-1;-4.503473043E-1;-3.523994386E-1
2.037097194E1;-7.495141625E-1;-2.565808594E-1;-4.609938264E-1
2.038288288E1;-7.654839754E-1;-2.320938855E-1;-5.791700482E-1
2.039479538E1;-8.272337317E-1;-3.449468613E-1;-6.909583807E-1
2.040671100E1;-9.507331848E-1;-5.131617188E-1;-7.484495640E-1
2.041861881E1;-1.116818786E0;-3.460115194E-1;-7.633546591E-1
2.043053600E1;-1.245641470E0;1.714087874E-1;-7.527081370E-1
2.044244069E1;-1.423438191E0;6.696653962E-1;-5.898165703E-1
2.045435319E1;-1.628915787E0;7.910355926E-1;-1.628915817E-1
2.046626413E1;-1.429826021E0;-1.107236892E-1;2.512575984E-1
2.047817662E1;-5.408426523E-1;-1.553325534E0;3.715631366E-1
2.049008756E1;4.450240433E-1;-2.963987827E0;2.501929402E-1
2.050199850E1;9.134704471E-1;-3.687950611E0;-9.049531817E-2
2.051391100E1;8.591732383E-1;-3.654946327E0;-6.696653962E-1
2.052582194E1;4.716403186E-1;-2.793643713E0;-1.232865691E0
2.053773444E1;-6.813765317E-2;-1.265869856E0;-1.721540451E0
2.054964538E1;-3.555933833E-1;-1.777966917E-1;-1.662984610E0
2.056155631E1;-4.439594150E-1;1.071038723E0;-1.013547659E0
2.057346881E1;-3.374943137E-1;2.020707369E0;-3.044901490E-1
2.058537975E1;-1.234994978E-1;2.277288198E0;8.943066746E-2
2.059729225E1;1.373399645E-1;1.573553920E0;7.239625603E-2
2.060920788E1;2.629687488E-1;4.758989215E-1;-1.266934574E-1
2.062111569E1;3.236538470E-1;-5.919458866E-1;-3.076840937E-1
2.063302663E1;4.120198786E-1;-8.698197603E-1;-3.939208090E-1
2.064494381E1;5.451012254E-1;-3.523994386E-1;-4.247956872E-1
2.065685006E1;6.664714217E-1;1.873785406E-1;-4.056319594E-1
2.066876100E1;7.133160830E-1;3.492054641E-1;-3.311064243E-1
2.068067194E1;6.930876970E-1;1.799259931E-1;-2.395464331E-1
2.069258444E1;5.866225958E-1;-1.618269235E-1;-2.672273517E-1
2.070449538E1;3.779510558E-1;-5.802347064E-1;-3.300417662E-1
2.071640788E1;9.581857920E-2;-9.379574060E-1;-3.609166443E-1
2.072832819E1;-2.054776102E-1;-1.159404755E0;-3.630459309E-1
2.074022975E1;-5.759761333E-1;-1.219025254E0;-3.353650272E-1
2.075214225E1;-8.804662228E-1;-1.036969900E0;-3.130073547E-1
2.076405475E1;-1.107236862E0;-5.823640227E-1;-3.204599023E-1
2.077596569E1;-1.156210780E0;-1.224348471E-1;-3.215245605E-1
2.078787663E1;-1.100848913E0;1.171115935E-1;-2.938436270E-1
2.079978912E1;-9.997071624E-1;6.068509817E-2;-2.597748041E-1
2.081170006E1;-8.911127448E-1;-2.310292274E-1;-2.288999259E-1
2.082361100E1;-7.963588238E-1;-5.983337760E-1;-1.799259931E-1
2.083552350E1;-7.378030419E-1;-7.740011811E-1;-1.788613349E-1
2.084743600E1;-7.271565199E-1;-7.197039723E-1;-1.660855263E-1
2.085934694E1;-7.399323583E-1;-5.238082409E-1;-1.756673902E-1
2.087125788E1;-7.697425485E-1;-2.012190074E-1;-1.916371584E-1
2.088317038E1;-7.473849058E-1;1.171115935E-1;-1.916371584E-1
2.089508131E1;-6.334672570E-1;3.353650272E-1;-1.565036774E-1
2.090699538E1;-4.152138233E-1;2.768092155E-1;-1.160469428E-1
2.091890475E1;-1.660855263E-1;1.096590385E-1;-1.192408949E-1
2.093081569E1;1.447925121E-1;-8.304276317E-2;-1.054004356E-1
2.094272819E1;4.407654405E-1;-2.235766798E-1;-5.216789246E-2
2.095463912E1;8.261690736E-1;-1.735380888E-1;-6.387905218E-3
2.096655162E1;1.150887609E0;6.387905218E-3;3.193952609E-3
2.097846413E1;1.463894963E0;1.245641485E-1;1.916371472E-2
2.099037350E1;1.711958528E0;1.895078421E-1;4.471533373E-2
2.100228444E1;1.773708344E0;2.076069117E-1;3.513347730E-2
2.101419694E1;1.661919951E0;2.416757345E-1;1.171115879E-2
2.102611413E1;1.478800058E0;2.661627233E-1;-1.703441329E-2
2.103802038E1;1.240318179E0;3.066194355E-1;-4.258603230E-2
2.104993131E1;9.773494601E-1;2.810678184E-1;-7.771950960E-2
2.106184225E1;6.036570072E-1;2.225120217E-1;-1.213701963E-1
2.107375475E1;8.623671532E-2;4.184077680E-1;-1.863138974E-1
2.108566569E1;-5.131617188E-1;8.187164664E-1;-2.416757345E-1
2.109757819E1;-9.305048585E-1;8.091346622E-1;-3.204599023E-1
2.110948912E1;-1.112560153E0;3.172659576E-1;-4.003087282E-1
2.112140788E1;-1.121077299E0;-3.609166443E-1;-4.365068376E-1
2.113331256E1;-1.027388096E0;-7.931648493E-1;-4.695110321E-1
2.114522663E1;-9.486039281E-1;-8.581085801E-1;-4.812221825E-1
2.115713600E1;-9.155997038E-1;-6.249500513E-1;-4.908040464E-1
2.116904694E1;-9.113411307E-1;-3.183306158E-1;-4.971919358E-1
2.118095944E1;-8.921774030E-1;-2.874557301E-2;-5.057091713E-1
2.119287038E1;-8.091346622E-1;1.000771821E-1;-5.195496082E-1
2.120478288E1;-6.611481905E-1;1.043357849E-1;-5.120970607E-1
2.121669381E1;-4.333128929E-1;3.087487444E-2;-4.876100719E-1
2.122860475E1;-1.682148278E-1;-1.596976258E-2;-4.588645101E-1
2.124051725E1;1.192408949E-1;2.129301662E-3;-4.194724262E-1
2.125242819E1;4.258603454E-1;1.511804163E-1;-3.875329196E-1
2.126434069E1;6.898937225E-1;3.598519862E-1;-3.555933833E-1
2.127625319E1;8.868541718E-1;5.493598580E-1;-3.268478215E-1
2.128816412E1;1.072103381E0;7.218332887E-1;-3.012961745E-1
2.130007506E1;1.194538236E0;8.187164664E-1;-2.768092155E-1
2.131198756E1;1.267999172E0;8.314923048E-1;-2.448696941E-1
2.132389850E1;1.257352591E0;7.069281340E-1;-2.544515431E-1
2.133581413E1;1.180697799E0;4.673817158E-1;-2.768092155E-1
2.134772194E1;9.933192134E-1;2.203827202E-1;-2.640334070E-1
2.135963288E1;7.399323583E-1;1.277581006E-1;-2.193180770E-1
2.137154538E1;4.929333329E-1;1.724734306E-1;-1.533097178E-1
2.138345631E1;3.704984784E-1;1.575683206E-1;-8.943066746E-2
2.139536725E1;3.343003690E-1;1.192408949E-1;-5.962044746E-2
2.140727975E1;3.470761776E-1;1.085943878E-1;-5.749114603E-2
2.141920006E1;4.056319594E-1;6.281439960E-2;-6.387905031E-2
2.143110319E1;4.822868407E-1;-7.452555932E-3;-4.152138159E-2
2.144301725E1;5.333900452E-1;-4.152138159E-2;-3.513347730E-2
2.145492819E1;5.472305417E-1;2.129301662E-3;-2.235766686E-2
2.146683756E1;5.344547033E-1;7.026695460E-2;-2.448697016E-2
2.147874850E1;5.067738295E-1;1.224348471E-1;-2.022836544E-2
2.149066100E1;5.003858805E-1;8.730136603E-2;3.406882659E-2
2.150257350E1;5.312607884E-1;-4.258603323E-3;2.022836544E-2
2.151449850E1;5.440365672E-1;-9.368927032E-2;-3.300417587E-2
2.152639538E1;4.897393882E-1;-1.937664598E-1;-9.794788063E-2
2.153830631E1;2.970375717E-1;-2.885203660E-1;-1.586329788E-1
2.155021881E1;9.581857361E-3;-2.576455176E-1;-2.214473784E-1
2.156212975E1;-3.002315462E-1;-1.075297371E-1;-2.608394623E-1
2.157404069E1;-4.492826462E-1;-1.437278688E-1;-2.299645841E-1
2.158595319E1;-3.162012994E-1;-7.473849058E-1;-4.365068302E-2
2.159786412E1;-4.152138159E-2;-1.428761482E0;1.895078421E-1
2.160977506E1;7.984881103E-2;-1.612946033E0;4.567352235E-1
2.162169381E1;-8.623671532E-2;-1.131723881E0;6.760532856E-1
2.163360006E1;-2.672273517E-1;-5.993984342E-1;8.282983303E-1
2.164551100E1;-3.704984784E-1;-1.990897059E-1;9.187936783E-1
2.165742194E1;-4.184077680E-1;1.192408949E-1;1.040163875E0
2.166933444E1;-5.057091713E-1;4.758989215E-1;1.253094077E0
2.168124538E1;-6.696653962E-1;7.803890705E-1;1.249900103E0
2.169315788E1;-6.451784372E-1;6.100449562E-1;8.293629885E-1
2.170506881E1;2.225120217E-1;-1.135982394E0;5.642649531E-1
2.171697975E1;1.199861526E0;-1.742833376E0;1.142370343E0
2.172889225E1;1.039099216E0;6.941523552E-1;1.542679071E0
2.174080319E1;4.577998444E-2;1.912112951E0;1.331878185E0
2.175272506E1;-5.089030862E-1;3.502701223E-1;8.070053458E-1
2.176462663E1;-2.704213262E-1;-1.878044128E0;1.277581006E-1
2.177653756E1;2.800031602E-1;-4.110616684E0;-7.090574503E-1
2.178845006E1;7.346090674E-1;-5.066673279E0;-1.369140983E0
2.180036881E1;7.622900009E-1;-4.733437538E0;-1.554390192E0
2.181227194E1;6.760532856E-1;-3.840195656E0;-1.332942843E0
2.182418444E1;1.096590385E-1;-1.360623717E0;-7.580313683E-1
2.183610319E1;-6.600835174E-2;5.632002950E-1;-4.652524292E-1
2.184800788E1;4.684463739E-1;3.694338500E-1;-3.428175747E-1
2.185992506E1;8.453327417E-1;1.948311031E-1;-2.214473784E-1
2.187183288E1;9.709615707E-1;1.820552945E-1;-2.363524884E-1
2.188374381E1;7.676132321E-1;1.799259931E-1;-2.044129670E-1
2.189565475E1;4.460887015E-1;8.623671532E-2;-1.256287992E-1
2.190756569E1;2.597748041E-1;-3.417529166E-1;-1.809906401E-2
2.191947819E1;1.022064835E-1;-6.260147095E-1;1.618269235E-1
2.193138913E1;-4.045673311E-1;-2.001543641E-1;4.407654405E-1
2.194330006E1;-1.044422507E0;2.044129670E-1;9.411513209E-1
2.195521256E1;-1.403209805E0;3.609166443E-1;1.412791610E0
2.196712350E1;-9.347634315E-1;3.726277873E-2;1.786484122E0
2.197904225E1;3.736924529E-1;-1.094461083E0;1.451119065E0
2.199094850E1;2.323068142E0;-3.029996395E0;7.505788207E-1
2.200285788E1;3.367490530E0;-3.286577225E0;4.152138159E-2
2.201477038E1;2.910755396E0;-6.739239693E-1;-8.229750991E-1
2.202668288E1;1.453248382E0;3.280189276E0;-1.656596661E0
2.203859381E1;4.003087282E-1;5.652231216E0;-2.072875261E0
2.205050631E1;-4.258603230E-2;6.034440994E0;-1.960022211E0
2.206241725E1;2.736152709E-1;3.625136137E0;-9.347634315E-1
2.207432975E1;1.128529906E-1;2.226184845E0;1.426632106E-1
2.208624069E1;-3.502701223E-1;1.692794800E0;3.268478215E-1
2.209815162E1;-5.749114752E-1;1.436213970E0;5.323254317E-2
2.211006412E1;-6.686007380E-1;1.223283768E0;-2.842617631E-1
2.212197350E1;-6.654067636E-1;9.826727509E-1;-6.164328456E-1
2.213388600E1;-4.333128929E-1;8.261690736E-1;-8.453327417E-1
2.214579850E1;-2.874557301E-2;6.930876970E-1;-7.846476436E-1
2.215770944E1;3.119426966E-1;5.727821589E-1;-5.717175007E-1
2.216962038E1;4.833514690E-1;5.387133360E-1;-3.683691919E-1
2.218153288E1;5.419072509E-1;5.152910352E-1;-3.119426966E-1
2.219344381E1;5.525537729E-1;4.641877711E-1;-3.279124498E-1
2.220535475E1;5.078384280E-1;3.673045337E-1;-3.332357109E-1
2.221726881E1;4.173431396E-1;2.619041204E-1;-3.183306158E-1
2.222917819E1;2.576455176E-1;1.788613349E-1;-3.321710527E-1
2.224109069E1;7.984881103E-2;1.618269235E-1;-3.822096586E-1
2.225300163E1;-1.245641485E-1;1.927018017E-1;-4.184077680E-1
2.226491412E1;-3.012961745E-1;2.065422684E-1;-4.088259339E-1
2.227682506E1;-4.322482347E-1;1.511804163E-1;-3.577226698E-1
2.228873913E1;-5.163556337E-1;9.262461960E-2;-2.757445574E-1
2.230064850E1;-5.706528425E-1;6.281439960E-2;-1.873785406E-1
2.231255944E1;-5.887519121E-1;5.642649531E-2;-1.234994978E-1
2.232447194E1;-6.025923491E-1;6.174974889E-2;-7.026695460E-2
2.233638288E1;-6.121742129E-1;1.203055456E-1;-3.939208016E-2
2.234829538E1;-6.079156399E-1;1.927018017E-1;-2.555162087E-2
2.236020631E1;-5.962044597E-1;2.863910794E-1;-2.981022373E-2
2.237211881E1;-5.653296113E-1;3.747570813E-1;-2.448697016E-2
2.238402975E1;-4.492826462E-1;3.332357109E-1;-1.064650808E-2
2.239594850E1;-2.853264213E-1;1.469218135E-1;-1.171115879E-2
2.240785631E1;-8.517206460E-2;-1.330813617E-1;-1.277581044E-2
2.241976412E1;1.362753063E-1;-3.300417662E-1;-2.555162087E-2
2.243167662E1;2.736152709E-1;-2.044129670E-1;-3.193952516E-2
2.244358756E1;4.045673311E-1;2.768092155E-1;-3.513347730E-2
2.245550475E1;5.642649531E-1;7.420616150E-1;-1.022064835E-1
2.246741100E1;6.856351495E-1;1.191344261E0;-1.575683206E-1
2.247932194E1;6.164328456E-1;1.368076324E0;-9.049531817E-2
2.249123444E1;2.970375717E-1;1.141305685E0;5.110324174E-2
2.250314538E1;-1.628915817E-1;6.632774472E-1;8.091346174E-2
2.251505788E1;-5.600063205E-1;2.257059813E-1;6.174974889E-2
2.252697038E1;-8.155225515E-1;-1.639562249E-1;6.494370103E-2
2.253887975E1;-7.889062762E-1;-3.917915225E-1;3.406882659E-2
2.255079225E1;-4.758989215E-1;-4.428947568E-1;-2.129301615E-2
2.256270319E1;2.342231758E-2;-3.715631366E-1;-1.809906401E-2
2.257462038E1;5.195496082E-1;-3.183306158E-1;3.726277873E-2
2.258652819E1;9.997071624E-1;-3.907268643E-1;1.256287992E-1
2.259843756E1;1.292486072E0;-6.089802980E-1;2.150594741E-1
2.261036256E1;1.438343287E0;-9.326341152E-1;2.970375717E-1
2.262226100E1;1.425567508E0;-1.081685305E0;3.364296556E-1
2.263417819E1;1.326554894E0;-1.058262944E0;2.874557376E-1
2.264608600E1;1.222219110E0;-1.093396425E0;1.852492392E-1
2.265799538E1;1.092331767E0;-1.049745679E0;8.623671532E-2
2.266990631E1;9.028239250E-1;-7.250272036E-1;7.559020817E-2
2.268181881E1;6.813765168E-1;-2.650980651E-1;1.405339092E-1
2.269372975E1;5.301961303E-1;2.608394623E-1;1.596976221E-1
2.270564225E1;4.918686748E-1;5.238082409E-1;1.831199378E-1
2.271755319E1;4.897393882E-1;6.568895578E-1;1.831199378E-1
2.272946569E1;4.492826462E-1;7.505788207E-1;2.022836655E-1
2.274137662E1;2.917143404E-1;7.718718648E-1;2.512575984E-1
2.275328913E1;1.596976221E-1;7.633546591E-1;2.629687488E-1
2.276520006E1;6.920230389E-2;7.090574503E-1;2.533869147E-1
2.277711256E1;7.239625603E-2;5.993984342E-1;2.587101460E-1
2.278902350E1;2.310292274E-1;3.087487519E-1;2.906496823E-1
2.280093444E1;3.577226698E-1;6.920230389E-2;2.821324766E-1
2.281284850E1;4.418300986E-1;-1.160469428E-1;2.576455176E-1
2.282476100E1;5.174202919E-1;-2.044129670E-1;2.565808594E-1
2.283667038E1;5.749114752E-1;-9.368927032E-2;2.842617631E-1
2.284858131E1;6.025923491E-1;2.097362131E-1;2.597748041E-1
2.286049381E1;7.335444093E-1;3.236538470E-1;2.469989955E-1
2.287240475E1;8.027467132E-1;3.875329196E-1;2.917143404E-1
2.288431569E1;7.122514248E-1;3.715631366E-1;4.216017425E-1
2.289622819E1;5.270021558E-1;2.523222566E-1;5.333900452E-1
2.290813912E1;3.470761776E-1;6.174974889E-2;5.365840197E-1
2.292005163E1;2.012190074E-1;-2.874557301E-2;4.066966176E-1
2.293196881E1;9.049531817E-2;-1.234994978E-1;2.768092155E-1
2.294387506E1;-2.022836544E-2;-2.757445574E-1;2.150594741E-1
2.295578600E1;-1.352106631E-1;-2.874557376E-1;1.927018017E-1
2.296769694E1;-3.353650272E-1;-1.054004356E-1;2.054776102E-1
2.297960944E1;-4.737696350E-1;3.939208016E-2;2.619041204E-1
2.299152350E1;-5.397779942E-1;1.320167035E-1;2.789385319E-1
2.300343131E1;-5.653296113E-1;2.246413231E-1;2.640334070E-1
2.301534381E1;-5.440365672E-1;1.650208831E-1;2.949082851E-1
2.302725475E1;-4.663170576E-1;-7.452555932E-3;3.066194355E-1
2.303916569E1;-3.247185051E-1;-2.278352827E-1;2.288999259E-1
2.305107819E1;-1.639562249E-1;-2.917143404E-1;1.213701963E-1
2.306299694E1;-5.536184460E-2;-1.447925121E-1;1.596976258E-2
2.307491413E1;-2.555162087E-2;2.203827202E-1;-1.490511186E-2
2.308681256E1;-1.565036774E-1;6.196267605E-1;6.387905031E-2
2.309872506E1;-4.546059072E-1;1.030582070E0;1.266934574E-1
2.311063756E1;-9.368927479E-1;1.400015831E0;1.554390192E-1
2.312255162E1;-1.390434027E0;1.833328724E0;1.873785406E-1
2.313445944E1;-1.705570698E0;2.231508255E0;1.618269235E-1
2.314637038E1;-1.740704179E0;2.086715698E0;9.901253134E-2
2.315828288E1;-1.563972116E0;1.401080489E0;-3.832742944E-2
2.317020006E1;-1.476670742E0;1.118947983E0;-5.749114603E-2
2.318210631E1;-1.489446521E0;1.139176369E0;1.596976258E-2
2.319401725E1;-1.387240052E0;8.474620581E-1;1.096590385E-1
2.320592819E1;-1.144499660E0;9.581857920E-2;2.693566680E-1
2.321784069E1;-8.527853489E-1;-7.718718648E-1;2.725506127E-1
2.322975944E1;-6.036570072E-1;-1.281839609E0;1.501157731E-1
2.324166256E1;-3.747570813E-1;-1.384046078E0;2.108008713E-1
2.325357506E1;-9.262461960E-2;-1.461765647E0;1.777966917E-1
2.326548913E1;3.545287251E-1;-2.086715698E0;1.596976221E-1
2.327739850E1;7.441909313E-1;-2.843682289E0;1.213701963E-1
2.328931569E1;6.143035293E-1;-3.048095465E0;5.429719388E-2
2.330122194E1;-8.730136603E-2;-2.708471775E0;4.684463516E-2
2.331313288E1;-9.922545552E-1;-2.084586382E0;1.096590385E-1
2.332504538E1;-1.951504946E0;-1.293550730E0;1.682148278E-1
2.333695631E1;-2.502994061E0;-6.515663266E-1;1.373399645E-1
2.334887506E1;-2.580713749E0;-2.885203660E-1;8.517206460E-2
2.336077975E1;-2.280482054E0;-1.969604045E-1;3.832742944E-2
2.337269069E1;-1.857815742E0;-3.332357109E-1;6.494370103E-2
2.338460319E1;-1.369140983E0;-5.600063205E-1;9.475392103E-2
2.339651413E1;-9.294402003E-1;-8.144578934E-1;4.258603230E-2
2.340842662E1;-6.185621619E-1;-9.006946087E-1;-4.258603230E-2
2.342033756E1;-4.556705654E-1;-8.229750991E-1;-1.022064835E-1
2.343224850E1;-4.577998519E-1;-5.653296113E-1;-1.479864717E-1
2.344416100E1;-6.174975038E-1;-1.415985674E-1;-1.799259931E-1
2.345607194E1;-9.528625011E-1;4.684463739E-1;-1.863138974E-1
2.346800006E1;-1.237124324E0;7.676132321E-1;-2.299645841E-1
2.347989694E1;-1.348912597E0;7.271565199E-1;-2.821324766E-1
2.349180631E1;-1.388304710E0;6.121742129E-1;-3.225892186E-1
2.350371881E1;-1.394692659E0;5.376486778E-1;-3.044901490E-1
2.351562975E1;-1.349977255E0;5.983337760E-1;-3.108780384E-1
2.352754850E1;-1.245641470E0;6.590188742E-1;-3.172659576E-1
2.353945631E1;-1.113624811E0;6.153681874E-1;-3.172659576E-1
2.355136413E1;-1.007159710E0;5.078384280E-1;-3.044901490E-1
2.356327662E1;-9.305048585E-1;4.652524292E-1;-2.853264213E-1
2.357518756E1;-8.165872097E-1;4.184077680E-1;-2.672273517E-1
2.358710631E1;-6.771179438E-1;3.012961745E-1;-2.108008713E-1
2.359901569E1;-4.599291682E-1;9.049531817E-2;-1.341460049E-1
2.361092194E1;-1.405339092E-1;-1.841845959E-1;-5.110324174E-2
2.362283444E1;2.480636388E-1;-4.418300986E-1;-1.916371472E-2
2.363474538E1;6.547602415E-1;-6.377258301E-1;-6.387905218E-3
2.364665788E1;1.016741514E0;-6.803118587E-1;-4.258603323E-3
2.365856881E1;1.238188982E0;-4.950626493E-1;-9.581857361E-3
2.367048131E1;1.319102407E0;-4.577998444E-2;-2.129301615E-2
2.368239225E1;1.252029419E0;6.153681874E-1;-5.110324174E-2
2.369430319E1;1.034840584E0;1.252029419E0;-5.323254317E-2
2.370621569E1;7.026695609E-1;1.716217160E0;-2.235766686E-2
2.371812662E1;3.311064243E-1;1.891884565E0;4.577998444E-2
2.373003756E1;-8.943066746E-2;1.759867787E0;1.341460049E-1
2.374195006E1;-5.546830893E-1;1.314843774E0;1.799259931E-1
