"Time (s)";"Gyroscope x (rad/s)";"Gyroscope y (rad/s)";"Gyroscope z (rad/s)"
1.010162500E-2;9.581857361E-3;1.682148278E-1;5.323254317E-2
2.201568800E-2;-3.513347730E-2;1.064650863E-1;7.133160532E-2
3.392506300E-2;-6.813765317E-2;8.091346174E-2;5.749114603E-2
4.583600000E-2;-6.387905031E-2;5.429719388E-2;4.577998444E-2
5.774850000E-2;-4.790928960E-2;-1.171115879E-2;7.771950960E-2
6.965943800E-2;-3.832742944E-2;-1.809906401E-2;9.794788063E-2
8.157037500E-2;-4.790928960E-2;4.471533373E-2;6.387905031E-2
9.348287500E-2;-6.387905031E-2;1.107236892E-1;4.897394031E-2
1.053938130E-1;-7.559020817E-2;1.831199378E-1;7.239625603E-2
1.173063130E-1;-1.075297371E-1;2.555162013E-1;8.836601675E-2
1.292250630E-1;-1.596976221E-1;3.151366413E-1;8.304276317E-2
1.411297500E-1;-1.831199378E-1;3.406882584E-1;7.559020817E-2
1.530453750E-1;-1.724734306E-1;2.981022298E-1;7.559020817E-2
1.649531880E-1;-1.511804163E-1;2.800031602E-1;5.429719388E-2
1.768641250E-1;-1.234994978E-1;2.501929402E-1;-3.193952609E-3
1.887828750E-1;-7.133160532E-2;2.384817898E-1;1.916371472E-2
2.006875630E-1;-3.619812801E-2;2.949082851E-1;7.984881103E-2
2.126141250E-1;-5.110324174E-2;4.237310290E-1;7.665485889E-2
2.245110000E-1;-1.203055456E-1;5.568124056E-1;3.619812801E-2
2.364219380E-1;-2.182534188E-1;7.239625454E-1;2.981022373E-2
2.483375630E-1;-2.917143404E-1;8.165872097E-1;4.045673087E-2
2.602453750E-1;-3.247185051E-1;7.793244123E-1;3.939208016E-2
2.721563130E-1;-2.682920098E-1;5.940751433E-1;6.387905218E-3
2.840688130E-1;-1.980250627E-1;4.460887015E-1;-2.555162087E-2
2.959797500E-1;-1.746027321E-1;3.747570813E-1;-5.110324174E-2
3.078906880E-1;-2.012190074E-1;4.120198786E-1;-8.730136603E-2
3.198094380E-1;-2.406110913E-1;4.301189482E-1;-1.192408949E-1
3.317156880E-1;-3.300417662E-1;5.983337760E-1;-1.075297371E-1
3.436266250E-1;-5.174202919E-1;8.900480866E-1;-6.920230389E-2
3.555375630E-1;-5.749114752E-1;1.324425697E0;-4.045673087E-2
3.674485000E-1;-5.216789246E-1;1.380852103E0;-2.555162087E-2
3.793641250E-1;-4.833514690E-1;1.255223393E0;-5.110324174E-2
3.912719380E-1;-3.311064243E-1;1.011418343E0;-6.281439960E-2
4.031891250E-1;-5.429719388E-2;6.079156399E-1;-6.494370103E-2
4.150953750E-1;2.257059813E-1;2.661627233E-1;-8.517206460E-2
4.270156880E-1;3.470761776E-1;9.581857920E-2;-8.730136603E-2
4.389188130E-1;2.650980651E-1;1.809906363E-1;-6.707300246E-2
4.508297500E-1;1.384046115E-2;4.758989215E-1;-5.110324174E-2
4.627422500E-1;-3.183306158E-1;8.996299505E-1;-1.384046115E-2
4.746531880E-1;-5.642649531E-1;1.186021090E0;5.962044746E-2
4.865656880E-1;-6.462430358E-1;1.176439166E0;9.688322991E-2
4.984860000E-1;-5.525537729E-1;7.921002507E-1;3.513347730E-2
5.103891250E-1;-3.449468613E-1;3.385589719E-1;-9.581857920E-2
5.223000630E-1;-1.064650863E-1;-2.768092230E-2;-2.320938855E-1
5.342110000E-1;1.139176413E-1;-3.492054641E-1;-3.321710527E-1
5.461235000E-1;1.958957613E-1;-3.130073547E-1;-3.598519862E-1
5.580344380E-1;1.288227588E-1;-8.943066746E-2;-2.384817898E-1
5.699453750E-1;-5.110324174E-2;1.809906363E-1;-5.323254038E-3
5.818578750E-1;-2.299645841E-1;1.554390192E-1;1.724734306E-1
5.937688130E-1;-3.364296556E-1;-7.771950960E-2;1.884431988E-1
6.056828750E-1;-3.523994386E-1;-9.475392103E-2;7.239625603E-2
6.175938130E-1;-3.470761776E-1;-1.628915817E-1;-2.661627159E-2
6.295031880E-1;-3.215245605E-1;-5.259374976E-1;-3.087487444E-2
6.414156880E-1;-2.619041204E-1;-8.687551022E-1;4.897394031E-2
6.533266250E-1;-2.086715698E-1;-9.006946087E-1;2.810678184E-1
6.652453750E-1;-3.055547774E-1;-3.907268643E-1;5.216789246E-1
6.771500630E-1;-4.673817158E-1;6.174974889E-2;6.462430358E-1
6.890656880E-1;-5.653296113E-1;5.003859103E-2;5.642649531E-1
7.009735000E-1;-5.781053901E-1;1.394692659E-1;4.822868407E-1
7.128860000E-1;-3.790156841E-1;-1.384046115E-2;5.025151968E-1
7.247985000E-1;-1.650208831E-1;-3.939208090E-1;5.536184311E-1
7.367094380E-1;-1.809906401E-2;-8.613025546E-1;5.855579376E-1
7.486203750E-1;7.559020817E-2;-1.328684211E0;6.068509817E-1
7.605313130E-1;5.429719388E-2;-1.159404755E0;6.803118587E-1
7.724438130E-1;-1.288227588E-1;-9.219876528E-1;6.292086244E-1
7.843547500E-1;-3.609166443E-1;-9.209229946E-1;4.929333329E-1
7.962672500E-1;-5.493598580E-1;-8.123285770E-1;4.886747301E-1
8.081844380E-1;-6.536956429E-1;-6.984109282E-1;5.695881844E-1
8.200891250E-1;-6.526309848E-1;-5.717175007E-1;6.153681874E-1
8.320016250E-1;-5.514891148E-1;-4.514119625E-1;5.930105448E-1
8.439141250E-1;-4.567352235E-1;-2.981022298E-1;5.067738295E-1
8.558250630E-1;-3.832743168E-1;-1.895078421E-1;3.949854672E-1
8.677360000E-1;-3.651752472E-1;-2.310292274E-1;3.641105890E-1
8.796469380E-1;-3.374943137E-1;-4.716403186E-1;3.683691919E-1
8.915594380E-1;-2.619041204E-1;-7.324797511E-1;3.087487519E-1
9.034703750E-1;-1.565036774E-1;-8.783369660E-1;3.140719831E-1
9.153828750E-1;-7.984881103E-2;-9.134704471E-1;4.077612758E-1
9.272953750E-1;-7.452555746E-2;-9.347634315E-1;5.216789246E-1
9.392047500E-1;-1.192408949E-1;-8.581085801E-1;5.898165703E-1
9.511172500E-1;-1.767320335E-1;-5.823640227E-1;6.473076940E-1
9.630281880E-1;-3.193952441E-1;-2.427403927E-1;7.207686305E-1
9.749906880E-1;-4.162784815E-1;-3.044901490E-1;7.740011811E-1
9.868516250E-1;-3.151366413E-1;-8.602378964E-1;9.475392699E-1
9.987641250E-1;-2.384817898E-1;-1.265869856E0;1.226477742E0
1.010675063E0;-2.076069117E-1;-1.368076324E0;1.484123230E0
1.022586000E0;-1.852492392E-1;-1.132788539E0;1.519256711E0
1.034501625E0;-1.277581006E-1;-8.325569630E-1;1.480929375E0
1.046409438E0;-9.581857361E-3;-6.664714217E-1;1.409597754E0
1.058320375E0;6.174974889E-2;-5.802347064E-1;1.307391286E0
1.070232875E0;8.730136603E-2;-4.876100719E-1;1.213701963E0
1.082164125E0;7.665485889E-2;-5.930105448E-1;1.178568482E0
1.094054750E0;7.133160532E-2;-9.326341152E-1;1.210507989E0
1.105967250E0;1.320167035E-1;-1.339330792E0;1.364882350E0
1.117878188E0;2.863910794E-1;-1.733251572E0;1.578877211E0
1.129790688E0;5.312607884E-1;-1.947246432E0;1.744962692E0
1.141703188E0;8.059406877E-1;-1.871656179E0;1.738574862E0
1.153614125E0;1.028452754E0;-1.723669767E0;1.608687401E0
1.165525063E0;1.164728045E0;-1.599105597E0;1.457507014E0
1.177437563E0;1.132788539E0;-1.622527838E0;1.401080489E0
1.189348500E0;8.879188299E-1;-1.710893869E0;1.599105597E0
1.201259438E0;5.323254466E-1;-1.768385053E0;1.864203572E0
1.213171938E0;1.266934574E-1;-1.692794800E0;2.051582098E0
1.225084438E0;-1.107236892E-1;-1.511804223E0;2.175081730E0
1.236995375E0;-2.150594741E-1;-1.391498685E0;2.230443478E0
1.248907875E0;-1.895078421E-1;-1.336136818E0;2.156982660E0
1.260820375E0;1.064650808E-2;-1.433019996E0;2.055840731E0
1.272731313E0;2.810678184E-1;-1.616140008E0;2.018578053E0
1.284642250E0;4.982565939E-1;-1.561842799E0;2.016448736E0
1.296553188E0;5.525537729E-1;-1.368076324E0;2.006866932E0
1.308464125E0;4.577998519E-1;-1.296744704E0;1.985573769E0
1.320376625E0;3.364296556E-1;-1.272257805E0;1.952569604E0
1.332287563E0;2.853264213E-1;-1.309520483E0;1.989832401E0
1.344198500E0;3.587873280E-1;-1.361688375E0;2.039870977E0
1.356111000E0;5.333900452E-1;-1.298874021E0;1.954698920E0
1.368021938E0;7.356737256E-1;-1.216895938E0;1.829070091E0
1.379934438E0;8.144578934E-1;-1.179633141E0;1.752415299E0
1.391845375E0;8.453327417E-1;-1.240318179E0;1.744962692E0
1.403757875E0;8.730136752E-1;-1.244576812E0;1.895078540E0
1.415668813E0;9.028239250E-1;-1.236059666E0;1.954698920E0
1.427579750E0;9.336987734E-1;-1.628915787E0;1.894013882E0
1.439509438E0;9.517978430E-1;-2.174016953E0;1.906789660E0
1.451403188E0;1.048681021E0;-2.504058838E0;1.909983635E0
1.463315688E0;1.245641470E0;-2.591360092E0;1.906789660E0
1.475226625E0;1.415985584E0;-2.423145294E0;1.773708344E0
1.487139125E0;1.516062737E0;-2.245348692E0;1.510739565E0
1.499051625E0;1.224348426E0;-2.604135990E0;1.124271274E0
1.510961000E0;8.378801942E-1;-2.706342459E0;8.953713775E-1
1.522873500E0;7.473849058E-1;-2.306033611E0;7.676132321E-1
1.534784438E0;8.219104409E-1;-1.824811578E0;6.462430358E-1
1.546696938E0;8.953713775E-1;-1.422373533E0;3.832743168E-1
1.558607875E0;8.570439219E-1;-1.281839609E0;2.076069117E-1
1.570518813E0;7.186393142E-1;-1.457507014E0;1.788613349E-1
1.582431313E0;6.845704913E-1;-1.829070091E0;1.054004356E-1
1.594342250E0;8.304276466E-1;-2.240025282E0;-5.323254317E-2
1.606254750E0;1.047616482E0;-2.436985731E0;-1.660855263E-1
1.618167250E0;1.145564318E0;-2.096297503E0;-2.118655145E-1
1.630078188E0;1.171115875E0;-1.598040938E0;-3.481408358E-1
1.641989125E0;1.123206615E0;-1.184956431E0;-4.684463739E-1
1.653901625E0;1.022064805E0;-1.009289026E0;-4.471533597E-1
1.665812563E0;9.209229946E-1;-1.186021090E0;-3.023608327E-1
1.677723500E0;9.635090232E-1;-1.620398521E0;-3.513347730E-2
1.689645375E0;1.126400590E0;-2.028159857E0;2.640334070E-1
1.701548500E0;1.410662413E0;-2.231508255E0;4.599291682E-1
1.713459438E0;1.476670742E0;-2.331585407E0;6.004630923E-1
1.725371938E0;1.155146122E0;-2.353943110E0;9.134704471E-1
1.737289125E0;7.676132321E-1;-1.951504946E0;1.331878185E0
1.749193813E0;3.183306158E-1;-1.345718622E0;1.779031515E0
1.761106313E0;-1.958957613E-1;-7.835830450E-1;2.400787592E0
1.773017250E0;-6.419844627E-1;-4.663170576E-1;3.017220497E0
1.784929750E0;-9.315694571E-1;-5.546830893E-1;3.444145441E0
1.796840688E0;-7.910355926E-1;-4.908040464E-1;3.635782719E0
1.808751625E0;-4.950626493E-1;-5.429719090E-1;3.735859871E0
1.820665688E0;-1.777966917E-1;-7.399323583E-1;3.582550049E0
1.832575063E0;2.054776102E-1;3.747570813E-1;3.368555307E0
1.844487563E0;1.735380888E-1;2.555162013E-1;3.780575037E0
1.856398500E0;9.794788063E-2;-4.247956872E-1;4.231987000E0
1.868311000E0;1.149822921E-1;-5.589416623E-1;4.616325855E0
1.880220375E0;5.940751433E-1;3.811450005E-1;4.983630657E0
1.892132875E0;1.592717648E0;3.279124498E-1;5.538313866E0
1.904043813E0;2.790449858E0;-7.484495640E-1;5.991855145E0
1.915956313E0;3.642170429E0;-1.283968925E0;6.349577427E0
1.927868813E0;4.362939358E0;-1.457507014E0;6.806313038E0
1.939779750E0;4.820738792E0;-1.340395451E0;7.144871712E0
1.951690688E0;5.015570164E0;-1.623592496E0;7.197039604E0
1.963603188E0;4.408719063E0;-2.308162928E0;6.782890320E0
1.975514125E0;2.824518681E0;-3.901945353E0;5.403102875E0
1.987436000E0;8.357509375E-1;-4.805833817E0;3.739053726E0
1.999337563E0;-8.804662228E-1;-5.317931175E0;1.806712508E0
2.011248500E0;-1.397886515E0;-5.107130051E0;2.512575984E-1
2.023159438E0;-1.131723881E0;-3.536770105E0;-1.809906363E-1
2.035073500E0;-6.835058331E-1;-2.315615654E0;-7.921002507E-1
2.046984438E0;-3.428175747E-1;1.479864717E-1;-1.232865691E0
2.058895375E0;4.045673311E-1;4.812222004E0;-1.196667552E0
2.070812563E0;4.503473043E-1;7.351414204E0;-1.084879160E0
2.082717250E0;-4.950626493E-1;8.920709610E0;-1.138111711E0
2.094631313E0;-2.215538502E0;7.554762363E0;-1.338266134E0
2.106540688E0;-2.800031662E0;5.375422001E0;-1.604428768E0
2.118453188E0;-2.196374655E0;2.867104769E0;-1.861009717E0
2.130365688E0;-1.584200501E0;8.857895136E-1;-1.809906483E0
2.142276625E0;-1.016741514E0;-1.167922020E0;-1.460700989E0
2.154187563E0;-6.600835323E-1;-2.460407972E0;-1.038034558E0
2.166100063E0;-1.446860433E0;-9.486039281E-1;-5.120970607E-1
2.178011000E0;-2.460407972E0;2.005802155E0;6.813765168E-1
2.189923500E0;-1.911048293E0;3.230150700E0;9.336987734E-1
2.201834438E0;4.216017425E-1;2.615847111E0;4.279896319E-1
2.213778188E0;1.638497591E0;1.689600825E0;7.771950960E-2
2.225657875E0;2.191051483E0;6.888290644E-1;1.916371472E-2
2.237568813E0;2.344361067E0;-6.377258301E-1;3.183306158E-1
2.249479750E0;2.105879307E0;-1.741768718E0;7.974234819E-1
2.261392250E0;1.483058572E0;-1.978121281E0;9.230522513E-1
2.273311000E0;7.271565199E-1;-2.167629004E0;8.495913744E-1
2.285215688E0;5.110324174E-2;-1.713023186E0;5.887519121E-1
2.297126625E0;-3.609166443E-1;-8.187164664E-1;3.311064243E-1
2.309037563E0;-6.281439662E-1;3.193952516E-2;9.901253134E-2
2.320950063E0;-7.622900009E-1;3.736924529E-1;1.256287992E-1
2.332862563E0;-9.262462258E-1;5.429719090E-1;3.694338500E-1
2.344773500E0;-9.081471562E-1;5.270021558E-1;3.023608327E-1
2.356684438E0;-7.771950960E-1;6.068509817E-1;4.258603323E-3
2.368595375E0;-5.791700482E-1;6.324025989E-1;-1.288227588E-1
2.380506313E0;-3.736924529E-1;7.803890705E-1;-1.128529906E-1
2.392418813E0;-1.426632106E-1;4.311835766E-1;-6.813765317E-2
2.404331313E0;-2.448697016E-2;2.981022298E-1;-1.384046115E-2
2.416242250E0;7.133160532E-2;4.460887015E-1;3.087487444E-2
2.428153188E0;2.012190074E-1;3.577226698E-1;2.448697016E-2
2.440065688E0;3.162012994E-1;1.841845959E-1;1.490511186E-2
2.451976625E0;3.343003690E-1;8.091346174E-2;-2.022836544E-2
2.463892250E0;2.895850241E-1;-4.258603230E-2;-7.665485889E-2
2.475800063E0;2.171887755E-1;-3.449468613E-1;-1.139176413E-1
2.487711000E0;3.406882659E-2;-2.363524884E-1;-1.831199378E-1
2.499623500E0;-5.749114603E-2;-1.064650831E-3;-2.406110913E-1
2.511534438E0;8.197811246E-2;-1.990897059E-1;6.387905218E-3
2.523446938E0;3.151366413E-1;-5.184849501E-1;4.950626493E-1
2.535357875E0;5.142263770E-1;-4.812221825E-1;1.230736375E0
2.547268813E0;4.514119625E-1;4.684463516E-2;2.134624958E0
2.559181313E0;4.758989215E-1;-5.642649531E-2;2.507252693E0
2.571092250E0;5.046445131E-1;-7.090574503E-1;2.179340363E0
2.583004750E0;4.130845368E-1;-1.348912597E0;1.936599851E0
2.594915688E0;2.395464331E-1;-1.603364110E0;1.896143198E0
2.606826625E0;1.128529906E-1;-1.776902199E0;1.719411135E0
2.618739125E0;8.091346174E-2;-1.817358971E0;1.880173326E0
2.630670375E0;1.447925121E-1;-2.005802155E0;2.083521605E0
2.642564125E0;2.619041204E-1;-2.259189129E0;1.770514369E0
2.654475063E0;4.109552205E-1;-2.172952414E0;1.331878185E0
2.666386000E0;6.558248997E-1;-1.503286958E0;1.025258780E0
2.678296938E0;8.815308809E-1;-3.183306158E-1;1.051874995E0
2.690209438E0;8.101992607E-1;1.144499660E0;1.137047052E0
2.702120375E0;3.651752472E-1;2.361395597E0;1.295680046E0
2.714036000E0;-1.650208831E-1;2.798967123E0;2.129301786E0
2.725943813E0;-3.736924529E-1;1.887625933E0;2.426339149E0
2.737856313E0;-6.387904882E-1;-4.428947568E-1;1.612946033E0
2.749778188E0;-8.272337317E-1;-1.612946033E0;5.610709786E-1
2.761678188E0;-7.420616150E-1;-1.853557110E0;-1.224348471E-1
2.773590688E0;-4.556705654E-1;-1.556519508E0;-2.278352827E-1
2.785501625E0;-2.395464331E-1;-9.124057889E-1;9.581857361E-3
2.797412563E0;-1.809906363E-1;2.076069117E-1;3.513347805E-1
2.809325063E0;2.129301662E-3;8.953713775E-1;6.153681874E-1
2.821236000E0;3.587873280E-1;7.825183868E-1;7.122514248E-1
2.833148500E0;3.385589719E-1;4.727049768E-1;7.420616150E-1
2.845059438E0;2.842617631E-1;4.577998444E-2;7.441909313E-1
2.856971938E0;5.663942695E-1;-6.739239693E-1;7.431262732E-1
2.868889125E0;8.442681432E-1;-1.097655058E0;7.516434789E-1
2.880795375E0;8.229750991E-1;-1.189214945E0;8.613025546E-1
2.892706313E0;3.470761776E-1;-7.292858362E-1;7.676132321E-1
2.904617250E0;-1.352106631E-1;-3.257831633E-1;6.419844627E-1
2.916528188E0;-3.215245605E-1;-2.608394623E-1;8.570439219E-1
2.928439125E0;-4.971919358E-1;1.139176413E-1;1.275451660E0
2.940351625E0;-7.995527983E-1;9.975778461E-1;2.079262972E0
2.952278188E0;-8.346862793E-1;1.309520483E0;2.831971169E0
2.964179750E0;-3.428175747E-1;-3.949854672E-1;2.015383959E0
2.976086000E0;-6.174975038E-1;-4.599291682E-1;1.050810337E0
2.987998500E0;-1.522450686E0;1.214766622E0;8.676904440E-1
2.999911000E0;-2.457214117E0;2.797902346E0;2.917143404E-1
3.011821938E0;-2.619040966E0;2.476377964E0;-4.971919358E-1
3.023732875E0;-2.493412256E0;1.273322463E0;-1.309520483E0
3.035643813E0;-2.589230776E0;8.517206907E-1;-1.792872071E0
3.047556313E0;-2.714859724E0;1.221154571E0;-1.753479958E0
3.059467250E0;-2.252801180E0;1.159404755E0;-1.572489262E0
3.071379750E0;-1.146628976E0;-8.730136603E-2;-1.718346477E0
3.083290688E0;-3.002315462E-1;-1.211572647E0;-2.149529934E0
3.095201625E0;-3.300417587E-2;-1.437278628E0;-2.636075497E0
3.107126625E0;-4.439594150E-1;-1.286098242E0;-2.981022358E0
3.119025063E0;-1.417050242E0;-1.122141957E0;-3.201405048E0
3.130937563E0;-1.807777166E0;-1.671501875E0;-3.150301933E0
3.142848500E0;-1.429826021E0;-2.439115047E0;-2.963987827E0
3.154761000E0;-8.794015646E-1;-2.375236034E0;-2.703148365E0
3.166678188E0;-6.749886274E-1;-8.059406877E-1;-2.417822123E0
3.178589125E0;-2.001543641E-1;7.122514248E-1;-2.294322491E0
3.190495375E0;6.771179438E-1;8.463973999E-1;-2.388011932E0
3.202406313E0;9.667029381E-1;2.310292274E-1;-2.432727098E0
3.214318813E0;8.080700040E-1;-8.251044154E-1;-2.224055529E0
3.226229750E0;5.930105448E-1;-1.777966857E0;-1.804583192E0
3.238142250E0;4.801575243E-1;-2.426339149E0;-1.078491330E0
3.250054750E0;5.238082409E-1;-2.680790901E0;-4.748342633E-1
3.261965688E0;6.419844627E-1;-2.767027617E0;5.536184460E-2
3.273876625E0;7.495141625E-1;-2.573261023E0;3.843389452E-1
3.285787563E0;8.442681432E-1;-2.285805464E0;5.355193615E-1
3.297700063E0;9.943838716E-1;-1.938729167E0;6.377258301E-1
3.309614125E0;1.140241027E0;-1.695988774E0;7.484495640E-1
3.321523500E0;1.241382837E0;-1.627851129E0;8.708843589E-1
3.333434438E0;1.170051217E0;-1.549067020E0;9.954485297E-1
3.345345375E0;1.073168039E0;-1.556519508E0;1.078491330E0
3.357264125E0;9.794787765E-1;-1.607622743E0;1.023129463E0
3.369168813E0;3.364296556E-1;-1.400015831E0;7.282211781E-1
3.381081313E0;-1.750285983E0;1.394692659E-1;-1.298874021E-1
3.392992250E0;-3.056612492E0;4.425753593E0;-1.489446521E0
3.404903188E0;-1.415985674E-1;6.301668167E0;-1.345718622E0
3.416815688E0;1.246706128E0;6.265470028E0;-1.117883399E-1
3.428728188E0;1.546937704E0;4.132974625E0;7.239625454E-1
3.440640688E0;9.528625011E-1;2.049452782E0;8.421388268E-1
3.452570375E0;-2.789385319E-1;9.273108840E-1;1.213701963E0
3.464467250E0;-1.113624811E0;2.193180770E-1;2.046258926E0
3.476375063E0;-1.240318179E0;-1.393628001E0;3.076840878E0
3.488286000E0;-6.302732825E-1;-3.324904680E0;3.806126833E0
3.500196938E0;1.032711342E-1;-4.562028885E0;3.677304029E0
3.512107875E0;9.006946087E-1;-5.290249825E0;2.985280991E0
3.524025063E0;1.554390192E0;-5.158233166E0;2.518963814E0
3.535931313E0;2.329456091E0;-4.425753593E0;2.109073400E0
3.547842250E0;3.246120453E0;-3.415399790E0;1.706635356E0
3.559754750E0;7.532404900E0;2.147400856E0;1.671501875E0
3.571665688E0;7.819860458E0;6.815894604E0;1.521386027E0
3.583576625E0;3.585744143E0;9.089988708E0;7.175746560E-1
3.595489125E0;-9.901253134E-2;7.400387764E0;-5.493598580E-1
3.607401625E0;-5.482951999E-1;4.013733864E0;-1.440472603E0
3.619312563E0;2.821324766E-1;1.267999172E0;-1.566101432E0
3.631223500E0;5.078384280E-1;-4.003087282E-1;-9.571211338E-1
3.643136000E0;5.770407319E-1;-5.131617188E-1;-3.598519862E-1
3.655046938E0;6.590188742E-1;2.342231870E-1;-1.160469428E-1
3.666957875E0;8.101992607E-1;1.099784374E0;-3.066194355E-1
3.678870375E0;1.027388096E0;2.152724028E0;-7.771950960E-1
3.690781313E0;1.215831280E0;3.809320688E0;-1.258417249E0
3.702693813E0;2.065422684E-1;5.762955189E0;-1.516062737E0
3.714615688E0;-1.625721812E0;3.823161125E0;-1.592717648E0
3.726517250E0;-1.905725002E0;-1.131723881E0;-1.581006527E0
3.738428188E0;-1.872720838E0;-2.677596807E0;-1.450054407E0
3.750340688E0;-2.319874287E0;-1.763061762E0;-1.440472603E0
3.762256313E0;-2.635010719E0;-1.324425697E0;-1.701312065E0
3.774164125E0;-2.704213142E0;-1.674695730E0;-2.172952414E0
3.786075063E0;-2.738281965E0;-1.923824072E0;-2.896914959E0
3.797986000E0;-2.714859724E0;-1.414920926E0;-3.644299746E0
3.809896938E0;-2.522157907E0;1.007159710E0;-4.588644981E0
3.821817250E0;-1.932341218E0;2.983151674E0;-5.596869469E0
3.833720375E0;-1.215831280E0;3.689015150E0;-5.891777515E0
3.845645375E0;-4.247956872E-1;3.806126833E0;-5.100742340E0
3.857543813E0;5.376486778E-1;3.533576250E0;-3.555933714E0
3.869456313E0;1.045487165E0;2.883074522E0;-1.874850154E0
3.881373500E0;1.011418328E-1;2.203827202E-1;-1.720475793E0
3.893278188E0;-1.330813617E-1;-3.232280016E0;-2.246413231E0
3.905200063E0;1.373399645E-1;-5.212530613E0;-2.490218401E0
3.917101625E0;-1.809906401E-2;-4.917622089E0;-2.319874287E0
3.929014125E0;-3.673045337E-1;-3.505895138E0;-1.622527838E0
3.940925063E0;-6.717946529E-1;-2.510446787E0;-7.984881401E-1
3.952837563E0;-9.507331848E-1;-2.132495642E0;-1.501157731E-1
3.964748500E0;-1.163663387E0;-2.180404902E0;2.629687488E-1
3.976659438E0;-1.138111711E0;-2.657368422E0;4.908040464E-1
3.988571938E0;-7.356737256E-1;-2.712730408E0;6.888290644E-1
4.000482875E0;-1.288227588E-1;-2.086715698E0;8.613025546E-1
4.012393813E0;4.652524292E-1;-1.325490236E0;9.571211338E-1
4.024306313E0;9.230522513E-1;-5.323254466E-1;1.095525742E0
4.036217250E0;1.231801033E0;1.149822921E-1;1.249900103E0
4.048128188E0;1.490511179E0;2.363524884E-1;1.397886515E0
4.060040688E0;1.750285983E0;-2.629687488E-1;1.571424603E0
4.071954750E0;2.050517559E0;-1.018870831E0;1.760932446E0
4.083864125E0;2.216603041E0;-1.096590400E0;1.763061762E0
4.095775063E0;1.991961718E0;-2.927789688E-1;1.610816717E0
4.107687563E0;1.269063830E0;1.371270299E0;1.463894963E0
4.119598500E0;3.673045337E-1;3.964759827E0;1.273322463E0
4.131511000E0;3.172659576E-1;3.682627201E0;1.091267109E0
4.143421938E0;7.878416032E-2;1.760932446E0;6.100449562E-1
4.155332875E0;1.660855263E-1;1.226477742E0;2.619041204E-1
4.167245375E0;1.573553920E0;8.518271446E0;-7.825183868E-1
4.179156313E0;9.017592669E-1;2.056905508E0;-1.391498685E0
4.191068813E0;-7.037342191E-1;-1.120012641E0;-1.208378673E0
4.202979750E0;-1.938729167E0;-2.032418489E0;1.043357849E-1
4.214892250E0;-1.739639521E0;-2.037741661E0;1.519256711E0
4.226804750E0;-6.047216654E-1;-2.734023333E0;2.478507042E0
4.238715688E0;3.279124498E-1;-3.272736788E0;2.625428915E0
4.250626625E0;1.104042888E0;-3.562321663E0;2.452955484E0
4.262539125E0;1.508610249E0;-3.624071360E0;2.302839756E0
4.274450063E0;1.836522698E0;-3.686885834E0;2.509382010E0
4.286362563E0;2.198503971E0;-3.280189276E0;2.929919004E0
4.298303188E0;2.650980473E0;-2.259189129E0;3.173724174E0
4.310184438E0;3.229085922E0;-9.943838716E-1;3.152431250E0
4.322096938E0;3.915785789E0;6.962816715E-1;2.902238131E0
4.334007875E0;4.663170815E0;2.973569870E0;2.622235060E0
4.345920375E0;5.547895432E0;6.177103996E0;2.599877357E0
4.357831313E0;5.410555363E0;8.044501305E0;2.659497738E0
4.369743813E0;6.494370103E-1;7.044794559E0;2.182534218E0
4.381661000E0;-2.164435148E0;3.256767035E0;1.090202451E0
4.393565688E0;-1.805647850E0;7.101221085E-1;1.884431988E-1
4.405478188E0;-3.896622062E-1;1.596976258E-2;-2.299645841E-1
4.417389125E0;8.825955391E-1;-8.474620581E-1;-5.035798550E-1
4.429300063E0;1.067844748E0;-1.272257805E0;-7.782597542E-1
4.441211000E0;-7.154453397E-1;6.387905218E-3;-1.062521577E0
4.453123500E0;-1.191344261E0;-4.961272776E-1;-9.901252985E-1
4.465036000E0;-1.320167065E0;-9.965131879E-1;-8.634318113E-1
4.476964125E0;-1.684277654E0;-6.004630923E-1;-7.218332887E-1
4.488867250E0;-2.004737616E0;-2.129301615E-2;-7.420616150E-1
4.500770375E0;-2.339037895E0;6.430491209E-1;-1.138111711E0
4.512681313E0;-2.533869028E0;5.908812284E-1;-1.867397547E0
4.524592250E0;-2.748928547E0;1.373399645E-1;-2.983151674E0
4.536504750E0;-2.916078568E0;4.705756605E-1;-3.954113245E0
4.548415688E0;-2.917143345E0;3.576162100E0;-4.979372025E0
4.560328188E0;-1.823746920E0;6.079156399E0;-6.102578640E0
4.572239125E0;-8.080700040E-1;5.327512741E0;-6.926618576E0
4.584151625E0;5.376486778E-1;1.908918977E0;-6.933006287E0
4.596062563E0;1.942987800E0;-2.395464331E-1;-5.032604694E0
4.607973500E0;2.434856415E0;2.786191225E0;-2.468925238E0
4.619886000E0;3.939208016E-2;3.971147537E0;-2.049452782E0
4.631798500E0;-6.515663266E-1;3.406882659E-2;-2.253865719E0
4.643709438E0;-8.070053458E-1;-3.544222593E0;-2.365654230E0
4.655620375E0;-1.077426672E0;-5.409491062E0;-2.377365351E0
4.667532875E0;-1.605493426E0;-5.670330524E0;-1.896143198E0
4.679462563E0;-2.068616629E0;-5.139069557E0;-1.000771761E0
4.691354750E0;-2.353943110E0;-4.959143639E0;-2.374171317E-1
4.703267250E0;-2.260253668E0;-4.678075790E0;1.788613349E-1
4.715186000E0;-1.851427794E0;-3.861488581E0;2.555162013E-1
4.727090688E0;-1.335072160E0;-2.551968098E0;1.511804163E-1
4.739001625E0;-8.772723079E-1;-1.146628976E0;-6.600835174E-2
4.750914125E0;-3.076840937E-1;4.333128929E-1;-3.949854672E-1
4.762825063E0;3.470761776E-1;1.763061762E0;-8.006174564E-1
4.774737563E0;1.126400590E0;1.960022211E0;-9.869313240E-1
4.786650063E0;2.161241293E0;3.470761776E-1;-5.227435827E-1
4.798559438E0;2.556226730E0;-1.722605109E0;1.533097178E-1
4.810471938E0;2.673338175E0;-3.627265453E0;8.219104409E-1
4.822382875E0;2.863910675E0;-4.637619019E0;1.113624811E0
4.834315688E0;2.767027617E0;-4.321417809E0;1.239253521E0
4.846206313E0;1.016741514E0;-3.229085922E0;1.034840584E0
4.858121938E0;-6.004630923E-1;1.007159710E0;6.856351495E-1
4.870028188E0;-1.873785406E-1;3.862553358E0;7.889062762E-1
4.881940688E0;1.064650808E-2;5.115647316E0;9.720262289E-1
4.893859438E0;-8.517206460E-2;6.032311440E0;1.155146122E0
4.905764125E0;1.895078421E-1;7.807084560E0;1.293550730E0
4.917675063E0;-1.841845959E-1;7.636740685E0;1.700247407E0
4.929586000E0;-1.001836419E0;6.503952026E0;2.108008623E0
4.941498500E0;-1.090202451E0;2.806419611E0;2.649915934E0
4.953414125E0;-4.003087282E-1;-6.835058331E-1;3.076840878E0
4.965321938E0;-2.161241174E-1;-2.876686573E0;3.433498859E0
4.977232875E0;4.439594150E-1;-4.412977695E0;3.636847258E0
4.989143813E0;1.723669767E0;-5.727821350E0;3.497378111E0
5.001056313E0;3.634717941E0;-5.093289852E0;2.996992111E0
5.012973500E0;5.843868256E0;-4.205370843E-1;2.723376751E0
5.024878188E0;5.778924942E0;5.876872540E-1;2.409304857E0
5.036790688E0;5.185914040E0;6.909583807E-1;2.367783546E0
5.048701625E0;5.062414646E0;5.705463886E0;2.537062883E0
5.060614125E0;3.364296675E0;9.947032928E0;2.693566561E0
5.072525063E0;6.813765317E-2;9.860795975E0;2.227249622E0
5.084436000E0;-2.228314161E0;3.674109936E0;1.208378673E0
5.096348500E0;-5.738468170E-1;-3.387718916E0;2.501929402E-1
5.108259438E0;5.557477474E-1;-5.122035027E0;-3.939208016E-2
5.120171938E0;7.069281340E-1;-2.876686573E0;7.452555746E-2
5.132082875E0;3.300417587E-2;-1.358494520E0;1.618269235E-1
5.143995375E0;-4.333128929E-1;-1.288227558E0;1.596976258E-2
5.155906313E0;-1.041228533E0;-5.142263770E-1;-1.245641485E-1
5.167818813E0;-2.268770933E0;1.923824072E0;-1.384046078E-1
5.179729750E0;-2.478507042E0;1.806712508E0;-8.091346174E-2
5.191642250E0;-2.378429890E0;6.728593111E-1;-1.618269235E-1
5.203553188E0;-2.341167212E0;-3.332357109E-1;-3.460115194E-1
5.215465688E0;-2.351813793E0;-1.195602894E0;-7.314151525E-1
5.227376625E0;-2.445502996E0;-1.606558084E0;-1.329748869E0
5.239289125E0;-2.731894016E0;-2.030289173E0;-2.297516584E0
5.251200063E0;-3.084293365E0;-2.407175541E0;-3.486731529E0
5.263111000E0;-3.435628176E0;-4.056319594E-1;-4.729178905E0
5.275023500E0;-3.319581270E0;3.943466663E0;-6.695589066E0
5.286934438E0;-2.661627054E0;5.107130051E0;-8.119027138E0
5.298846938E0;-1.342524767E0;6.544408798E0;-7.368448257E0
5.310757875E0;8.655611277E-1;5.912005901E0;-4.569481373E0
5.322670375E0;3.100263357E0;2.674402952E0;-2.185728073E0
5.334581313E0;3.348326921E0;2.012190074E-1;-1.148758292E0
5.346492250E0;1.412791610E0;-1.526709318E0;-1.485187888E0
5.358403188E0;-3.726277873E-2;-3.701791048E0;-2.042000294E0
5.370315688E0;-1.132788539E0;-5.192302227E0;-2.153788567E0
5.382228188E0;-2.018578053E0;-5.860902786E0;-1.636368394E0
5.394139125E0;-2.468925238E0;-5.865161419E0;-8.410741687E-1
5.406051625E0;-2.540256977E0;-5.342417717E0;-8.836601675E-2
5.417962563E0;-2.162305832E0;-4.368262291E0;3.992440701E-1
5.429876625E0;-1.627851129E0;-3.708178759E0;5.206142664E-1
5.441786000E0;-1.038034558E0;-2.871363401E0;4.311835766E-1
5.453696938E0;-4.205370843E-1;-1.865268230E0;1.022064835E-1
5.465607875E0;2.469989955E-1;-1.220089912E0;-2.310292274E-1
5.477520375E0;1.363817692E0;-1.230736375E0;-2.139948159E-1
5.489431313E0;2.662691832E0;-1.255223393E0;9.262461960E-2
5.501343813E0;3.505895138E0;-1.175374508E0;7.676132321E-1
5.513254750E0;3.594261169E0;-1.315908432E0;1.461765647E0
5.525167250E0;3.075776339E0;-1.543743730E0;2.159111977E0
5.537078188E0;2.414628029E0;-1.882302642E0;2.475313187E0
5.548989125E0;1.774773002E0;-2.884139061E0;2.580713749E0
5.560900063E0;-7.420616150E-1;-4.467275143E0;2.345425844E0
5.572812563E0;-3.984988213E0;-2.482765675E0;1.319102407E0
5.584723500E0;-1.106172204E0;3.860424042E0;1.085943878E-1
5.596634438E0;1.377658129E0;5.115647316E0;-8.581085801E-1
5.608546938E0;1.114689469E0;3.481408358E0;-9.400866628E-1
5.620457875E0;3.715631366E-1;2.095232964E0;-1.018870831E0
5.632370375E0;-3.939208016E-2;1.299938679E0;-8.368155360E-1
5.644282875E0;1.064650863E-1;1.685342312E0;-4.471533597E-1
5.656193813E0;4.609938264E-1;2.260253668E0;-8.623671532E-2
5.668107875E0;6.079156399E-1;2.141012907E0;6.568895578E-1
5.680017250E0;8.027467132E-1;1.742833376E0;1.683212996E0
5.691928188E0;1.161534071E0;7.984881401E-1;2.468925238E0
5.703840688E0;2.187857389E0;-4.216017425E-1;2.698889971E0
5.715751625E0;2.887333155E0;-1.115754128E0;3.070452929E0
5.727665688E0;3.039578199E0;-1.454313040E0;3.426046371E0
5.739575063E0;3.150301933E0;-2.039870977E0;3.835937023E0
5.751487563E0;3.500571966E0;-1.902531028E0;3.893428087E0
5.763398500E0;4.217082024E0;7.367383838E-1;3.616618872E0
5.775309438E0;4.247956753E0;3.489925385E0;3.067259073E0
5.787220375E0;4.147879601E0;5.816187382E0;2.225120306E0
5.799137563E0;4.657847404E0;7.516435146E0;1.410662413E0
5.811050063E0;3.127944231E0;8.087087631E0;1.044422507E0
5.822956313E0;-4.524766207E-1;4.282025814E0;6.941523552E-1
5.834867250E0;-1.957892895E0;9.496685266E-1;2.682920098E-1
5.846784438E0;-1.247770786E0;1.390434027E0;4.556705654E-1
5.858690688E0;3.193952516E-2;2.374171257E0;1.014612198E0
5.870601625E0;2.001543641E-1;6.419844627E-1;1.164728045E0
5.882514125E0;1.032711342E-1;-1.659790635E0;9.816080928E-1
5.894425063E0;1.203055456E-1;-3.199275732E0;7.303504944E-1
5.906336000E0;-2.661627233E-1;-2.367783546E0;5.206142664E-1
5.918248500E0;-1.785419464E0;1.731122255E0;4.695110321E-1
5.930159438E0;-1.414920926E0;1.064650893E0;4.705756605E-1
5.942071938E0;-1.290356874E0;9.794788063E-2;4.301189482E-1
5.953984438E0;-1.381916761E0;-7.303504944E-1;2.768092155E-1
5.965909438E0;-1.843975306E0;-8.282983303E-1;-1.277581006E-1
5.977806313E0;-2.373106718E0;-7.090574503E-1;-7.633546591E-1
5.989717250E0;-2.788320541E0;-1.154081464E0;-1.724734306E0
6.001629750E0;-3.193952560E0;-1.571424603E0;-2.719118357E0
6.013540688E0;-3.685821295E0;-1.331878185E0;-3.874264479E0
6.025451625E0;-3.961565733E0;1.313779116E0;-4.829256058E0
6.037364125E0;-3.675174713E0;4.325676441E0;-5.874743462E0
6.049275063E0;-2.662691832E0;6.206914425E0;-7.106544495E0
6.061187563E0;3.726277873E-2;7.003273010E0;-6.937264919E0
6.073098500E0;3.381330967E0;5.097548008E0;-3.923238277E0
6.085011000E0;5.021957874E0;1.728992939E0;-1.408533096E0
6.096921938E0;5.028346062E0;9.773494601E-1;-1.163663387E0
6.108832875E0;1.514998198E0;2.495541573E0;-1.801389217E0
6.120745375E0;-5.046445131E-1;-9.677675962E-1;-2.263447762E0
6.132657875E0;-1.342524767E0;-4.812222004E0;-2.311357021E0
6.144582875E0;-1.793936610E0;-6.249500275E0;-1.913177609E0
6.156481313E0;-1.988767743E0;-6.226078033E0;-1.109366179E0
6.168392250E0;-2.042000294E0;-5.793829918E0;-4.748342633E-1
6.180303188E0;-1.870591521E0;-4.980436802E0;4.365068302E-2
6.192214125E0;-1.539485097E0;-3.785898447E0;3.257831633E-1
6.204132875E0;-1.254158735E0;-2.758510351E0;3.364296556E-1
6.216042250E0;-1.000771761E0;-1.883367300E0;1.171115935E-1
6.227950063E0;-7.665486336E-1;-1.264805198E0;-1.011418328E-1
6.239861000E0;-2.235766798E-1;-6.579542160E-1;-2.693566680E-1
6.251773500E0;8.868541718E-1;-5.089030862E-1;-3.162012994E-1
6.263684438E0;2.011125326E0;-6.643421054E-1;-1.117883399E-1
6.275601625E0;2.709536314E0;-1.414920926E0;3.236538470E-1
6.287507875E0;2.887333155E0;-2.851135015E0;8.836601973E-1
6.299418813E0;2.753187180E0;-4.323546886E0;1.258417249E0
6.311331313E0;2.418886662E0;-5.262568951E0;1.423438191E0
6.323242250E0;7.111867666E-1;-4.955949783E0;1.334007502E0
6.335153188E0;-7.026695728E0;-1.639562249E-1;-1.809906401E-2
6.347065688E0;-3.116233110E0;7.867769718E0;-2.036677122E0
6.358976625E0;9.464746118E-1;6.789278507E0;-3.076840878E0
6.370889125E0;2.234702110E0;4.849484444E0;-2.098426819E0
6.382804750E0;2.110137939E0;2.450826168E0;-8.453327417E-1
6.394711000E0;1.667243242E0;9.943838716E-1;9.060178399E-1
6.406623500E0;1.347847939E0;5.834286809E-1;2.294322491E0
6.418534438E0;1.305261970E0;4.066966176E-1;3.344068289E0
6.430446938E0;1.687471628E0;4.567352235E-1;4.221340656E0
6.442364125E0;1.852492452E0;-1.863138974E-1;4.461951733E0
6.454268813E0;1.977056623E0;-1.523515344E0;3.943466663E0
6.466181313E0;2.885203838E0;-3.051289320E0;3.616618872E0
6.478092250E0;4.252215385E0;-4.540735722E0;3.108780384E0
6.490004750E0;5.120970726E0;-5.151845455E0;2.610523939E0
6.501915688E0;5.479757786E0;-5.178461552E0;2.113332033E0
6.513831313E0;8.020014763E0;-1.339330792E0;2.161241293E0
6.525739125E0;1.092757607E1;1.125655365E1;3.918979645E0
6.537650063E0;4.365068376E-1;1.475286674E1;3.208857536E0
6.549562563E0;-2.920337200E0;7.292858124E0;1.055068970E0
6.561473500E0;-2.066487312E0;1.371270299E0;-3.087487519E-1
6.573384438E0;-1.429826021E0;-2.055840731E0;-1.296744704E0
6.585300063E0;-1.405339122E0;-3.810385466E0;-1.511804223E0
6.597207875E0;-1.180697799E0;-3.963695049E0;-1.098719716E0
6.609120375E0;-2.576455176E-1;-6.068509817E-1;1.958957613E-1
6.621031313E0;1.208378673E0;3.778445721E0;1.667243242E0
6.632943813E0;1.377658129E0;4.513054848E0;2.117590427E0
6.644854750E0;1.132788539E0;4.829256058E0;2.186792850E0
6.656767250E0;-4.844161272E-1;6.039764404E0;1.825876236E0
6.668678188E0;-2.323068142E0;4.098905563E0;8.708843589E-1
6.680595375E0;-2.098426819E0;9.219876528E-1;-9.475392103E-2
6.692501625E0;-1.836522698E0;-6.749886274E-1;-1.094461083E0
6.704414125E0;-2.872427940E0;8.251044154E-1;-2.455084801E0
6.716325063E0;-2.795773029E0;8.730136752E-1;-3.479279041E0
6.728236000E0;-2.877751112E0;-4.908040464E-1;-4.175560474E0
6.740148500E0;-3.305740833E0;-1.723669767E0;-4.451305389E0
6.752059438E0;-3.834872246E0;-3.120491505E0;-4.945302963E0
6.763971938E0;-4.406589985E0;-4.766441822E0;-6.272922516E0
6.775882875E0;-3.938143492E0;-1.900401711E0;-8.444810867E0
6.787793813E0;-1.264805198E0;5.668200970E0;-1.058688831E1
6.799712563E0;-3.417529166E-1;6.568895817E0;-9.050597191E0
6.811617250E0;2.363524884E-1;7.461072922E0;-4.967660904E0
6.823529750E0;2.076069117E0;6.403874874E0;-2.698889971E0
6.835440688E0;1.677889705E0;1.805647850E0;-2.397593737E0
6.847351625E0;2.736152709E-1;-2.497670889E0;-2.508317471E0
6.859268813E0;-5.610709786E-1;-4.341646194E0;-2.232572794E0
6.871175063E0;-1.002901077E0;-4.979372025E0;-1.629980445E0
6.883086000E0;-1.380852103E0;-5.530860901E0;-9.187936783E-1
6.894998500E0;-1.655532002E0;-5.559606552E0;-1.224348471E-1
6.906909438E0;-1.595911622E0;-4.489632607E0;7.388677001E-1
6.918821938E0;-1.231801033E0;-3.412205935E0;1.401080489E0
6.930732875E0;-6.888290644E-1;-2.165499926E0;1.869526863E0
6.942645375E0;-3.034254909E-1;-1.127465248E0;2.132495642E0
6.954556313E0;1.373399645E-1;-5.323254317E-2;2.396528959E0
6.966467250E0;9.251815677E-1;1.113624811E0;2.512575865E0
6.978379750E0;1.750285983E0;1.966410160E0;2.448696852E0
6.990292250E0;2.037741661E0;2.165499926E0;2.419951439E0
7.002201625E0;2.275158882E0;1.259481907E0;2.677596807E0
7.014115688E0;2.440179825E0;-1.142370343E0;2.999121428E0
7.026025063E0;2.422080755E0;-4.646136284E0;3.000185966E0
7.037959438E0;2.020707369E0;-7.490883350E0;2.419951439E0
7.049848500E0;1.328684211E0;-7.674003124E0;1.682148337E0
7.061761000E0;-2.260253668E0;-3.710308075E0;2.267706245E-1
7.073671938E0;-2.654174566E0;5.717175007E-1;-8.240397573E-1
7.085582875E0;2.374171317E-1;6.390034199E0;-1.626786470E0
7.097496938E0;1.198796868E0;5.968432426E0;-1.681083679E0
7.109406313E0;5.749114752E-1;2.950147390E0;-1.353171229E0
7.121318813E0;-3.715631366E-1;2.529610395E0;-1.167922020E0
7.133229750E0;-5.014505386E-1;5.455270767E0;-1.306326628E0
7.145142250E0;-3.726277873E-2;4.939980030E0;-1.250964761E0
7.157053188E0;5.802347064E-1;4.868648529E0;-4.226663709E-1
7.168967250E0;-6.494370103E-2;3.087487459E0;1.155146122E0
7.180876625E0;-9.060178399E-1;4.939979911E-1;2.251736641E0
7.192787563E0;-1.241382837E0;-1.970668674E0;3.066194534E0
7.204700063E0;-7.750658393E-1;-3.618748188E0;3.598519802E0
7.216611000E0;3.534640670E-1;-4.404460430E0;3.999893188E0
7.228523500E0;1.795001268E0;-5.043251038E0;4.454499245E0
7.240434438E0;2.858587503E0;-5.329642296E0;4.729178905E0
7.252346938E0;3.702855587E0;-5.227435589E0;4.846290588E0
7.264257875E0;4.357615948E0;-5.024087429E0;4.622714043E0
7.276168813E0;6.347448349E0;-1.502222300E0;4.208564758E0
7.288081313E0;8.132867813E0;5.889648438E0;4.152138233E0
7.299992250E0;7.001143932E0;9.154932976E0;3.970082998E0
7.311903188E0;3.915785789E0;1.104042912E1;3.533576250E0
7.323815688E0;-7.569667697E-1;5.682041645E0;2.348619699E0
7.335726625E0;-1.430890679E0;2.768092230E-2;1.364882350E0
7.347639125E0;-7.580313683E-1;-1.640626907E0;9.709615707E-1
7.359550063E0;-6.079156399E-1;-2.314550877E0;4.961272776E-1
7.371461000E0;-6.143035293E-1;-2.762768984E0;-7.878416032E-2
7.383373500E0;-5.504244566E-1;-2.669079542E0;-6.824411750E-1
7.395290688E0;-4.024380147E-1;-2.165499926E0;-7.686778903E-1
7.407195375E0;-3.002315462E-1;5.333900452E-1;-3.832742944E-2
7.419107875E0;-2.544515431E-1;2.963987827E0;1.055068970E0
7.431020375E0;-3.087487519E-1;3.014026642E0;1.629980445E0
7.442931313E0;-5.376486778E-1;2.132495642E0;1.870591521E0
7.454842250E0;-8.772723079E-1;1.543743730E0;1.805647850E0
7.466753188E0;-1.385110736E0;1.707699895E0;1.468153477E0
7.478665688E0;-2.375236034E0;3.501636505E0;8.240397573E-1
7.490576625E0;-2.918207884E0;3.810385466E0;-8.091346174E-2
7.502489125E0;-3.155625105E0;3.434563637E0;-1.134917736E0
7.514404750E0;-3.229085922E0;2.984216213E0;-2.155917883E0
7.526312563E0;-3.233344555E0;2.103749990E0;-3.190758467E0
7.538223500E0;-3.246120453E0;1.101913571E0;-3.970082998E0
7.550136000E0;-3.060871124E0;2.853264213E-1;-4.997470856E0
7.562046938E0;-1.203055501E0;2.329456091E0;-6.291021824E0
7.573959438E0;2.122913837E0;2.655239105E0;-7.743205547E0
7.585870375E0;2.612653255E0;2.991668880E-1;-8.924967766E0
7.597781313E0;1.352106571E0;-2.416757345E-1;-8.452262878E0
7.609693813E0;4.471533373E-2;2.069681168E0;-5.256181240E0
7.621604750E0;8.346862793E-1;3.916850328E0;-2.129301786E0
7.633517250E0;1.616140008E0;1.476670742E0;-1.146628976E0
7.645429750E0;1.592717648E0;-1.143435001E0;-1.104042888E0
7.657340688E0;1.022064805E0;-3.071517706E0;-1.196667552E0
7.669251625E0;2.193180770E-1;-3.973276854E0;-1.400015831E0
7.681164125E0;-5.844933391E-1;-4.105293751E0;-1.364882350E0
7.693075063E0;-1.160469413E0;-3.990311384E0;-9.816080928E-1
7.704986000E0;-1.240318179E0;-3.708178759E0;-4.492826462E-1
7.716898500E0;-1.139176369E0;-3.453727245E0;1.820552945E-1
7.728809438E0;-9.986425042E-1;-3.344068289E0;5.301961303E-1
7.740720375E0;-7.984881401E-1;-3.440951586E0;6.111095548E-1
7.752632875E0;-6.260147095E-1;-3.851906776E0;5.067738295E-1
7.764543813E0;-4.546059072E-1;-4.151073456E0;3.172659576E-1
7.776456313E0;-1.266934574E-1;-4.082935810E0;4.258603230E-2
7.788367250E0;3.555933833E-1;-3.709243536E0;-1.788613349E-1
7.800279750E0;1.205184698E0;-3.532511473E0;-1.990897059E-1
7.812200063E0;1.878044128E0;-3.732665777E0;-5.003859103E-2
7.824103188E0;2.447632313E0;-4.202177048E0;-5.216789246E-2
7.836014125E0;2.401852369E0;-4.787734985E0;-2.789385319E-1
7.847925063E0;-6.813765317E-2;-3.494184017E0;-6.206914186E-1
7.859837563E0;-3.539963961E0;6.664714217E-1;-1.085943818E0
7.871753188E0;-2.445502996E0;5.416943550E0;-1.183891773E0
7.883661000E0;2.576455176E-1;3.667722225E0;-1.044422507E0
7.895571938E0;1.272257805E0;2.310292274E-1;-9.965131879E-1
7.907484438E0;1.000771761E0;-7.346090674E-1;-1.307391286E0
7.919395375E0;1.050810337E0;-5.791700482E-1;-8.975006342E-1
7.931326625E0;1.195602894E0;5.887519121E-1;-3.960501254E-1
7.943217250E0;1.347847939E0;1.892949224E0;2.874557301E-2
7.955129750E0;1.278645635E0;2.137818813E0;9.102764726E-1
7.967042250E0;1.186021090E0;2.059034824E0;2.405046225E0
7.978953188E0;1.527773976E0;1.353171229E0;3.266348839E0
7.990870375E0;2.126107693E0;4.354421794E-1;3.466503143E0
8.002776625E0;3.110909700E0;-7.431262732E-1;3.537834644E0
8.014687563E0;4.473662853E0;-1.252029419E0;3.502701283E0
8.026598500E0;6.973463058E0;1.073168039E0;3.646429062E0
8.038511000E0;7.265177250E0;5.331771374E0;3.673045397E0
8.050421938E0;4.981501102E0;6.930876732E0;3.480343580E0
8.062334438E0;1.962151527E0;4.220275879E0;3.054483175E0
8.074245375E0;-4.418300986E-1;-3.917915225E-1;2.426339149E0
8.086156313E0;-7.069281340E-1;-2.202762604E0;1.905725002E0
8.098070375E0;-3.193952609E-3;-1.275451660E0;1.519256711E0
8.109986000E0;3.492054641E-1;1.472412109E0;1.338266134E0
8.121892250E0;-7.878416032E-2;2.205956459E0;1.175374508E0
8.133803188E0;-7.175746560E-1;8.144578934E-1;8.410741687E-1
8.145715688E0;-8.836601973E-1;-4.663170576E-1;6.909583807E-1
8.157626625E0;-8.815308809E-1;-8.708843589E-1;9.858666658E-1
8.169539125E0;-1.172180533E0;2.326261997E0;1.688536286E0
8.181450063E0;-1.517127395E0;4.162784576E0;2.349684477E0
8.193361000E0;-1.596976280E0;2.813872099E0;2.653109789E0
8.205273500E0;-1.516062737E0;1.269063830E0;2.557291269E0
8.217184438E0;-1.281839609E0;2.086715698E-1;2.061164141E0
8.229095375E0;-9.986425042E-1;-1.756673902E-1;1.189214945E0
8.241007875E0;-8.953713775E-1;5.802347064E-1;5.323254038E-3
8.252937563E0;-1.214766622E0;1.363817692E0;-1.433019996E0
8.264831313E0;-1.634239078E0;-8.304276317E-2;-2.706342459E0
8.276742250E0;-2.208085775E0;-1.908918977E0;-3.681562662E0
8.288661000E0;-2.793643713E0;-3.134332180E0;-4.620584488E0
8.300565688E0;-3.300417662E0;-2.495541573E0;-5.831092834E0
8.312476625E0;-3.522929668E0;2.894785643E0;-7.663356781E0
8.324390688E0;-2.748928547E0;5.910941601E0;-1.009501934E1
8.336300063E0;5.323254317E-2;6.053604603E0;-1.075616741E1
8.348212563E0;1.676825047E0;3.052353859E0;-8.115833282E0
8.360123500E0;2.346490383E0;2.807484150E0;-3.560192347E0
8.372036000E0;2.441244364E0;2.646722078E0;-1.720475793E0
8.383946938E0;1.466024160E0;1.863138974E-1;-1.901466370E0
8.395857875E0;9.581857361E-3;-2.257059813E0;-2.425274611E0
8.407770375E0;-8.932420611E-1;-4.168107986E0;-2.501929522E0
8.419682875E0;-1.533097267E0;-5.603257179E0;-2.110137939E0
8.431593813E0;-1.790742755E0;-6.015277386E0;-1.405339122E0
8.443504750E0;-1.818423629E0;-5.218918324E0;-5.951398015E-1
8.455415688E0;-2.083521605E0;-4.369327068E0;2.171887755E-1
8.467326625E0;-2.181469679E0;-3.922173738E0;8.048760295E-1
8.479239125E0;-2.071810484E0;-3.765670061E0;1.090202451E0
8.491150063E0;-1.738574862E0;-3.142849207E0;1.242447495E0
8.503062563E0;-1.380852103E0;-2.096297503E0;1.133853197E0
8.514975063E0;-7.378030419E-1;-9.006946087E-1;9.177290201E-1
8.526887563E0;1.320167065E0;-1.942987800E0;6.324025989E-1
8.538796938E0;3.667722225E0;-3.719890118E0;5.770407319E-1
8.550707875E0;4.608873367E0;-4.410848618E0;6.377258301E-1
8.562620375E0;3.336615801E0;-5.388197899E0;5.387133360E-1
8.574532875E0;1.404274464E0;-5.680976868E0;2.310292274E-1
8.586443813E0;-1.192408949E-1;-4.190465927E0;-1.618269235E-1
8.598354750E0;-2.911819935E0;-1.164728045E0;-6.739239693E-1
8.610267250E0;-2.752122402E0;2.578584433E0;-1.187085629E0
8.622178188E0;-4.971919358E-1;6.279310703E0;-1.770514369E0
8.634090688E0;1.738574862E0;3.694338322E0;-1.840781331E0
8.646007875E0;2.179340363E0;-2.171887755E-1;-1.395757198E0
8.657915688E0;8.570439219E-1;-6.579542160E-1;-1.001836419E0
8.669825063E0;1.277581006E-1;-6.920230389E-1;-1.046551824E0
8.681736000E0;-1.064650831E-3;-5.174202919E-1;-6.984109282E-1
8.693648500E0;8.219104409E-1;4.748342633E-1;2.661627233E-1
8.705587563E0;2.409304857E0;2.345425844E0;1.259481907E0
8.717475063E0;3.551675320E0;3.964759827E0;1.984509110E0
8.729382875E0;3.598519802E0;4.156396866E0;2.628623009E0
8.741293813E0;2.989539623E0;3.624071360E0;3.053418636E0
8.753206313E0;2.125043154E0;1.955763578E0;3.219504118E0
8.765123500E0;2.095232964E0;-8.155225515E-1;3.543158054E0
8.777028188E0;2.884139061E0;-3.185435295E0;3.870005846E0
8.788940688E0;3.949854612E0;-3.960501194E0;3.769928694E0
8.800851625E0;6.506081104E0;9.315694571E-1;3.924303055E0
8.812764125E0;7.303504944E0;7.795373440E0;3.678368568E0
8.824681313E0;5.879002094E0;1.095525742E1;2.612653255E0
8.836586000E0;3.284447908E0;1.028133297E1;1.738574862E0
8.848498500E0;-1.270128489E0;3.822096586E0;7.686778903E-1
8.860411000E0;-2.080327749E0;2.129301662E-3;2.746799290E-1
8.872321938E0;-1.179633141E0;1.458571702E-1;9.528625011E-1
8.884242250E0;-6.494370103E-1;-3.726277873E-2;1.386175394E0
8.896145375E0;-5.110324025E-1;-1.392563343E0;1.409597754E0
8.908056313E0;-3.854036033E-1;-2.377365351E0;1.297809362E0
8.919968813E0;-3.012961745E-1;-2.867104769E0;1.339330792E0
8.931879750E0;-1.330813617E-1;-2.903302908E0;1.582071185E0
8.943796938E0;1.171115935E-1;4.929333329E-1;2.111202717E0
8.955703188E0;-1.415985674E-1;5.323254108E0;2.701019287E0
8.967614125E0;-2.427403927E-1;4.465145588E0;2.826647997E0
8.979526625E0;-4.365068376E-1;2.696760654E0;2.589230776E0
8.991437563E0;-8.187164664E-1;1.417050242E0;1.804583192E0
9.003350063E0;-1.459636331E0;8.357509375E-1;5.451012254E-1
9.015261000E0;-2.356072426E0;3.385589719E-1;-1.151952267E0
9.027171938E0;-3.371749163E0;6.334672570E-1;-2.835165262E0
9.039082875E0;-4.502408504E0;2.676532269E0;-4.826062202E0
9.051004750E0;-4.926139355E0;4.422559738E0;-7.277953148E0
9.062906313E0;-2.424210072E0;3.921108961E0;-9.785205841E0
9.074820375E0;1.475606084E0;-5.962044746E-2;-1.103936481E1
9.086729750E0;1.095525742E0;-1.010353684E0;-9.145350456E0
9.098640688E0;1.339330792E0;2.174016953E0;-3.596390486E0
9.110553188E0;1.618269324E0;3.769928694E0;-9.187936783E-1
9.122470375E0;8.549146056E-1;1.280774951E0;-1.068909407E0
9.134376625E0;4.045673087E-2;-1.727928281E0;-1.334007502E0
9.146287563E0;-1.270128489E0;-4.326741219E0;-1.384046078E0
9.158206313E0;-2.435921192E0;-6.151552677E0;-1.361688375E0
9.170111000E0;-3.285512447E0;-7.808149338E0;-1.215831280E0
9.182031313E0;-3.625136137E0;-8.008303642E0;-8.815308809E-1
9.193934438E0;-3.661334276E0;-7.168293953E0;-4.854807854E-1
9.205846938E0;-3.410076618E0;-5.703334332E0;-3.758217394E-1
9.217757875E0;-3.055547953E0;-4.273508549E0;-4.939979911E-1
9.229668813E0;-2.241090059E0;-2.070745945E0;-8.176518679E-1
9.241581313E0;-1.027388096E0;-2.235766686E-2;-1.245641470E0
9.253493813E0;1.491575837E0;-7.324797511E-1;-1.862074375E0
9.265404750E0;3.282318592E0;-2.482765675E0;-1.949375629E0
9.277315688E0;4.077612877E0;-3.465438366E0;-1.462830305E0
9.289228188E0;4.110616684E0;-4.312900543E0;-7.654839754E-1
9.301139125E0;3.302546978E0;-6.139841557E0;-2.139948159E-1
9.313051625E0;4.258603454E-1;-9.626572609E0;2.171887755E-1
9.324962563E0;-1.901466370E0;-9.685129166E0;4.514119625E-1
9.336881313E0;-6.876579762E0;-1.621463180E0;6.930876970E-1
9.348786000E0;-4.960208416E0;4.604614735E0;3.193952441E-1
9.360696938E0;8.101992607E-1;9.129381180E0;1.682148278E-1
9.372609438E0;2.863910675E0;4.772829533E0;4.397007823E-1
9.384518813E0;2.296451807E0;5.855579376E-1;2.768092230E-2
9.396431313E0;7.484495640E-1;-2.789385319E-1;-6.696653962E-1
9.408343813E0;1.820552945E-1;1.033775926E0;-3.055547774E-1
9.420254750E0;7.399323583E-1;2.589230776E0;4.130845368E-1
9.432167250E0;1.760932446E0;3.616618872E0;1.252029419E0
9.444078188E0;2.687178612E0;4.253280163E0;2.137818813E0
9.455989125E0;3.609166384E0;4.585451126E0;3.034254789E0
9.467900063E0;4.108487606E0;4.214952469E0;3.444145441E0
9.479812563E0;4.019056797E0;2.982086897E0;3.439886808E0
9.491723500E0;3.979664803E0;1.596976280E0;3.268478155E0
9.503636000E0;3.951983929E0;4.471533373E-2;3.486731529E0
9.515546938E0;4.642942429E0;1.044422507E0;3.941337347E0
9.527457875E0;6.682813168E0;1.166431427E1;4.044608593E0
9.539376625E0;5.081578255E0;1.116818714E1;2.291128635E0
9.551281313E0;3.070452929E0;7.663356781E0;1.175374508E0
9.563192250E0;1.809906363E-1;2.233637571E0;1.595911622E0
9.575104750E0;-1.684277654E0;-1.816294312E0;2.574325800E0
9.587017250E0;-1.828005433E0;-2.150594711E0;2.916078568E0
9.598928188E0;-1.116818786E0;-1.394692659E-1;2.719118357E0
9.610840688E0;-3.289771080E-1;1.310585141E0;2.331585407E0
9.622751625E0;5.962044746E-2;2.757445574E-1;1.694924116E0
9.634664125E0;1.863138974E-1;-5.834286809E-1;1.223283768E0
9.646575063E0;3.438822329E-1;1.384046078E-1;1.040163875E0
9.658486000E0;2.672273517E-1;1.340395451E0;1.032711267E0
9.670396938E0;-1.735380888E-1;1.378722787E0;1.067844748E0
9.682309438E0;-6.111095548E-1;1.405339092E-1;1.043357849E0
9.694221938E0;-8.740783334E-1;-1.178568482E0;7.569667697E-1
9.706132875E0;-1.039099216E0;-1.512868881E0;1.554390192E-1
9.718053188E0;-1.400015831E0;-5.962044597E-1;-7.825183868E-1
9.729956313E0;-1.770514369E0;-7.399323583E-1;-1.839716673E0
9.741867250E0;-2.229378939E0;-1.763061762E0;-2.855393648E0
9.753778188E0;-2.748928547E0;-2.882009745E0;-3.750764847E0
9.765690688E0;-3.201405048E0;-3.537834644E0;-4.970854759E0
9.777612563E0;-3.629394770E0;-1.457507014E0;-7.102285862E0
9.789514125E0;-3.725213289E0;2.960793972E0;-9.740490913E0
9.801426625E0;-3.177982807E0;5.049638748E0;-1.167921925E1
9.813337563E0;-1.657661319E0;5.671394825E0;-1.058901691E1
9.825248500E0;6.835058331E-1;5.259375095E0;-4.686593056E0
9.837165688E0;2.718053579E0;4.132974625E0;-9.443452954E-1
9.849071938E0;3.433498859E0;7.761304379E-1;-1.916371584E-1
9.860982875E0;2.699954510E0;-1.680019021E0;-1.927018017E-1
9.872893813E0;8.698197603E-1;-3.578291416E0;-5.014505386E-1
9.884806313E0;-1.030582070E0;-5.221047878E0;-9.549918175E-1
9.896717250E0;-2.111202717E0;-6.359159470E0;-1.113624811E0
9.908629750E0;-2.562614679E0;-6.677490234E0;-8.495913744E-1
9.920540688E0;-2.711665630E0;-6.164328575E0;-2.587101460E-1
9.932451625E0;-2.614782572E0;-5.341353416E0;2.384817898E-1
9.944364125E0;-2.376300573E0;-4.554576397E0;5.951398015E-1
9.956276625E0;-2.013254642E0;-4.016927719E0;5.674588680E-1
9.968187563E0;-1.431955338E0;-2.945888758E0;2.672273517E-1
9.980100063E0;-4.066966176E-1;-2.032418489E0;-5.536184460E-2
9.992009438E0;1.767320395E0;-2.794708490E0;-5.248728395E-1
1.000392194E1;2.762768984E0;-3.697532415E0;-3.907268643E-1
1.001583288E1;3.094939947E0;-4.855872631E0;1.799259931E-1
1.002774538E1;2.469990015E0;-6.078091621E0;7.974234819E-1
1.003965631E1;1.326554894E0;-6.352771759E0;1.259481907E0
1.005156881E1;-1.171115935E-1;-5.003859043E0;1.280774951E0
1.006347975E1;-2.233637571E0;-5.057091713E-1;1.173245192E0
1.007539538E1;-5.943945408E0;4.219211102E0;4.620584548E-1
1.008730319E1;-2.686114073E0;7.074604988E0;-6.196267605E-1
1.009921413E1;1.242447495E0;5.308349133E0;-1.118947983E0
1.011112662E1;2.462537289E0;1.986638427E0;-4.386361539E-1
1.012303756E1;1.360623717E0;3.694338500E-1;8.517206460E-2
1.013495006E1;4.045673087E-2;4.279896319E-1;-2.565808594E-1
1.014686100E1;9.475392699E-1;2.390141249E0;2.672273517E-1
1.015877194E1;2.808548927E0;4.170237541E0;5.046445131E-1
1.017068444E1;2.927789927E0;3.307870150E0;7.889062762E-1
1.018259538E1;2.267706394E0;2.341167212E0;1.872720838E0
1.019451569E1;1.736445546E0;7.612253428E-1;2.447632313E0
1.020641881E1;1.913177609E0;-2.831971347E-1;2.738281965E0
1.021833131E1;3.081099510E0;-3.438822329E-1;2.617976427E0
1.023024225E1;5.249793530E0;2.088845015E0;2.578584433E0
1.024215319E1;5.493598461E0;5.610710144E0;3.515477180E0
1.025406569E1;3.829549074E0;6.864868641E0;4.140427113E0
1.026597662E1;2.088845015E0;7.192780972E0;3.783769131E0
1.027788913E1;1.145564318E0;6.054669380E0;2.398658276E0
1.028980006E1;1.217960596E0;3.268478155E0;1.318037748E0
1.030171256E1;1.676825047E0;5.504244566E-1;9.092118144E-1
1.031362350E1;1.985573769E0;-5.504244566E-1;1.115754128E0
1.032553600E1;2.021771908E0;-9.262461960E-2;1.851427794E0
1.033744694E1;1.184956431E0;1.289292216E0;2.678661585E0
1.034936569E1;4.439594150E-1;-4.098905623E-1;2.596683502E0
1.036127038E1;1.639562249E-1;-1.577812552E0;2.097362041E0
1.037318131E1;-3.683691919E-1;1.884431988E-1;1.916371465E0
1.038509225E1;-1.344653964E0;3.661334276E0;1.949375629E0
1.039700475E1;-1.594846964E0;3.287641764E0;1.739639521E0
1.040891569E1;-1.673631072E0;2.183598757E0;1.445795894E0
1.042082819E1;-1.764126420E0;1.232865691E0;1.234995008E0
1.043273913E1;-1.839716673E0;6.473076940E-1;1.076362014E0
1.044465006E1;-1.814164996E0;3.066194355E-1;8.208457828E-1
1.045656256E1;-1.649144173E0;3.087487519E-1;4.918686748E-1
1.046847350E1;-1.550131679E0;6.632774472E-1;-1.533097178E-1
1.048038600E1;-1.741768718E0;2.981022298E-1;-1.233930349E0
1.049229850E1;-2.035612345E0;-3.885975480E-1;-2.251736641E0
1.050420788E1;-2.293257952E0;-1.033775926E0;-3.430305004E0
1.051612038E1;-2.456149578E0;-1.958957613E-1;-4.901652336E0
1.052803131E1;-2.318809509E0;3.899816036E0;-7.515370369E0
1.053994381E1;-8.495913744E-1;3.994570017E0;-9.875700951E0
1.055185475E1;5.993984342E-1;5.514891148E-1;-1.027600956E1
1.056376569E1;-1.384046115E-2;-5.163556337E-1;-7.101221085E0
1.057567819E1;3.790156841E-1;7.910355926E-1;-2.182534218E0
1.058759069E1;1.545873046E0;1.274387002E0;4.152138159E-2
1.059950162E1;1.388304710E0;-5.962044746E-2;3.076840937E-1
1.061141881E1;3.843389452E-1;-1.836522698E0;-4.184077680E-1
1.062332662E1;-5.003858805E-1;-3.552739859E0;-1.072103381E0
1.063523600E1;-1.155146122E0;-4.901652336E0;-1.474541426E0
1.064714694E1;-1.378722787E0;-5.292379379E0;-1.384046078E0
1.065905944E1;-1.356365204E0;-5.202948570E0;-6.707300544E-1
1.067097038E1;-1.338266134E0;-5.056026936E0;3.619812801E-2
1.068288288E1;-1.428761482E0;-4.674881935E0;6.622128487E-1
1.069479538E1;-1.530967951E0;-4.419365406E0;9.155997038E-1
1.070670631E1;-1.690665483E0;-4.185142517E0;8.932420611E-1
1.071861881E1;-1.907854319E0;-3.759282112E0;7.952941656E-1
1.073053131E1;-1.885496616E0;-3.439886808E0;6.611481905E-1
1.074245006E1;-1.110430837E0;-3.216310263E0;6.015277505E-1
1.075435162E1;2.469989955E-1;-3.149237156E0;6.568895578E-1
1.076626413E1;1.631045103E0;-2.883074522E0;7.441909313E-1
1.077817506E1;2.816001415E0;-2.714859724E0;4.982565939E-1
1.079008600E1;3.673045397E0;-3.163077593E0;3.193952516E-2
1.080199850E1;1.602299571E0;-2.324132681E0;-5.791700482E-1
1.081390944E1;-2.830906630E0;1.245641485E-1;-1.095525742E0
1.082582194E1;-4.929333210E0;1.895078540E0;-1.548002362E0
1.083773288E1;-2.017513275E0;3.519735575E0;-2.121849060E0
1.084964381E1;1.221154571E0;3.333421707E0;-2.494477034E0
1.086155631E1;1.476670742E0;2.308162928E0;-2.614782572E0
1.087346725E1;-9.475392103E-2;2.232572794E0;-2.793643713E0
1.088537975E1;-5.131617188E-1;2.586036921E0;-2.308162928E0
1.089729069E1;2.097362131E-1;3.538899422E0;-1.436213970E0
1.090920163E1;1.427696824E0;4.160655499E0;-1.777966917E-1
1.092111412E1;1.835458040E0;3.424981833E0;1.345718622E0
1.093302506E1;1.993026376E0;1.604428768E0;3.245055676E0
1.094493756E1;2.291128635E0;1.075297371E-1;4.337387562E0
1.095684850E1;2.772350788E0;-1.557584167E0;4.765377045E0
1.096876725E1;3.694338322E0;-2.650980473E0;4.666364670E0
1.098067350E1;5.202948570E0;-2.245348692E0;4.401266575E0
1.099258444E1;7.214074135E0;1.648079515E0;4.609938145E0
1.100449538E1;6.159005165E0;6.355965614E0;4.526895523E0
1.101640631E1;3.543158054E0;9.157061577E0;3.066194534E0
1.102831881E1;2.560485363E0;8.429904938E0;1.378722787E0
1.104023131E1;1.577812552E0;4.319288254E0;4.854807854E-1
1.105214538E1;3.140719831E-1;-7.527081370E-1;4.535412490E-1
1.106405319E1;-3.939208016E-2;-2.708471775E0;1.264805198E0
1.107596412E1;3.023608327E-1;-7.228979468E-1;1.880173326E0
1.108787506E1;6.494370103E-2;5.291314721E-1;1.854621768E0
1.109978756E1;-5.429719388E-2;-4.407654405E-1;1.439407945E0
1.111170006E1;-1.607622802E-1;-9.933192134E-1;1.099784374E0
1.112361100E1;-7.122514248E-1;5.812993646E-1;1.135982394E0
1.113552194E1;-1.337201476E0;2.008996248E0;1.537355781E0
1.114743600E1;-1.534161806E0;1.230736375E0;1.865268230E0
1.115934538E1;-1.532032609E0;3.641105890E-1;2.083521605E0
1.117125788E1;-1.362753034E0;-2.555162013E-1;2.128237009E0
1.118316881E1;-1.054004312E0;-4.237310290E-1;1.896143198E0
1.119508131E1;-7.761304379E-1;1.213701963E-1;1.320167065E0
1.120699850E1;-8.389448524E-1;1.753479958E0;4.503473043E-1
1.121890475E1;-1.195602894E0;3.072582245E0;-8.038113713E-1
1.123081569E1;-1.311649799E0;2.131430864E0;-1.949375629E0
1.124272663E1;-1.562907457E0;3.193952441E-1;-2.978893042E0
1.125463912E1;-1.987703085E0;-1.365947008E0;-3.803997517E0
1.126655006E1;-2.431662560E0;-2.620105743E0;-4.824997425E0
1.127846100E1;-3.020414352E0;-1.764126420E0;-5.901359558E0
1.129037350E1;-3.336615801E0;4.464080811E0;-7.619706154E0
1.130228444E1;-1.057198286E0;5.687364578E0;-8.660934448E0
1.131419694E1;9.422159791E-1;2.176146269E0;-7.113996983E0
1.132610788E1;1.240318179E0;-7.037342191E-1;-2.827712536E0
1.133802038E1;1.421308875E0;-2.108008713E-1;-4.205370843E-1
1.134993131E1;5.866225958E-1;1.756673902E-1;-8.836601675E-2
1.136184225E1;1.341460049E-1;-9.155997038E-1;-7.484495640E-1
1.137375475E1;-4.226663709E-1;-2.460407972E0;-1.158340096E0
1.138566569E1;-1.124271274E0;-3.727342606E0;-1.250964761E0
1.139757819E1;-1.720475793E0;-4.352292538E0;-1.006095052E0
1.140948912E1;-1.961086869E0;-4.284154892E0;-5.844933391E-1
1.142140006E1;-1.921694756E0;-4.140427113E0;-3.300417587E-2
1.143331256E1;-1.849298477E0;-3.782704353E0;4.322482347E-1
1.144522350E1;-1.704506040E0;-3.510153770E0;6.366612315E-1
1.145713600E1;-1.441537261E0;-3.465438366E0;6.387904882E-1
1.146904694E1;-9.879959822E-1;-3.531446934E0;4.727049768E-1
1.148095788E1;-1.117883399E-1;-3.809320688E0;1.820552945E-1
1.149287038E1;1.046551824E0;-4.329935074E0;-2.342231870E-1
1.150478288E1;1.602299571E0;-4.558835030E0;-5.035798550E-1
1.151669538E1;1.896143198E0;-5.068802834E0;-4.098905623E-1
1.152860475E1;2.002608299E0;-4.981501102E0;-1.234994978E-1
1.154051569E1;1.417050242E0;-3.537834644E0;9.262461960E-2
1.155242819E1;-3.502701223E-1;-6.419844627E-1;-1.288227588E-1
1.156433912E1;-3.469696999E0;3.905139208E0;-7.143807411E-1
1.157625006E1;-3.744376898E0;6.818024158E0;-1.379787445E0
1.158816256E1;-3.311064243E-1;7.106544495E0;-1.830134749E0
1.160007350E1;8.144578934E-1;2.692502022E0;-2.595618725E0
1.161198600E1;4.035026729E-1;8.251044154E-1;-3.264219522E0
1.162390631E1;3.619812727E-1;1.171115875E0;-2.891591787E0
1.163580944E1;5.632002950E-1;1.931276679E0;-2.067551851E0
1.164772038E1;1.110430837E0;2.584972143E0;-6.728593111E-1
1.165963288E1;1.674695730E0;2.413563490E0;1.213701963E0
1.167154381E1;2.045194149E0;1.396821856E0;3.228021383E0
1.168345631E1;2.120784521E0;3.492054641E-1;4.115940094E0
1.169537194E1;2.339037895E0;-4.727049768E-1;4.325676441E0
1.170727819E1;3.113039017E0;-1.807777166E0;4.262861729E0
1.171919069E1;4.134039402E0;-3.208857536E0;4.044608593E0
1.173110162E1;5.546830654E0;-3.395171642E0;3.910462618E0
1.174301881E1;8.215910912E0;1.214766622E0;4.144685745E0
1.175492663E1;8.049824715E0;6.815894604E0;3.960501194E0
1.176683756E1;4.614196777E0;1.116818714E1;3.138590574E0
1.177874850E1;1.012483001E0;8.288307190E0;1.753479958E0
1.179066100E1;-1.112560153E0;8.357509375E-1;6.355965734E-1
1.180257194E1;-1.157275438E0;-2.492347717E0;4.790928662E-1
1.181448288E1;-1.117883399E-1;-4.397007823E-1;7.452555895E-1
1.182639381E1;-1.927018017E-1;1.064650831E-3;3.939208090E-1
1.183830631E1;-4.865454435E-1;-1.264805198E0;-8.943066746E-2
1.185021725E1;-1.010353684E0;-8.527853489E-1;-1.415985674E-1
1.186212975E1;-1.711958528E0;1.789678097E0;3.779510558E-1
1.187404225E1;-1.779031515E0;3.029996395E0;1.217960596E0
1.188595319E1;-1.313779116E0;2.287934542E0;1.829070091E0
1.189786412E1;-6.898937225E-1;1.526709318E0;2.242154598E0
1.190977663E1;-2.097362131E-1;1.491575837E0;2.269835472E0
1.192168756E1;-8.091346174E-2;1.429826021E0;1.880173326E0
1.193359850E1;-2.352878302E-1;1.612946033E0;1.290356874E0
1.194551100E1;-6.728593111E-1;2.068616629E0;4.109552205E-1
1.195742194E1;-1.109366179E0;1.996220350E0;-5.802347064E-1
1.196933444E1;-1.409597754E0;7.441909313E-1;-1.810971022E0
1.198124538E1;-1.698118091E0;-1.057198286E0;-2.986345530E0
1.199315631E1;-2.050517559E0;-2.442309141E0;-3.749700308E0
1.200506881E1;-2.514705181E0;-3.620877504E0;-4.683399200E0
1.201697975E1;-3.042772055E0;-3.891298771E0;-5.781054020E0
1.202889225E1;-3.762475967E0;6.249500513E-1;-7.508982182E0
1.204080944E1;-2.315615654E0;5.439301014E0;-9.174096107E0
1.205271569E1;1.596976221E-1;5.398844242E0;-8.270207405E0
1.206462662E1;1.559713483E0;2.770221472E0;-3.472891092E0
1.207653756E1;2.362460136E0;1.292486072E0;-3.992440701E-1
1.208844850E1;1.659790635E0;-5.727821589E-1;-2.810678184E-1
1.210036569E1;5.344547033E-1;-1.579941869E0;-8.996299505E-1
1.211227350E1;-4.130845368E-1;-2.580713749E0;-1.315908432E0
1.212418444E1;-1.143435001E0;-3.528252840E0;-1.450054407E0
1.213609538E1;-1.911048293E0;-4.143620968E0;-1.276516318E0
1.214800788E1;-2.273029566E0;-4.139362335E0;-7.750658393E-1
1.215991881E1;-2.123978376E0;-4.113811016E0;-1.384046078E-1
1.217182975E1;-1.833328724E0;-4.139362335E0;4.780282378E-1
1.218374225E1;-1.575683236E0;-4.011604309E0;9.997071624E-1
1.219565475E1;-1.310585141E0;-3.849777460E0;1.180697799E0
1.220756725E1;-9.336987734E-1;-3.314258099E0;1.113624811E0
1.221947819E1;-5.067738295E-1;-2.626493692E0;8.953713775E-1
1.223138913E1;4.567352235E-1;-2.695695877E0;5.653296113E-1
1.224330162E1;1.832264066E0;-3.618748188E0;4.077612758E-1
1.225521100E1;3.039578199E0;-4.679140568E0;5.727821589E-1
1.226712350E1;3.621942043E0;-5.112453461E0;6.505016685E-1
1.227903912E1;2.824518681E0;-3.911527157E0;5.248728395E-1
1.229094694E1;4.428947568E-1;-5.823640227E-1;5.855579674E-2
1.230285944E1;-4.060578346E0;3.238667965E0;-7.143807411E-1
1.231477038E1;-3.570838928E0;4.261797428E0;-1.375528932E0
1.232668131E1;1.863138974E-1;5.530860901E0;-1.949375629E0
1.233859225E1;2.212344408E0;3.291900396E0;-2.253865719E0
1.235050475E1;1.112560153E0;6.004630923E-1;-2.183598757E0
1.236241569E1;-7.079927921E-1;-5.089030862E-1;-2.501929522E0
1.237432819E1;-8.794015646E-1;-5.376486778E-1;-2.394399643E0
1.238623913E1;-1.788613349E-1;1.120012641E0;-1.715152502E0
1.239815319E1;9.911899567E-1;2.916078568E0;-8.751429915E-1
1.241006256E1;1.932341218E0;3.794415712E0;8.676904440E-1
1.242197350E1;2.388011932E0;3.486731529E0;2.751057863E0
1.243388444E1;2.430597782E0;2.377365351E0;3.643235207E0
1.244579694E1;2.682920218E0;3.332357109E-1;3.953048468E0
1.245770944E1;3.225892067E0;-2.089909554E0;4.040349960E0
1.246962038E1;4.044608593E0;-3.750764847E0;3.958371878E0
1.248154069E1;5.661813259E0;-2.367783546E0;4.066966057E0
1.249344225E1;6.764791489E0;5.729950905E0;4.311835766E0
1.250535475E1;4.118069649E0;8.722683907E0;3.432434320E0
1.251726725E1;1.875914812E0;8.469297409E0;2.177211046E0
1.252917975E1;5.898165703E-1;6.802054405E0;1.120012641E0
1.254108913E1;3.715631366E-1;3.487796068E0;6.930876970E-1
1.255300162E1;4.184077680E-1;2.853264213E-1;7.899709344E-1
1.256491256E1;5.195496082E-1;3.193952516E-2;1.166857362E0
1.257682819E1;-9.581857361E-3;7.803890705E-1;1.340395451E0
1.258873600E1;-4.247956872E-1;-6.984109282E-1;1.124271274E0
1.260064850E1;-5.216789246E-1;-2.001543522E0;8.368155360E-1
1.261256569E1;-4.609938264E-1;-2.159111977E0;7.612253428E-1
1.262447038E1;-8.251044154E-1;2.006866932E0;1.221154571E0
1.263638912E1;-1.063586235E0;2.897979498E0;1.720475793E0
1.264829381E1;-1.171115875E0;1.839716673E0;1.899337053E0
1.266020631E1;-1.224348426E0;8.048760295E-1;1.901466370E0
1.267211725E1;-1.191344261E0;3.300417587E-2;1.703441381E0
1.268402975E1;-1.095525742E0;-1.660855263E-1;1.232865691E0
1.269594069E1;-1.044422507E0;2.161241174E-1;3.598519862E-1
1.270785162E1;-1.344653964E0;1.898272395E0;-9.102764726E-1
1.271976413E1;-1.769449711E0;3.092810631E0;-2.504058838E0
1.273167506E1;-2.035612345E0;2.069681168E0;-3.536770105E0
1.274358756E1;-2.564743757E0;3.385589719E-1;-4.319288254E0
1.275549850E1;-3.065129757E0;-1.033775926E0;-5.041121960E0
1.276741100E1;-3.538899422E0;-2.184663534E0;-6.078091621E0
1.277932194E1;-3.501636505E0;5.195496082E-1;-7.886933327E0
1.279123288E1;-2.650980651E-1;6.056798458E0;-9.500944138E0
1.280314538E1;1.767320395E0;4.508796215E0;-6.486917496E0
1.281505944E1;2.499800205E0;4.061643124E0;-1.902531028E0
1.282696725E1;2.582842827E0;1.703441381E0;-8.943066746E-2
1.283888131E1;1.526709318E0;-5.663942695E-1;-3.343003690E-1
1.285079225E1;2.374171317E-1;-2.439115047E0;-9.358280897E-1
1.286270319E1;-9.379574060E-1;-3.844454288E0;-1.237124324E0
1.287461881E1;-1.848233819E0;-4.905910969E0;-1.236059666E0
1.288652662E1;-2.448696852E0;-5.410555363E0;-8.900480866E-1
1.289843756E1;-2.744669914E0;-5.409491062E0;-1.490511149E-1
1.291034850E1;-2.580713749E0;-4.836708546E0;7.069281340E-1
1.292226100E1;-2.232572794E0;-4.274573326E0;1.319102407E0
1.293417663E1;-1.807777166E0;-3.774187326E0;1.615075350E0
1.294608600E1;-1.356365204E0;-2.957600117E0;1.677889705E0
1.295799538E1;-1.012483001E0;-2.105879307E0;1.570359945E0
1.296990631E1;-4.769635797E-1;-1.517127395E0;1.342524767E0
1.298181881E1;5.291314721E-1;-1.649144173E0;1.124271274E0
1.299372975E1;2.040935755E0;-2.334779263E0;9.997071624E-1
1.300564381E1;3.202469826E0;-2.707406998E0;8.187164664E-1
1.301755319E1;3.297223568E0;-2.511511326E0;6.057863235E-1
1.302946412E1;2.103749990E0;-1.385110736E0;4.812221825E-1
1.304137663E1;-9.688322544E-1;1.236059666E0;4.152138159E-2
1.305329538E1;-2.622235060E0;3.006573915E0;-8.038113713E-1
1.306520319E1;-8.378801942E-1;3.558063030E0;-1.411727071E0
1.307711100E1;1.335072160E0;3.159883738E0;-2.024966002E0
1.308902194E1;1.478800058E0;-2.342231870E-1;-2.384817839E0
1.310093444E1;2.800031602E-1;-2.214473724E0;-1.912112951E0
1.311284538E1;-7.292858362E-1;-1.610816717E0;-1.843975306E0
1.312476100E1;-5.451012254E-1;-1.255223393E0;-2.017513275E0
1.313666881E1;5.482951999E-1;-8.570439219E-1;-1.831199408E0
1.314857975E1;1.991961718E0;3.164142370E0;-1.608687401E0
1.316049225E1;3.368555307E0;4.362939358E0;-7.079927921E-1
1.317240319E1;2.135689497E0;3.521864891E0;8.857895136E-1
1.318431725E1;5.046445131E-1;1.817358971E0;2.590295553E0
1.319622663E1;-4.365068302E-2;-8.304276317E-2;3.301482201E0
1.320813912E1;1.104042888E0;-2.538127661E0;3.516541719E0
1.322005006E1;3.018285036E0;-5.340288639E0;3.710308075E0
1.323196256E1;4.465145588E0;-6.380452633E0;3.726277828E0
1.324387350E1;6.472012520E0;-4.162784576E0;3.611295700E0
1.325578444E1;8.419259071E0;5.314736843E0;3.922173738E0
1.326769694E1;5.183784962E0;1.112560081E1;3.614489555E0
1.327960788E1;1.743898034E0;1.144393158E1;2.253865719E0
1.329151881E1;-2.257059813E-1;9.116604805E0;7.867769599E-1
1.330343131E1;-3.885975480E-1;4.129780769E0;1.043357849E-1
1.331534225E1;-2.768092230E-2;-4.386361539E-1;-1.107236892E-1
1.332725475E1;7.047988772E-1;-2.262382984E0;3.470761776E-1
1.333916569E1;8.857895136E-1;-1.738574862E0;1.219025254E0
1.335108444E1;3.428175747E-1;-1.315908432E0;1.773708344E0
1.336298912E1;-2.448697016E-2;-1.197732210E0;1.917436123E0
1.337490006E1;-2.959729433E-1;-4.961272776E-1;1.871656179E0
1.338681256E1;-8.900480866E-1;2.161241293E0;1.900401711E0
1.339872350E1;-1.293550730E0;2.905432224E0;1.947246432E0
1.341063913E1;-1.367011666E0;1.869526863E0;1.849298477E0
1.342255319E1;-1.249900103E0;8.272337317E-1;1.637432933E0
1.343445788E1;-9.230522513E-1;1.895078421E-1;1.073168039E0
1.344637038E1;-1.109366179E0;1.081685305E0;7.452555746E-2
1.345828131E1;-1.798195243E0;1.617204666E0;-1.718346477E0
1.347019225E1;-2.227249622E0;3.130073547E-1;-3.089616776E0
1.348210475E1;-2.654174566E0;-9.656383395E-1;-4.154267788E0
1.349401569E1;-3.076840878E0;-1.694924116E0;-5.228500366E0
1.350592819E1;-3.743312359E0;2.203827202E-1;-6.308056355E0
1.351783912E1;-3.801868200E0;5.860902786E0;-7.935907364E0
1.352975163E1;-1.117883399E-1;5.522344112E0;-9.100635529E0
1.354166256E1;1.514998198E0;9.635090232E-1;-8.148837090E0
1.355357350E1;1.276516318E0;-2.640334070E-1;-4.339516640E0
1.356548600E1;1.216895938E0;1.000771761E0;-6.973463297E-1
1.357739694E1;9.794787765E-1;1.146628976E0;-3.758217394E-1
1.358930944E1;4.226663709E-1;1.096590385E-1;-8.900480866E-1
1.360122350E1;-7.559020817E-2;-1.464959502E0;-1.156210780E0
1.361313288E1;-6.898937225E-1;-3.187564611E0;-1.313779116E0
1.362504381E1;-1.389369369E0;-4.694045544E0;-1.313779116E0
1.363695631E1;-1.978121281E0;-5.263633728E0;-9.613797069E-1
1.364887350E1;-2.346490383E0;-4.967660904E0;-3.917915225E-1
1.366077975E1;-2.487024307E0;-4.445981979E0;2.523222566E-1
1.367269069E1;-2.390141249E0;-4.204306126E0;5.355193615E-1
1.368460162E1;-2.142077446E0;-3.729471922E0;6.600835323E-1
1.369651412E1;-1.714087844E0;-2.709536314E0;7.665486336E-1
1.370842506E1;-8.165872097E-1;-1.178568482E0;8.357509375E-1
1.372033600E1;2.203827202E-1;-2.555162013E-1;7.165099978E-1
1.373224850E1;2.439115047E0;-1.633174419E0;2.565808594E-1
1.374415944E1;3.415399790E0;-2.646722078E0;1.682148278E-1
1.375607194E1;3.465438366E0;-3.286577225E0;3.012961745E-1
1.376798288E1;2.656303883E0;-4.455563545E0;2.853264213E-1
1.377989850E1;1.159404755E0;-5.288120747E0;3.726277873E-2
1.379180631E1;-2.702083826E0;-6.088737965E0;-3.854036033E-1
1.380371725E1;-6.324026108E0;-3.007638693E0;-7.409969568E-1
1.381562975E1;-3.541028738E0;4.254344940E0;-1.457507014E0
1.382754069E1;8.357509375E-1;6.619998932E0;-1.904660344E0
1.383945319E1;2.629687548E0;3.067259073E0;-2.125043154E0
1.385136413E1;1.714087844E0;3.704984784E-1;-2.143142223E0
1.386327506E1;4.279896319E-1;9.581857920E-2;-2.398658276E0
1.387518756E1;2.448697016E-2;3.651752472E-1;-1.931276679E0
1.388710475E1;4.886747301E-1;1.632109761E0;-9.773494601E-1
1.389901100E1;1.640626907E0;3.147107840E0;2.235766798E-1
1.391092194E1;2.949082851E0;4.699368954E0;1.540549755E0
1.392283288E1;3.429240465E0;4.803704739E0;2.767027617E0
1.393474538E1;3.214180946E0;3.956242561E0;3.719890118E0
1.394665631E1;2.654174566E0;2.377365351E0;4.156396866E0
1.395856881E1;2.497670889E0;-4.599291682E-1;4.411912918E0
1.397047975E1;2.887333155E0;-2.845811605E0;4.377844334E0
1.398239069E1;3.808256149E0;-3.675174713E0;3.780575037E0
1.399430319E1;7.193845749E0;3.911527157E0;3.505895138E0
1.400621881E1;6.997950077E0;8.482072830E0;2.416757345E0
1.401812662E1;4.599291801E0;9.696840286E0;1.635303736E0
1.403003756E1;9.092118144E-1;7.560085773E0;1.409597754E0
1.404195006E1;-2.092038870E0;2.857522964E0;1.128529906E0
1.405386100E1;-2.924595833E0;-5.536184460E-2;1.353171229E0
1.406577819E1;-1.948311090E0;-1.724734306E-1;1.748156667E0
1.407768288E1;-8.006174564E-1;-7.186393142E-1;1.879108787E0
1.408959538E1;-2.438050359E-1;-1.840781331E0;1.732186913E0
1.410150788E1;1.362753063E-1;-2.449761629E0;1.611881375E0
1.411341881E1;5.493598580E-1;-1.912112951E0;1.593782306E0
1.412533131E1;7.239625454E-1;1.182827115E0;1.826940894E0
1.413724225E1;-1.958957613E-1;4.210693836E0;2.120784521E0
1.414915319E1;-7.079927921E-1;3.466503143E0;2.195310116E0
1.416106569E1;-1.001836419E0;2.147400856E0;2.068616629E0
1.417297662E1;-1.162598729E0;1.017806172E0;1.602299571E0
1.418488913E1;-1.135982394E0;5.025151968E-1;9.187936783E-1
1.419680006E1;-1.187085629E0;3.343003690E-1;5.216789246E-2
1.420871100E1;-1.687471628E0;4.482180178E-1;-1.244576812E0
1.422062350E1;-2.045194149E0;-2.299645841E-1;-2.443373680E0
1.423253600E1;-2.479571819E0;-1.404274464E0;-3.617683649E0
1.424444694E1;-2.829841852E0;-1.751350641E0;-4.609938145E0
1.425635788E1;-3.410076618E0;-9.901253134E-2;-6.041893482E0
1.426827038E1;-3.640041113E0;3.634717941E0;-7.933778286E0
1.428018131E1;-1.096590400E0;5.153974533E0;-9.943839073E0
1.429209381E1;7.708072066E-1;1.534161806E0;-9.833115578E0
1.430400788E1;2.778738737E-1;-5.738468170E-1;-6.758403301E0
1.431592194E1;1.256287992E-1;8.730136603E-2;-2.240025282E0
1.432782819E1;2.768092155E-1;4.343775511E-1;-2.863910794E-1
1.433973913E1;-3.236538470E-1;7.452555932E-3;-3.832742944E-2
1.435165162E1;-9.443452954E-1;-1.832264066E0;-4.386361539E-1
1.436356256E1;-1.311649799E0;-3.250379086E0;-7.388677001E-1
1.437548288E1;-1.755609274E0;-4.391684532E0;-8.336216211E-1
1.438738600E1;-1.999414325E0;-4.631231308E0;-7.186393142E-1
1.439929694E1;-1.995155692E0;-4.062707424E0;-4.801575243E-1
1.441120788E1;-1.942987800E0;-3.405817986E0;-1.596976258E-2
1.442312038E1;-1.816294312E0;-2.890527010E0;3.704984784E-1
1.443503288E1;-1.758803129E0;-2.439115047E0;4.939979911E-1
1.444694381E1;-1.643820882E0;-1.632109761E0;4.035026729E-1
1.445885475E1;-1.227542400E0;-4.588645101E-1;2.288999259E-1
1.447076569E1;-6.994755864E-1;-4.897394031E-2;-8.091346174E-2
1.448268600E1;1.380852103E0;-1.872720838E0;-6.025923491E-1
1.449459850E1;2.661627054E0;-3.196081877E0;-5.493598580E-1
1.450650162E1;3.409012079E0;-4.382102966E0;-8.197811246E-2
1.451841256E1;3.362167358E0;-5.257246017E0;1.064650863E-1
1.453032350E1;2.126107693E0;-6.592318058E0;-5.536184460E-2
1.454224069E1;-2.214473784E-1;-6.111095905E0;-2.778738737E-1
1.455414694E1;-3.601713896E0;-1.721540451E0;-5.706528425E-1
1.456605944E1;-3.645364523E0;4.315029621E0;-8.634318113E-1
1.457797038E1;-4.790928662E-1;7.743205547E0;-9.145350456E-1
1.458988288E1;1.440472603E0;4.592903614E0;-9.826727509E-1
1.460179381E1;1.229671717E0;8.794015646E-1;-9.794787765E-1
1.461370475E1;-3.939208016E-2;-6.792472601E-1;-8.794015646E-1
1.462561725E1;-7.154453397E-1;-1.635303736E0;-1.122141957E0
1.463752819E1;-5.323254466E-1;-1.257352591E0;-8.538499475E-1
1.464944069E1;7.729365230E-1;9.965131879E-1;-2.970375717E-1
1.466135163E1;3.334486485E0;3.815708637E0;-2.555162013E-1
1.467326256E1;4.039285183E0;5.276409626E0;9.762848020E-1
1.468517506E1;2.482765675E0;3.981794119E0;2.619040966E0
1.469708756E1;1.083814502E0;2.285805464E0;3.386654377E0
1.470899850E1;8.219104409E-1;3.790156841E-1;3.346197605E0
1.472090944E1;2.269835472E0;-5.355193615E-1;2.993798256E0
1.473282194E1;4.383167744E0;2.167629004E0;3.271672010E0
1.474473288E1;4.444917202E0;3.195017099E0;3.448404074E0
1.475664538E1;3.399430037E0;3.926432371E0;3.007638693E0
1.476855631E1;2.481701136E0;5.127358437E0;1.570359945E0
1.478046725E1;2.172952414E0;6.627451420E0;3.928561509E-1
1.479239225E1;1.426632166E0;8.025338173E0;9.336987734E-1
1.480429069E1;2.054776102E-1;6.415585995E0;2.988474846E0
1.481620319E1;-6.739239693E-1;2.194245338E0;3.778445721E0
1.482811412E1;1.362753063E-1;-2.112267256E0;3.295094252E0
1.484003600E1;2.192116022E0;-2.844747066E0;2.888397694E0
1.485193600E1;2.234702110E0;-2.150594711E0;2.712730408E0
1.486385006E1;6.664714217E-1;-1.298874021E0;2.421015978E0
1.487576100E1;1.064650863E-1;-1.916371465E0;1.895078540E0
1.488767194E1;-2.022836544E-2;-2.764898300E0;1.307391286E0
1.489958600E1;-3.012961745E-1;-2.400787592E0;1.081685305E0
1.491149538E1;-1.308455825E0;6.334672570E-1;1.219025254E0
1.492340631E1;-1.707699895E0;1.562907457E0;1.319102407E0
1.493531881E1;-1.818423629E0;1.156210780E0;1.292486072E0
1.494722975E1;-1.916371465E0;6.004630923E-1;1.228607059E0
1.495914694E1;-2.018578053E0;4.982565939E-1;9.965131879E-1
1.497105319E1;-2.104814768E0;1.628915817E-1;1.650208831E-1
1.498296412E1;-2.253865719E0;-6.398551464E-1;-1.090202451E0
1.499487663E1;-2.529610395E0;-1.568230629E0;-2.614782572E0
1.500678756E1;-2.929919004E0;-2.000478983E0;-4.162784576E0
1.501870944E1;-3.386654377E0;-7.825183868E-1;-5.485081196E0
1.503061100E1;-3.666657448E0;4.241569042E0;-6.905325413E0
1.504252194E1;-2.888397694E0;7.388676643E0;-8.108381271E0
1.505443444E1;9.826727509E-1;7.531340122E0;-6.930876732E0
1.506634538E1;3.311064005E0;4.090388298E0;-3.185435295E0
1.507825788E1;3.887040138E0;3.241861820E0;-8.847248554E-1
1.509017194E1;2.940565586E0;2.458278894E0;-1.018870831E0
1.510208131E1;9.507331848E-1;1.002901077E0;-1.581006527E0
1.511399225E1;-9.581857324E-1;-1.861009717E0;-1.751350641E0
1.512590475E1;-2.166564465E0;-4.485373974E0;-1.626786470E0
1.513781569E1;-3.020414352E0;-6.884032249E0;-1.270128489E0
1.514972663E1;-3.368555307E0;-7.633546352E0;-6.696653962E-1
1.516163912E1;-3.171594858E0;-6.791407585E0;8.197811246E-2
1.517355006E1;-2.710601091E0;-5.864096642E0;6.920230389E-1
1.518546256E1;-2.080327749E0;-5.185914040E0;1.023129463E0
1.519737819E1;-1.392563343E0;-4.245827675E0;1.130659223E0
1.520928444E1;-7.995527983E-1;-3.049160004E0;9.730908871E-1
1.522119694E1;-4.663170576E-1;-2.069681168E0;7.228979468E-1
1.523310788E1;2.416757345E-1;-2.095232964E0;3.492054641E-1
1.524502038E1;1.808841825E0;-3.818902493E0;-1.650208831E-1
1.525693131E1;2.310292244E0;-4.530089378E0;-3.651752472E-1
1.526884381E1;2.451890945E0;-4.557770252E0;-4.886747301E-1
1.528075475E1;2.130366325E0;-4.712144852E0;-5.876872540E-1
1.529266569E1;3.130073547E-1;-4.599291801E0;-5.419072509E-1
1.530457819E1;-1.686406970E0;-2.450826168E0;-3.811450005E-1
1.531648912E1;-3.137526035E0;1.848233819E0;-5.344547033E-1
1.532840163E1;-3.341938972E0;5.371163368E0;-9.826727509E-1
1.534031256E1;-7.111867666E-1;4.623778820E0;-1.452183723E0
1.535222506E1;1.523515344E0;2.843682289E0;-1.847169161E0
1.536413600E1;2.249607325E0;-9.688322544E-1;-2.083521605E0
1.537604850E1;1.340395451E0;-1.960022211E0;-2.465731382E0
1.538795944E1;1.234994978E-1;-7.814537287E-1;-3.029996395E0
1.539987038E1;2.395464331E-1;1.107236862E0;-3.015091181E0
1.541178131E1;6.760532856E-1;4.601420879E0;-2.081392288E0
1.542369381E1;1.793936610E0;7.540921688E0;-6.505016685E-1
1.543560475E1;2.259189129E0;7.197039604E0;1.257352591E0
1.544751725E1;1.555454850E0;5.654360771E0;2.780868053E0
1.545942819E1;6.132388711E-1;3.455856562E0;3.750764847E0
1.547133912E1;7.537727952E-1;5.866225958E-1;4.112746239E0
1.548325163E1;2.302839756E0;-2.210215092E0;4.151073456E0
1.549516256E1;3.927496910E0;-4.435335636E0;4.233051777E0
1.550707975E1;5.682041645E0;-2.315615654E0;4.260732651E0
1.551898600E1;5.839609623E0;9.336987495E0;4.517313480E0
1.553089850E1;3.566580296E0;1.113518333E1;3.364296675E0
1.554280944E1;2.000478983E0;8.955842972E0;8.666257858E-1
1.555472506E1;5.866225958E-1;7.573925972E0;-8.059406877E-1
1.556663288E1;-6.462430358E-1;6.148358822E0;-1.533097178E-1
1.557854381E1;-1.792872071E0;3.676239252E0;2.467860699E0
1.559045631E1;-7.346090674E-1;1.532032609E0;3.645364523E0
1.560236725E1;1.082749963E0;-1.736445546E0;3.118362427E0
1.561427819E1;1.274387002E0;-2.939501047E0;2.415692806E0
1.562619069E1;1.107236862E0;-3.494184017E0;1.912112951E0
1.563810163E1;8.549146056E-1;-4.127651215E0;1.519256711E0
1.565001412E1;1.458571702E-1;-2.417822123E0;1.380852103E0
1.566192506E1;-1.032711267E0;5.227435827E-1;1.475606084E0
1.567384069E1;-1.375528932E0;7.835830450E-1;1.460700989E0
1.568574850E1;-1.514998198E0;2.970375717E-1;1.369140983E0
1.569765944E1;-1.618269324E0;-2.800031602E-1;1.288227558E0
1.570957194E1;-1.694924116E0;-8.229750991E-1;1.214766622E0
1.572149381E1;-1.718346477E0;-1.075297356E0;1.117883325E0
1.573339538E1;-1.668307900E0;-1.130659223E0;9.379574060E-1
1.574530631E1;-1.581006527E0;-1.133853197E0;4.567352235E-1
1.575721881E1;-1.596976280E0;-1.424502850E0;-3.736924529E-1
1.576912975E1;-1.803518534E0;-2.108008623E0;-1.617204666E0
1.578104069E1;-2.138883591E0;-2.523222446E0;-2.937371731E0
1.579295319E1;-2.612653255E0;-2.381623983E0;-4.258603573E0
1.580486413E1;-3.325969219E0;1.265869856E0;-5.387133121E0
1.581677506E1;-3.748635530E0;6.610416889E0;-6.640227318E0
1.582868756E1;-3.131138086E0;9.927868843E0;-6.904260635E0
1.584059850E1;1.950440288E0;8.638576508E0;-3.785898447E0
1.585251100E1;3.739053726E0;2.299645901E0;-2.374171317E-1
1.586442194E1;2.887333155E0;-9.177290201E-1;-1.682148278E-1
1.587633444E1;4.077612758E-1;-1.800324559E0;-1.265869856E0
1.588824538E1;-1.569295287E0;-1.987703085E0;-1.821617603E0
1.590015631E1;-3.032125473E0;-3.258896112E0;-2.040935755E0
1.591207663E1;-3.459050655E0;-4.892070770E0;-1.622527838E0
1.592397975E1;-3.026802301E0;-5.654360771E0;-1.006095052E0
1.593589225E1;-2.333714724E0;-5.939687252E0;-3.651752472E-1
1.594780319E1;-1.989832401E0;-5.784247875E0;3.300417662E-1
1.595971413E1;-1.901466370E0;-5.183784962E0;1.016741514E0
1.597162662E1;-1.986638427E0;-4.843096733E0;1.256287932E0
1.598354069E1;-2.021771908E0;-4.216017246E0;1.299938679E0
1.599544850E1;-1.987703085E0;-3.259960890E0;1.114689469E0
1.600736100E1;-1.688536286E0;-2.492347717E0;7.921002507E-1
1.601927194E1;-7.601606846E-1;-1.722605109E0;2.768092155E-1
1.603119069E1;3.854036033E-1;-1.435149312E0;-1.895078421E-1
1.604309850E1;1.610816717E0;-1.310585141E0;-6.143035293E-1
1.605500788E1;2.708471775E0;-2.448696852E0;-8.740783334E-1
1.606691881E1;3.083228827E0;-4.113811016E0;-9.858666658E-1
1.607882975E1;8.985652924E-1;-2.215538502E0;-6.600835323E-1
1.609074381E1;-1.042293191E0;7.622900009E-1;-4.184077680E-1
1.610265319E1;-2.885203838E0;4.283090115E0;-7.633546591E-1
1.611456569E1;-1.586329699E0;4.151073456E0;-1.353171229E0
1.612647663E1;9.805434346E-1;2.544515610E0;-2.129301786E0
1.613840162E1;2.187857389E0;1.181762442E-1;-2.923531294E0
1.615030006E1;8.847248554E-1;-2.968246460E0;-3.506959915E0
1.616221256E1;-1.043357849E0;-2.803225756E0;-4.025444984E0
1.617412350E1;-2.213409185E0;-4.109552205E-1;-4.401266575E0
1.618603444E1;-1.966410160E0;1.681083679E0;-3.963695049E0
1.619794694E1;-6.888290644E-1;6.057863235E0;-2.459343433E0
1.620985788E1;3.149237156E0;8.681162834E0;-2.981022373E-2
1.622176881E1;3.691144466E0;6.426232338E0;2.111202717E0
1.623368131E1;2.500864744E0;3.362167358E0;2.988474846E0
1.624559225E1;1.582071185E0;6.249500513E-1;3.179047346E0
1.625750475E1;1.639562249E0;-1.832264066E0;3.633653402E0
1.626941569E1;2.689307928E0;-3.908333302E0;4.025444984E0
1.628132819E1;3.883846283E0;-5.376486778E0;4.111681461E0
1.629323912E1;5.291314602E0;-4.647201061E0;4.098905563E0
1.630515162E1;7.317345142E0;6.531632900E0;4.258603573E0
1.631706256E1;4.990018368E0;8.771657944E0;3.297223568E0
1.632897975E1;2.838359118E0;8.591732025E0;1.748156667E0
1.634088600E1;7.931648493E-1;1.017060947E1;5.025151968E-1
1.635279694E1;-4.535412490E-1;8.973941803E0;7.133160532E-2
1.636470944E1;-5.951398015E-1;4.267120361E0;3.119426966E-1
1.637662038E1;2.736152709E-1;-1.450054407E0;1.391498685E0
1.638853288E1;9.816080928E-1;-2.596683502E0;2.171887636E0
1.640044381E1;9.645736814E-1;-1.775837660E0;2.452955484E0
1.641235475E1;4.780282378E-1;-1.349977255E0;2.287934542E0
1.642426569E1;1.415985674E-1;-1.574618578E0;1.922759414E0
1.643617819E1;-6.473076940E-1;4.748342633E-1;1.677889705E0
1.644808913E1;-1.567166090E0;2.910755396E0;1.602299571E0
1.646001569E1;-1.671501875E0;2.798967123E0;1.353171229E0
1.647191412E1;-1.535226464E0;1.923824072E0;1.064650893E0
1.648382506E1;-1.293550730E0;6.707300544E-1;9.092118144E-1
1.649573600E1;-1.025258780E0;-5.195496082E-1;7.952941656E-1
1.650764850E1;-6.302732825E-1;-1.210507989E0;6.036570072E-1
1.651955944E1;-3.204599023E-1;-1.051874995E0;2.374171317E-1
1.653147038E1;-1.122141957E0;1.157275438E0;-3.694338500E-1
1.654338288E1;-1.624657154E0;6.387904882E-1;-1.332942843E0
1.655529381E1;-1.941923141E0;-7.878416181E-1;-2.617976427E0
1.656720788E1;-2.308162928E0;-2.012190104E0;-3.956242561E0
1.657911725E1;-2.742540598E0;-2.424210072E0;-5.291314602E0
1.659102819E1;-3.739053726E0;1.606558084E0;-7.125708103E0
1.660294225E1;-3.428175688E0;5.296638012E0;-8.987782478E0
1.661485162E1;-3.374943137E-1;5.017699242E0;-9.964067459E0
1.662676412E1;7.197039723E-1;2.066487312E0;-7.227914333E0
1.663867506E1;8.432034850E-1;2.027095318E0;-2.542386293E0
1.665060319E1;1.379787445E0;7.889062762E-1;1.256287992E-1
1.666249850E1;7.825183868E-1;-3.300417662E-1;1.490511149E-1
1.667441100E1;-2.555162013E-1;-1.483058572E0;-8.101992607E-1
1.668632662E1;-9.667029381E-1;-2.675467491E0;-1.390434027E0
1.669823288E1;-1.298874021E0;-4.058448792E0;-1.614010692E0
1.671014538E1;-1.414920926E0;-4.711080074E0;-1.493705153E0
1.672205631E1;-1.521386027E0;-4.751536846E0;-1.023129463E0
1.673396881E1;-1.648079515E0;-4.533283234E0;-1.671501845E-1
1.674587975E1;-1.528838634E0;-4.136168480E0;4.918686748E-1
1.675779069E1;-1.330813527E0;-3.933884859E0;9.326341152E-1
1.676970319E1;-1.095525742E0;-3.753958941E0;1.184956431E0
1.678161412E1;-8.581085801E-1;-3.171594858E0;1.236059666E0
1.679352663E1;-5.440365672E-1;-2.304969072E0;1.243512154E0
1.680544225E1;1.064650808E-2;-1.830134749E0;1.241382837E0
1.681735006E1;1.231801033E0;-2.295387268E0;1.193473577E0
1.682926100E1;2.336908579E0;-2.840488434E0;1.122141957E0
1.684117350E1;2.986345530E0;-2.707406998E0;9.677675962E-1
1.685308288E1;1.293550730E0;-1.485187888E0;8.506560326E-1
1.686499694E1;-8.453327417E-1;-7.952941656E-1;4.439594150E-1
1.687690631E1;-1.045487165E0;-5.067738295E-1;-3.406882659E-2
1.688881881E1;-2.398658276E0;1.190279603E0;-8.155225515E-1
1.690072975E1;-2.001543522E0;3.061935902E0;-1.601234913E0
1.691264069E1;2.012190074E-1;4.238375187E0;-2.228314161E0
1.692455944E1;1.640626907E0;-2.374171317E-1;-2.427403927E0
1.693646725E1;1.067844748E0;-2.431662560E0;-1.983444571E0
1.694837662E1;-4.886747301E-1;-1.485187888E0;-1.999414325E0
1.696028756E1;-9.816080928E-1;-1.841845959E-1;-2.143142223E0
1.697219850E1;6.707300246E-2;1.014612198E0;-1.742833376E0
1.698411100E1;1.742833376E0;1.853557110E0;-7.676132321E-1
1.699602194E1;3.788027763E0;4.091453075E0;-8.517206647E-3
1.700793444E1;3.973276854E0;4.319288254E0;1.079555988E0
1.701984538E1;2.990604162E0;4.030767918E0;2.017513275E0
1.703175788E1;1.837587357E0;3.265284061E0;2.860716820E0
1.704366881E1;1.909983635E0;1.560778141E0;3.504830599E0
1.705557975E1;2.793643713E0;-1.114689469E0;3.776316643E0
1.706749225E1;4.029703617E0;-3.007638693E0;3.764605284E0
1.707940319E1;5.786377430E0;2.285805464E0;3.990311384E0
1.709131569E1;3.171594858E0;8.589603424E0;3.970082998E0
1.710322975E1;5.993984342E-1;7.287535191E0;2.915014029E0
1.711513913E1;-1.958957613E-1;3.201405048E0;1.577812552E0
1.712705162E1;4.514119625E-1;8.762076497E-1;1.270128489E0
1.713896256E1;1.557584167E0;5.280668139E-1;1.668307900E0
1.715087350E1;1.986638427E0;1.106172204E0;2.049452782E0
1.716278756E1;1.489446521E0;2.945888758E0;2.284740686E0
1.717469694E1;3.523994386E-1;4.373585701E0;2.414628029E0
1.718660944E1;-3.523994386E-1;2.658433199E0;2.087780237E0
1.719852038E1;-5.642649531E-2;-5.930105448E-1;1.708764553E0
1.721043288E1;2.938436270E-1;-1.999414325E0;1.437278628E0
1.722236413E1;-2.235766798E-1;7.463202477E-1;1.375528932E0
1.723425475E1;-7.133160830E-1;2.243219376E0;1.316973090E0
1.724616569E1;-5.823640227E-1;1.051874995E0;1.068909407E0
1.725807819E1;-4.876100719E-1;-5.089030862E-1;7.995527983E-1
1.726998913E1;-8.527853489E-1;-7.867769599E-1;4.077612758E-1
1.728190788E1;-1.965345502E0;8.293629885E-1;-3.236538470E-1
1.729381412E1;-2.257059813E0;5.451012254E-1;-1.171115875E0
1.730572350E1;-2.428468466E0;-6.089802980E-1;-2.220861673E0
1.731763600E1;-2.716989040E0;-1.559713483E0;-3.228021383E0
1.732954694E1;-3.166271687E0;-2.597748041E0;-4.425753593E0
1.734146725E1;-3.623006821E0;-3.111974478E0;-5.622421265E0
1.735337038E1;-4.187271595E0;4.471533597E-1;-7.719783306E0
1.736528600E1;-3.264219522E0;5.950333595E0;-1.017699718E1
1.737719381E1;-8.251044154E-1;7.177875996E0;-1.069228840E1
1.738910475E1;1.095525742E0;6.165392876E0;-5.070931911E0
1.740101569E1;1.967474699E0;4.582257271E0;-1.240318179E0
1.741292819E1;1.738574862E0;1.420244217E0;-2.416757345E-1
1.742483913E1;1.177503824E0;-1.565036774E0;-6.973463297E-1
1.743675788E1;2.746799290E-1;-3.445210218E0;-1.222219110E0
1.744866256E1;-8.144578934E-1;-5.018764019E0;-1.529903293E0
1.746058913E1;-1.711958528E0;-6.001436710E0;-1.633174419E0
1.747248913E1;-2.208085775E0;-6.302732944E0;-1.339330792E0
1.748439850E1;-2.154853344E0;-5.897100925E0;-6.675360799E-1
1.749630944E1;-1.779031515E0;-5.495727539E0;1.692794859E-1
1.750822194E1;-1.414920926E0;-4.961272717E0;8.080700040E-1
1.752013131E1;-1.161534071E0;-4.302254200E0;1.096590400E0
1.753204381E1;-1.107236862E0;-3.092810631E0;1.025258780E0
1.754395475E1;-1.094461083E0;-2.066487312E0;8.144578934E-1
1.755586725E1;-4.173431396E-1;-1.631045103E0;6.260147095E-1
1.756777819E1;1.036969900E0;-1.788613439E0;7.143807411E-1
1.757969069E1;3.010832548E0;-2.358201504E0;8.644964695E-1
1.759160163E1;4.600356102E0;-3.085358143E0;7.676132321E-1
1.760351412E1;4.969789982E0;-3.577226877E0;6.355965734E-1
1.761542506E1;1.209443331E0;-5.643713951E0;4.439594150E-1
1.762733756E1;-1.029517412E0;-4.818609715E0;3.428175747E-1
1.763924850E1;-2.734023333E0;-3.715631366E-1;1.139176413E-1
1.765116100E1;-3.482472897E0;2.485959768E0;-2.757445574E-1
1.766307194E1;-1.232865691E0;2.935242414E0;-5.099677444E-1
1.767498288E1;5.802347064E-1;2.900108814E0;-7.697425485E-1
1.768689538E1;7.069281340E-1;1.122141957E0;-1.292486072E0
1.769880631E1;-6.675360799E-1;-1.522450745E-1;-1.173245192E0
1.771071725E1;-1.793936610E0;7.452555932E-3;-1.212637305E0
1.772262975E1;-1.789678097E0;5.195496082E-1;-1.442601919E0
1.773454069E1;-5.525537729E-1;1.673631072E0;-9.581857324E-1
1.774645319E1;4.702562809E0;6.305926800E0;-5.440365672E-1
1.775836569E1;6.460301399E0;7.807084560E0;2.076069117E-1
1.777028131E1;3.349391460E0;5.672459602E0;1.245641470E0
1.778218756E1;-6.494370103E-2;3.259960890E0;2.271964788E0
1.779409850E1;-1.072103381E0;8.836601973E-1;3.109845161E0
1.780601100E1;4.780282378E-1;-2.203827143E0;3.642170429E0
1.781792194E1;2.708471775E0;-4.005216599E0;3.805062056E0
1.782983444E1;4.489632607E0;-3.517606258E0;3.925367594E0
1.784174538E1;6.642356396E0;2.535998344E0;4.605679512E0
1.785365631E1;5.540442944E0;6.631710052E0;4.537541866E0
1.786556881E1;3.360038042E0;7.906096935E0;2.823454142E0
1.787748131E1;1.952569604E0;8.430970192E0;9.028239250E-1
1.788939225E1;4.780282378E-1;8.121156693E0;-2.469989955E-1
1.790130319E1;-3.502701223E-1;5.362646103E0;-1.607622802E-1
1.791321412E1;-7.857123017E-1;3.704984784E-1;1.528838634E0
1.792512662E1;1.277581006E-1;-2.043065071E0;2.998056650E0
1.793703756E1;9.230522513E-1;-1.916371465E0;3.171594858E0
1.794894850E1;6.270793676E-1;-1.325490236E0;2.635010719E0
1.796086100E1;4.695110321E-1;-2.372042179E0;1.888690591E0
1.797277194E1;3.598519862E-1;-2.839423895E0;1.321231723E0
1.798468444E1;-7.260918617E-1;4.013733566E-1;1.212637305E0
1.799659538E1;-1.620398521E0;2.647786617E0;1.400015831E0
1.800850631E1;-1.625721812E0;2.220861673E0;1.410662413E0
1.802041881E1;-1.420244217E0;1.069974065E0;1.355300546E0
1.803232975E1;-1.203055501E0;7.665485889E-2;1.255223393E0
1.804424225E1;-9.294402003E-1;-5.887519121E-1;9.336987734E-1
1.805615475E1;-7.654839754E-1;-1.234994978E-1;4.045673311E-1
1.806806569E1;-1.286098242E0;1.946181774E0;-3.907268643E-1
1.807999538E1;-1.680019021E0;2.034547806E0;-1.394692659E0
1.809188912E1;-1.911048293E0;8.421388268E-1;-2.403981686E0
1.810380006E1;-2.304969072E0;-5.770407319E-1;-3.556998491E0
1.811571725E1;-2.644592762E0;-1.653402805E0;-4.562028885E0
1.812762350E1;-3.008703232E0;-2.475313187E0;-5.795958996E0
1.813953444E1;-3.249314308E0;9.741555452E-1;-7.879480839E0
1.815144694E1;-1.439407945E0;5.142263412E0;-9.702162743E0
1.816335788E1;1.980250627E-1;3.058741808E0;-7.725106716E0
1.817527038E1;2.629687488E-1;1.886561275E0;-3.548481226E0
1.818718288E1;6.920230389E-1;3.449468613E-1;-7.101221085E-1
1.819909381E1;1.087008476E0;-1.287162900E0;-2.129301662E-3
1.821100475E1;7.292858362E-1;-1.609752059E0;-7.090574503E-1
1.822291569E1;2.448696941E-1;-1.868462205E0;-1.304197311E0
1.823482819E1;1.064650831E-3;-2.533869028E0;-1.607622743E0
1.824673912E1;-2.746799290E-1;-3.377072573E0;-1.623592496E0
1.825865006E1;-5.972691178E-1;-3.248249769E0;-1.223283768E0
1.827056256E1;-1.015676856E0;-2.900108814E0;-4.258603454E-1
1.828247350E1;-1.250964761E0;-3.029996395E0;3.854036033E-1
1.829438600E1;-1.120012641E0;-3.065129757E0;1.023129463E0
1.830629694E1;-8.070053458E-1;-3.123685598E0;1.309520483E0
1.831820944E1;-5.578770638E-1;-3.266348839E0;1.401080489E0
1.833012038E1;-3.662398756E-1;-3.228021383E0;1.435149312E0
1.834203131E1;-1.724734306E-1;-3.017220497E0;1.456442356E0
1.835394381E1;4.301189482E-1;-2.622235060E0;1.486252546E0
1.836585475E1;1.104042888E0;-1.981315255E0;1.554390192E0
1.837776725E1;1.560778141E0;-2.002608299E0;1.661919951E0
1.838967819E1;1.791807413E0;-2.309227705E0;1.648079515E0
1.840158912E1;1.571424603E0;-2.271964788E0;1.355300546E0
1.841350163E1;6.270793676E-1;-1.177503824E0;6.792472601E-1
1.842541412E1;-1.549067020E0;1.367011666E0;-1.192408949E-1
1.843732506E1;-2.966117144E0;4.115940094E0;-1.139176369E0
1.844923600E1;-9.720262289E-1;4.826062202E0;-1.753479958E0
1.846114850E1;1.150887609E0;3.552739859E0;-2.330520630E0
1.847306569E1;8.868541718E-1;-3.545287251E-1;-2.701019287E0
1.848497194E1;-8.197811246E-2;-1.687471628E0;-2.778738737E0
1.849688288E1;-5.440365672E-1;-1.397886515E0;-3.047030687E0
1.850879381E1;-1.064650831E-3;-8.176518679E-1;-2.771286249E0
1.852070631E1;4.056319594E-1;2.080327749E0;-2.012190104E0
1.853261725E1;1.154081464E0;4.750472069E0;-4.258603230E-2
1.854452819E1;1.595911622E0;5.276409626E0;2.570067167E0
1.855643912E1;1.357429862E0;3.586808681E0;3.644299746E0
1.856835163E1;7.154453397E-1;9.411513209E-1;3.788027763E0
1.858026256E1;9.784141183E-1;-1.766255736E0;3.569774151E0
1.859217506E1;2.053711414E0;-4.181948662E0;3.811450005E0
1.860408600E1;3.604907751E0;-5.547895432E0;3.937078714E0
1.861599850E1;4.948497295E0;-3.162013054E0;3.921108961E0
1.862790944E1;4.984695435E0;2.887333155E0;3.764605284E0
1.863982194E1;3.288706541E0;4.082935810E0;3.111974478E0
1.865173288E1;1.785419464E0;4.876101017E0;2.183598757E0
1.866364538E1;1.324425697E0;7.177875996E0;1.665113926E0
1.867556412E1;1.309520483E0;7.488753796E0;1.617204666E0
1.868746725E1;1.055068970E0;4.716403008E0;1.638497591E0
1.869937975E1;4.631231129E-1;6.387905218E-3;1.524580002E0
1.871129850E1;7.026695460E-2;-2.517899275E0;1.349977255E0
1.872320319E1;-4.258603323E-3;-2.209150553E0;1.273322463E0
1.873511569E1;-1.831199378E-1;-1.708764553E0;1.083814502E0
1.874702662E1;-3.311064243E-1;-1.727928281E0;8.144578934E-1
1.875893756E1;-2.991668880E-1;-1.307391286E0;6.600835323E-1
1.877084850E1;-2.203827202E-1;5.440365672E-1;8.080700040E-1
1.878276100E1;-4.929333329E-1;2.106944084E0;1.092331767E0
1.879467350E1;-7.878416181E-1;1.963216186E0;1.277580976E0
1.880658444E1;-9.677675962E-1;1.376593590E0;1.315908432E0
1.881849538E1;-1.046551824E0;5.014505386E-1;1.124271274E0
1.883040631E1;-9.879959822E-1;-1.011418328E-1;7.431262732E-1
1.884232038E1;-8.251044154E-1;-5.898165703E-1;4.258603230E-2
1.885422975E1;-7.431262732E-1;-4.748342633E-1;-1.081685305E0
1.886614225E1;-1.413856268E0;9.539271593E-1;-2.282611370E0
1.887805319E1;-1.904660344E0;5.972691178E-1;-3.172659397E0
1.888996413E1;-2.265577078E0;-2.480636388E-1;-3.746506214E0
1.890187662E1;-2.665885687E0;-1.110430837E0;-4.381038189E0
1.891378756E1;-3.160948277E0;-1.896143198E0;-5.251922607E0
1.892570006E1;-3.552739859E0;-1.388304710E0;-6.347448349E0
1.893761100E1;-2.110137939E0;4.788799286E0;-7.918872833E0
1.894952194E1;-4.258603323E-3;4.391684532E0;-7.507917881E0
1.896143600E1;6.590188742E-1;2.365654230E0;-3.808256149E0
1.897334538E1;9.209229946E-1;6.015277505E-1;-5.951398015E-1
1.898525788E1;7.303504944E-1;-2.493412256E0;4.684463739E-1
1.899716881E1;-2.129301615E-2;-3.910462618E0;1.032711342E-1
1.900908600E1;-4.993212521E-1;-3.305740833E0;-5.536184311E-1
1.902099225E1;-7.495141625E-1;-3.127944231E0;-9.986425042E-1
1.903290319E1;-7.740011811E-1;-3.113039017E0;-1.082749963E0
1.904481569E1;-4.375714958E-1;-2.545580149E0;-8.325569630E-1
1.905672662E1;-6.494370103E-2;-1.691730142E0;-2.161241174E-1
1.906863756E1;-1.043357849E-1;-1.319102407E0;4.588645101E-1
1.908055319E1;-2.821324766E-1;-1.335072160E0;9.124057889E-1
1.909247350E1;-3.449468613E-1;-1.490511179E0;1.190279603E0
1.910437350E1;-2.597748041E-1;-1.838652015E0;1.207314014E0
1.911628444E1;-1.948311031E-1;-2.234702110E0;1.047616482E0
1.912819694E1;-2.736152709E-1;-2.565808535E0;8.485267162E-1
1.914010788E1;-2.821324766E-1;-2.857522964E0;6.739239693E-1
1.915201881E1;-9.794788063E-2;-2.728700161E0;5.759761333E-1
1.916393131E1;3.651752472E-1;-2.284740686E0;6.536956429E-1
1.917584381E1;1.205184698E0;-1.736445546E0;7.771950960E-1
1.918775475E1;1.685342312E0;-1.431955338E0;7.303504944E-1
1.919966569E1;1.301003337E0;3.098133802E-1;4.194724262E-1
1.921157819E1;-1.097655058E0;5.581964493E0;-5.227435827E-1
1.922348912E1;-1.296744704E0;7.586701870E0;-1.557584167E0
1.923540162E1;4.620584548E-1;5.382874489E0;-2.003672838E0
1.924732038E1;7.133160830E-1;1.166857362E0;-2.295387268E0
1.925922506E1;4.152138159E-2;-1.891884565E0;-2.285805464E0
1.927113600E1;-8.538499475E-1;-2.547709465E0;-1.810971022E0
1.928304694E1;-9.730908871E-1;-1.302067995E0;-1.791807413E0
1.929495944E1;1.543743759E-1;1.652338147E0;-2.191051483E0
1.930687194E1;1.151952267E0;4.730243683E0;-2.114396572E0
1.931878131E1;2.185728073E0;6.985174179E0;-4.684463739E-1
1.933069381E1;1.232865691E0;4.619520187E0;1.788613439E0
1.934260475E1;-1.990897059E-1;2.267706394E0;2.606265306E0
1.935451725E1;-1.056133628E0;-6.877644658E-1;2.572196484E0
1.936642819E1;-6.856351495E-1;-3.305740833E0;2.769156933E0
1.937834225E1;7.484495640E-1;-5.329642296E0;3.561257124E0
1.939025162E1;2.166564465E0;-6.444331646E0;3.989246607E0
1.940216256E1;3.237603188E0;-6.633839607E0;3.913656473E0
1.941407506E1;3.879587650E0;-5.430783749E0;3.685821295E0
1.942598600E1;5.281733036E0;1.291421413E0;3.747570992E0
1.943789850E1;4.289478302E0;5.313672543E0;3.618748188E0
1.944980944E1;2.742540598E0;5.715045929E0;3.230150700E0
1.946172194E1;1.834393382E0;7.566473484E0;2.890527010E0
1.947363288E1;1.972797990E0;9.047402382E0;2.742540598E0
1.948554381E1;2.084586382E0;7.167229652E0;2.683984756E0
1.949745475E1;1.577812552E0;2.924595833E0;2.443373680E0
1.950936725E1;1.043357849E-1;-1.510739565E0;1.935535192E0
1.952127819E1;-4.152138233E-1;-2.216603041E0;1.420244217E0
1.953319069E1;-4.375714958E-1;-2.686114073E0;6.398551464E-1
1.954510788E1;-3.566580415E-1;-3.103457212E0;-4.152138159E-2
1.955701569E1;-2.363524884E-1;-2.468925238E0;-4.333128929E-1
1.956892506E1;-8.570439219E-1;8.261690736E-1;-7.452555746E-2
1.958083756E1;-1.175374508E0;1.681083679E0;5.099677444E-1
1.959274850E1;-1.224348426E0;1.016741514E0;8.410741687E-1
1.960466100E1;-1.196667552E0;4.790928960E-2;8.996299505E-1
1.961657194E1;-1.078491330E0;-8.368155360E-1;7.644193172E-1
1.962848288E1;-8.772723079E-1;-1.439407945E0;2.938436270E-1
1.964039381E1;-7.133160830E-1;-1.627851129E0;-6.174975038E-1
1.965230631E1;-7.771950960E-1;-1.467088819E0;-1.798195243E0
1.966422506E1;-1.125335932E0;-1.287162900E0;-2.712730408E0
1.967612975E1;-1.714087844E0;-1.019935489E0;-3.443080902E0
1.968804069E1;-2.326261997E0;-9.092118144E-1;-4.234116554E0
1.969995319E1;-3.090681314E0;-6.206914186E-1;-5.209336758E0
1.971186569E1;-4.136168480E0;1.159404755E0;-6.162199020E0
1.972378288E1;-4.120198727E0;6.506081104E0;-6.902131557E0
1.973568756E1;-1.695988774E0;8.891963959E0;-6.014212608E0
1.974760006E1;1.883367300E0;5.380745411E0;-3.364296675E0
1.975951100E1;2.779803276E0;1.116818786E0;-6.813765168E-1
1.977142194E1;1.537355781E0;-1.952569604E0;-3.268478215E-1
1.978333444E1;2.555162087E-2;-2.708471775E0;-7.952941656E-1
1.979524694E1;-8.495913744E-1;-2.932048321E0;-1.191344261E0
1.980715631E1;-1.320167065E0;-3.446274757E0;-1.225413084E0
1.981906881E1;-1.296744704E0;-3.528252840E0;-9.794787765E-1
1.983097975E1;-1.018870831E0;-3.570838928E0;-3.854036033E-1
1.984289381E1;-7.857123017E-1;-3.385589600E0;2.757445574E-1
1.985480475E1;-8.368155360E-1;-3.124750137E0;9.251815677E-1
1.986671412E1;-1.178568482E0;-2.890527010E0;1.468153477E0
1.987862663E1;-1.377658129E0;-2.652045250E0;1.735380888E0
1.989053756E1;-1.357429862E0;-2.661627054E0;1.810971022E0
1.990244850E1;-1.196667552E0;-2.851135015E0;1.761997104E0
1.991436100E1;-9.006946087E-1;-3.226956606E0;1.659790635E0
1.992627194E1;-2.469989955E-1;-3.466503143E0;1.453248382E0
1.993818444E1;7.026695609E-1;-2.779803276E0;1.225413084E0
1.995009694E1;1.323361039E0;-6.004630923E-1;1.088073134E0
1.996200788E1;1.433019996E0;4.812221825E-1;8.794015646E-1
1.997391881E1;1.098719716E0;7.207686305E-1;4.620584548E-1
1.998582975E1;7.026695460E-2;1.939793825E0;-1.596976221E-1
1.999774225E1;-1.266934514E0;3.756088257E0;-1.168986678E0
2.000965319E1;-6.898937225E-1;3.663463593E0;-1.980250597E0
2.002156412E1;4.631231129E-1;2.693566561E0;-2.356072426E0
2.003347663E1;1.072103381E0;1.691730142E0;-2.740411282E0
2.004538756E1;5.930105448E-1;-1.724734306E0;-2.934177637E0
2.005730006E1;-2.959729433E-1;-3.735859871E0;-2.537062883E0
2.006921100E1;-1.092331767E0;-2.810678244E0;-2.566873074E0
2.008112350E1;-1.463894963E0;2.822389364E0;-3.240797043E0
2.009303444E1;1.192408949E-1;2.198503971E0;-3.169465542E0
2.010494694E1;2.445502996E0;5.701205254E0;-2.668015003E0
2.011685788E1;2.160176516E0;3.511218548E0;-6.494370103E-2
2.012876881E1;9.784141183E-1;2.794708490E0;2.397593737E0
2.014068131E1;1.107236892E-1;1.822682261E0;3.413270712E0
2.015259381E1;-1.181762442E-1;-4.854807854E-1;3.667722225E0
2.016450475E1;7.271565199E-1;-3.041707516E0;3.760346651E0
2.017641569E1;1.999414325E0;-4.725985050E0;3.922173738E0
2.018832819E1;3.449468613E0;-5.650102139E0;3.875329018E0
2.020023912E1;4.764312744E0;-3.463309288E0;3.791221619E0
2.021215162E1;4.951691151E0;3.512283087E0;3.638976574E0
2.022406256E1;3.159883738E0;4.632295609E0;3.143913984E0
2.023597350E1;1.695988774E0;3.987117290E0;2.663756371E0
2.024788600E1;1.176439166E0;5.830028057E0;2.373106718E0
2.025980319E1;1.857815742E0;6.490111351E0;2.468925238E0
2.027170944E1;2.110137939E0;5.271086216E0;2.561549902E0
2.028362038E1;1.655532002E0;2.926725149E0;2.385882616E0
2.029553131E1;1.191344261E0;9.060178399E-1;2.078198433E0
2.030744381E1;9.358280897E-1;4.450240433E-1;1.706635356E0
2.031935475E1;2.853264213E-1;1.089137793E0;1.160469413E0
2.033126725E1;-1.181762442E-1;-1.501157731E-1;4.737696350E-1
2.034317819E1;-5.323254038E-3;-2.508317471E0;-3.193952516E-2
2.035508913E1;2.225120217E-1;-3.821031809E0;-5.855579674E-2
2.036700162E1;-2.501929402E-1;-1.766255736E0;4.173431396E-1
2.037891256E1;-1.426632166E0;2.214473724E0;1.108301520E0
2.039082350E1;-1.408533096E0;1.914242268E0;1.231801033E0
2.040273600E1;-1.316973090E0;1.125335932E0;1.026323438E0
2.041464694E1;-1.183891773E0;1.692794859E-1;5.823640227E-1
2.042655944E1;-1.024194121E0;-5.642649531E-1;-1.490511149E-1
2.043847038E1;-1.043357849E0;-1.026323438E0;-1.182827115E0
2.045038288E1;-1.316973090E0;-1.274387002E0;-2.213409185E0
2.046229381E1;-1.793936610E0;-1.518192053E0;-3.054483175E0
2.047420475E1;-2.496606112E0;-1.707699895E0;-3.948790073E0
2.048611725E1;-3.298288345E0;-1.311649799E0;-5.036863327E0
2.049802975E1;-4.239439487E0;1.355300546E0;-6.334672451E0
2.050994225E1;-4.121263504E0;5.651166439E0;-7.716589451E0
2.052185162E1;-1.554390192E0;7.850735188E0;-7.760240078E0
2.053376256E1;1.104042888E0;4.903781891E0;-5.068802834E0
2.054567506E1;1.690665483E0;1.454313040E0;-1.075297356E0
2.055758912E1;9.698969126E-1;-1.238188982E0;5.216789246E-2
2.056949850E1;-1.128529906E-1;-2.716989040E0;-2.129301727E-1
2.058141100E1;-8.442681432E-1;-2.958664656E0;-7.750658393E-1
2.059332194E1;-1.059327602E0;-2.986345530E0;-1.106172204E0
2.060523288E1;-9.997071624E-1;-2.811742783E0;-1.148758292E0
2.061714538E1;-8.921774030E-1;-2.753187180E0;-9.336987734E-1
2.062906256E1;-4.737696350E-1;-2.598812819E0;-6.079156399E-1
2.064096725E1;-7.346090674E-2;-2.511511326E0;-1.213701963E-1
2.065287975E1;-8.517206460E-2;-2.433791876E0;5.876872540E-1
2.066479069E1;-3.555933833E-1;-2.200633287E0;1.240318179E0
2.067670319E1;-5.983337760E-1;-2.082457066E0;1.529903293E0
2.068861412E1;-7.771950960E-1;-2.154853344E0;1.481993914E0
2.070052506E1;-8.538499475E-1;-2.347555161E0;1.327619553E0
2.071243756E1;-5.110324025E-1;-2.556226730E0;1.140241027E0
2.072434850E1;4.311835766E-1;-2.464666605E0;9.496685266E-1
2.073626569E1;1.234995008E0;-1.468153477E0;8.016820550E-1
2.074817506E1;1.529903293E0;-1.565036774E-1;6.260147095E-1
2.076008444E1;1.396821856E0;-4.801575243E-1;3.758217394E-1
2.077199538E1;6.749886274E-1;-1.700247407E0;-1.054004356E-1
2.078390631E1;-2.132495642E0;-2.010060787E0;-1.072103381E0
2.079581881E1;-2.464666605E0;-8.314923048E-1;-2.175081730E0
2.080772975E1;-6.654067636E-1;3.472891092E0;-3.182241440E0
2.081964225E1;5.014505386E-1;2.808548927E0;-3.561257124E0
2.083156100E1;-1.788613349E-1;7.867769599E-1;-3.225892067E0
2.084346412E1;-1.345718622E0;2.153788567E0;-2.749993086E0
2.085537662E1;-1.623592496E0;6.695589066E0;-2.856458187E0
2.086728913E1;-1.043357849E-1;5.397779942E0;-2.463602066E0
2.087919850E1;1.756673932E0;4.311835766E0;-1.848233819E0
2.089111100E1;2.399723053E0;2.543450832E0;-5.791700482E-1
2.090302350E1;1.854621768E0;4.918686748E-1;1.474541426E0
2.091493444E1;1.258417249E0;-4.833514690E-1;2.690372705E0
2.092684538E1;1.142370343E0;-1.197732210E0;3.634717941E0
2.093875631E1;1.342524767E0;-1.766255736E0;4.315029621E0
2.095066881E1;1.620398521E0;-2.372042179E0;4.511990070E0
2.096258131E1;2.363524914E0;-3.657075644E0;4.621649265E0
2.097449225E1;3.273801327E0;-4.087194443E0;4.375714779E0
2.098640475E1;4.476856709E0;-1.153016806E0;3.824225903E0
2.099831412E1;4.285219669E0;2.812807560E0;2.779803276E0
2.101022662E1;3.220568895E0;4.346969604E0;1.544808388E0
2.102213913E1;2.000478983E0;5.797023773E0;1.128529906E0
2.103405631E1;9.379574060E-1;6.601899624E0;1.321231723E0
2.104596569E1;2.491282970E-1;5.804476261E0;1.645950198E0
2.105787350E1;9.155996889E-2;3.315322638E0;2.035612345E0
2.106978444E1;4.577998519E-1;7.527081370E-1;2.269835472E0
2.108169694E1;7.069281340E-1;-1.298874021E0;2.292193174E0
2.109362194E1;3.534640670E-1;-2.210215092E0;2.137818813E0
2.110551881E1;1.586329788E-1;-2.662691832E0;1.791807413E0
2.111745006E1;2.342231870E-1;-2.995927572E0;1.358494520E0
2.112934225E1;0.000000000E0;-2.185728073E0;9.432806373E-1
2.114125475E1;-1.095525742E0;9.422159791E-1;9.134704471E-1
2.115317350E1;-1.400015831E0;1.295680046E0;9.443452954E-1
2.116507819E1;-1.329748869E0;6.047216654E-1;9.251815677E-1
2.117700006E1;-1.192408919E0;-1.192408949E-1;8.634318113E-1
2.118890006E1;-1.073168039E0;-6.079156399E-1;7.292858362E-1
2.120081256E1;-1.128529906E0;-2.310292274E-1;4.407654405E-1
2.121272350E1;-1.835458040E0;1.810971022E0;-2.661627233E-1
2.122463600E1;-2.000478983E0;1.260546565E0;-1.282904267E0
2.123654694E1;-2.077133894E0;-6.387905218E-3;-2.597748041E0
2.124845944E1;-2.213409185E0;-1.158340096E0;-3.668786764E0
2.126037038E1;-2.474248648E0;-2.229378939E0;-4.990018368E0
2.127230006E1;-2.938436270E0;-6.206914186E-1;-6.042958260E0
2.128419381E1;-2.925660610E0;5.545766354E0;-7.479172230E0
2.129610475E1;-1.227542400E0;6.691330433E0;-7.620770931E0
2.130801725E1;2.949082851E-1;3.219504118E0;-5.100742340E0
2.131992819E1;1.362753063E-1;4.418300986E-1;-1.030582070E0
2.133184069E1;-3.364296556E-1;-2.141012907E0;3.406882659E-2
2.134375163E1;-7.484495640E-1;-3.289771080E0;-8.730136603E-2
2.135566256E1;-9.688322544E-1;-2.493412256E0;-5.120970607E-1
2.136757506E1;-1.034840584E0;-1.607622743E0;-1.104042888E0
2.137948600E1;-1.072103381E0;-1.871656179E0;-1.276516318E0
2.139140006E1;-1.032711267E0;-2.228314161E0;-9.730908871E-1
2.140330944E1;-7.846476436E-1;-2.064357996E0;-2.789385319E-1
2.141522038E1;-5.376486778E-1;-1.873785496E0;4.311835766E-1
2.142713288E1;-4.833514690E-1;-2.002608299E0;1.182827115E0
2.143904381E1;-4.588645101E-1;-2.102685452E0;1.690665483E0
2.145095475E1;-4.897393882E-1;-2.134624958E0;1.888690591E0
2.146286881E1;-5.365840197E-1;-2.292193174E0;1.876979470E0
2.147477819E1;-5.887519121E-1;-2.611588478E0;1.746027350E0
2.148669069E1;-4.013733566E-1;-2.976763725E0;1.577812552E0
2.149860163E1;2.917143404E-1;-3.137526035E0;1.419179559E0
2.151051256E1;1.143435001E0;-2.777673960E0;1.339330792E0
2.152242506E1;1.763061762E0;-1.715152502E0;1.228607059E0
2.153433600E1;1.540549755E0;-3.981794119E-1;1.026323438E0
2.154624850E1;2.054776102E-1;2.712730408E0;4.247956872E-1
2.155815944E1;-1.855686426E0;6.128130436E0;-7.921002507E-1
2.157007038E1;-8.432034850E-1;4.072289467E0;-1.666178584E0
2.158198444E1;4.971919358E-1;2.318809509E0;-2.076069117E0
2.159389538E1;1.082749963E0;1.456442356E0;-2.573261023E0
2.160580631E1;4.450240433E-1;-1.571424603E0;-3.026802301E0
2.161771725E1;-5.291314721E-1;-1.985573769E0;-3.278059959E0
2.162963444E1;-1.064650893E0;4.918686748E-1;-3.563386440E0
2.164154069E1;-7.846476436E-1;2.127172470E0;-3.496313334E0
2.165346881E1;-4.705756605E-1;3.826355219E0;-2.274094105E0
2.166536412E1;-7.346090674E-2;3.343003750E0;-2.555162087E-2
2.167727662E1;3.875329196E-1;2.889462471E0;3.338745117E0
2.168918913E1;6.015277505E-1;1.241382837E0;4.976178169E0
2.170110006E1;5.014505386E-1;-1.302067995E0;5.251922607E0
2.171301100E1;8.144578934E-1;-3.823161125E0;4.532218456E0
2.172492350E1;1.727928281E0;-5.437171936E0;3.756088257E0
2.173683444E1;2.701019287E0;-6.884032249E0;3.541028738E0
2.174875162E1;3.585744143E0;-7.709136963E0;3.473955631E0
2.176065788E1;4.342710972E0;-7.580314159E0;3.191823244E0
2.177256881E1;6.082350254E0;-4.783476353E0;2.836229801E0
2.178447975E1;7.861382008E0;3.521864891E0;2.926725149E0
2.179639069E1;5.393521309E0;9.012269020E0;3.047030687E0
2.180830319E1;2.650980473E0;1.123632526E1;2.813872099E0
2.182021412E1;1.466024160E0;9.779882431E0;2.294322491E0
2.183212662E1;9.486039281E-1;3.346197605E0;1.846104503E0
2.184403913E1;-2.491282970E-1;-2.071810484E0;1.425567508E0
2.185595006E1;-7.910355926E-1;-3.609166384E0;1.008224368E0
2.186786100E1;-6.324025989E-1;-3.370684624E0;4.876100719E-1
2.187977194E1;-3.662398756E-1;-2.306033611E0;-7.026695460E-2
2.189168444E1;-1.479864717E-1;9.241169095E-1;-5.419072509E-1
2.190359538E1;-2.512575984E-1;3.841260195E0;-9.336987734E-1
2.191550631E1;-4.120198786E-1;4.436399937E0;-1.175374508E0
2.192741881E1;-5.600063205E-1;3.939208031E0;-1.170051217E0
2.193932975E1;-6.292086244E-1;2.835165262E0;-7.889062762E-1
2.195124225E1;-7.793244123E-1;1.379787445E0;-1.692794859E-1
2.196315319E1;-8.879188299E-1;3.577226698E-1;2.725506127E-1
2.197506569E1;-8.740783334E-1;-8.410741389E-2;3.225892186E-1
2.198697975E1;-1.206249356E0;8.293629885E-1;-5.280668139E-1
2.199891256E1;-1.779031515E0;1.193473577E0;-1.801389217E0
2.201080006E1;-2.080327749E0;2.544515431E-1;-2.926725149E0
2.202271100E1;-2.237895966E0;-4.865454435E-1;-3.767799377E0
2.203462350E1;-2.291128635E0;-5.674588680E-1;-4.886747360E0
2.204653756E1;-1.870591521E0;1.242447495E0;-5.538313866E0
2.205844538E1;-6.898937225E-1;1.137047052E0;-6.094061375E0
2.207035788E1;-6.856351495E-1;-1.265869856E0;-5.274280071E0
2.208227038E1;-1.250964761E0;-2.326261997E0;-2.389076471E0
2.209418444E1;-4.577998519E-1;-1.088073134E0;7.484495640E-1
2.210609381E1;1.447925121E-1;-1.211572647E0;6.877644658E-1
2.211800475E1;-8.943066746E-2;-1.688536286E0;-6.089802980E-1
2.212991569E1;-6.217560768E-1;-1.775837660E0;-1.555454850E0
2.214182819E1;-1.108301520E0;-2.026030540E0;-1.946181774E0
2.215373912E1;-1.557584167E0;-3.118362427E0;-1.898272395E0
2.216565319E1;-1.681083679E0;-3.784833670E0;-1.391498685E0
2.217756256E1;-1.276516318E0;-3.566580296E0;-6.781826019E-1
2.218947350E1;-1.000771761E0;-3.295094252E0;-1.085943878E-1
2.220138600E1;-1.075297356E0;-2.928854465E0;4.290542901E-1
2.221329694E1;-1.096590400E0;-2.427403927E0;6.984109282E-1
2.222520788E1;-1.046551824E0;-2.376300573E0;6.664714217E-1
2.223712038E1;-1.213701963E0;-2.578584433E0;4.056319594E-1
2.224903131E1;-1.305261970E0;-2.653109789E0;8.943066746E-2
2.226094381E1;-7.889062762E-1;-2.424210072E0;-2.331585288E-1
2.227285475E1;3.960501254E-1;-1.953634262E0;-3.981794119E-1
2.228476725E1;1.886561275E0;-1.481993914E0;-3.619812727E-1
2.229667819E1;2.740411282E0;-9.571211338E-1;-3.534640670E-1
2.230858912E1;2.405046225E0;1.040163875E0;-1.852492392E-1
2.232050163E1;1.406403780E0;2.930983782E0;-3.928561509E-1
2.233241256E1;-1.702376723E0;4.453434467E0;-1.210507989E0
2.234433756E1;-1.641691566E0;3.846583366E0;-2.162305832E0
2.235623600E1;1.590588331E0;3.789092302E0;-2.923531294E0
2.236815006E1;2.028159857E0;-5.120970607E-1;-3.380266428E0
2.238005944E1;1.139176413E-1;-3.287641764E0;-2.648851395E0
2.239197038E1;-1.571424603E0;-3.476084948E0;-2.409304857E0
2.240389381E1;-1.480929375E0;-2.352878332E0;-2.348619699E0
2.241581725E1;-1.133853197E0;4.471533597E-1;-1.977056623E0
2.242770631E1;3.204599023E-1;4.817544937E0;-3.087487444E-2
2.243961725E1;2.182534218E0;5.575576305E0;2.763833523E0
2.245152975E1;2.672273636E0;4.297995567E0;4.301189423E0
2.246344694E1;2.343296528E0;2.553032637E0;4.266056061E0
2.247535631E1;2.144206762E0;2.650980651E-1;3.717760801E0
2.248726725E1;2.575390339E0;-2.428468466E0;3.390913010E0
2.249917506E1;3.566580296E0;-4.781346798E0;3.182241440E0
2.251108600E1;5.267892361E0;-2.835165262E0;3.018285036E0
2.252299850E1;5.567059040E0;3.888104916E0;2.907561541E0
2.253490944E1;3.707114220E0;5.141199112E0;2.758510351E0
2.254682038E1;1.897207856E0;5.468046665E0;2.428468466E0
2.255873288E1;1.158340096E0;6.856351376E0;2.258124352E0
2.257064538E1;1.682148337E0;6.005695343E0;2.374171257E0
2.258256256E1;1.782225490E0;3.410076618E0;2.409304857E0
2.259446881E1;1.489446521E0;5.887519121E-1;2.325197458E0
2.260637975E1;9.581857324E-1;-7.825183868E-1;2.167629004E0
2.261829069E1;4.258603323E-3;3.193952516E-2;1.668307900E0
2.263020319E1;-3.885975480E-1;-4.279896319E-1;8.389448524E-1
2.264211569E1;-3.332357109E-1;-1.945117116E0;4.365068302E-2
2.265403288E1;-1.415985674E-1;-2.550903320E0;-5.067738295E-1
2.266593756E1;-4.365068302E-2;-4.748342633E-1;-6.004630923E-1
2.267785006E1;-5.727821589E-1;2.458278894E0;-4.577998444E-2
2.268976100E1;-8.155225515E-1;1.874850154E0;3.949854672E-1
2.270167506E1;-1.006095052E0;8.879188299E-1;8.048760295E-1
2.271358600E1;-1.102978230E0;1.639562249E-1;1.045487165E0
2.272550162E1;-1.087008476E0;-3.215245605E-1;1.032711267E0
2.273740788E1;-1.027388096E0;-4.386361539E-1;5.738468170E-1
2.274931881E1;-1.211572647E0;-1.724734306E-1;-6.004630923E-1
2.276125631E1;-1.577812552E0;-1.064650831E-3;-1.813100338E0
2.277314225E1;-2.023901224E0;-3.470761776E-1;-2.748928547E0
2.278505319E1;-2.640334129E0;-6.760532856E-1;-3.564450979E0
2.279696413E1;-3.313193321E0;-5.387133360E-1;-4.623778820E0
2.280887662E1;-4.183012962E0;2.132495642E0;-5.679912090E0
2.282079225E1;-4.189401150E0;6.369805813E0;-6.890420437E0
2.283270006E1;-3.098133802E-1;6.432620525E0;-7.550503731E0
2.284461100E1;1.094461083E0;1.993026376E0;-5.474434853E0
2.285652350E1;5.738468170E-1;-6.632774472E-1;-1.669372559E0
2.286843444E1;1.192408949E-1;-1.051874995E0;4.482180178E-1
2.288035163E1;-6.313379407E-1;-1.249900103E0;2.917143404E-1
2.289226100E1;-1.164728045E0;-1.519256711E0;-3.960501254E-1
2.290416881E1;-1.325490236E0;-2.024966002E0;-8.293629885E-1
2.291610163E1;-1.409597754E0;-2.773415327E0;-1.027388096E0
2.292799225E1;-1.479864717E0;-3.759282112E0;-9.848020077E-1
2.293990319E1;-1.448989749E0;-4.233051777E0;-7.537727952E-1
2.295181725E1;-1.375528932E0;-4.464080811E0;-2.661627233E-1
2.296373288E1;-1.299938679E0;-4.370391846E0;2.533869147E-1
2.297563912E1;-1.183891773E0;-3.937078714E0;7.590960264E-1
2.298755006E1;-1.012483001E0;-3.495248795E0;1.075297356E0
2.299946100E1;-8.570439219E-1;-3.138590574E0;1.048681021E0
2.301137350E1;-6.568895578E-1;-2.632881641E0;9.028239250E-1
2.302328444E1;-3.822096586E-1;-2.245348692E0;4.886747301E-1
2.303520319E1;1.990897059E-1;-1.991961718E0;1.032711342E-1
2.304710788E1;1.165792704E0;-1.777966857E0;-2.874557376E-1
2.305901881E1;2.299645901E0;-1.633174419E0;-5.940751433E-1
2.307093131E1;2.694631338E0;-1.154081464E0;-7.431262732E-1
2.308284538E1;7.058635354E-1;1.754544616E0;-5.770407319E-1
2.309475475E1;-8.570439219E-1;2.975699186E0;-6.888290644E-1
2.310666725E1;-1.462830305E0;3.426046371E0;-1.183891773E0
2.311858444E1;-2.949082851E-1;4.387425900E0;-1.595911622E0
2.313048912E1;1.276516318E0;2.879880428E0;-1.990897059E0
2.314240006E1;9.305048585E-1;-1.590588331E0;-2.018578053E0
2.315431256E1;-4.939979911E-1;-3.471826315E0;-1.559713483E0
2.316622506E1;-1.674695730E0;-2.230443478E0;-1.888690591E0
2.317813600E1;-1.365947008E0;-4.716403186E-1;-2.270900249E0
2.319004694E1;-1.469218135E-1;2.244283915E0;-2.255995035E0
2.320195944E1;1.193473577E0;3.833807707E0;-1.587394357E0
2.321387194E1;1.674695730E0;2.298581123E0;8.996299505E-1
2.322578131E1;1.650208831E0;1.689600825E0;2.988474846E0
2.323770006E1;1.527773976E0;1.165792704E0;3.421787739E0
2.324960631E1;1.998349667E0;-5.546830893E-1;3.139655352E0
2.326152350E1;2.758510351E0;-2.220861673E0;3.045966148E0
2.327342819E1;3.719890118E0;-3.610230923E0;3.140719891E0
2.328534069E1;4.779217720E0;-3.669851542E0;3.210986853E0
2.329725319E1;7.152324200E0;4.918686867E0;3.667722225E0
2.330916256E1;5.380745411E0;9.297595978E0;3.534640789E0
2.332107506E1;2.959729433E0;9.249686241E0;2.663756371E0
2.333298600E1;1.327619553E0;7.823054314E0;1.704506040E0
2.334489694E1;1.043357849E0;3.776316643E0;1.372334957E0
2.335680944E1;1.024194121E0;2.022836655E-1;1.710893869E0
2.336872038E1;1.271193147E0;-1.651273489E0;2.108008623E0
2.338063288E1;1.436213970E0;-1.748156667E0;2.185728073E0
2.339254694E1;6.153681874E-1;9.368927032E-2;1.958957553E0
2.340445475E1;-1.362753063E-1;2.714859545E-1;1.335072160E0
2.341636725E1;-1.000771821E-1;-1.008224368E0;6.302732825E-1
2.342827975E1;-2.768092230E-2;-1.632109761E0;2.352878302E-1
2.344019069E1;-4.258603454E-1;-1.384046115E-2;2.725506127E-1
2.345210162E1;-1.490511179E0;3.499507427E0;8.219104409E-1
2.346401413E1;-1.590588331E0;2.923531294E0;1.275451660E0
2.347592506E1;-1.499028325E0;1.724734306E0;1.490511179E0
2.348783912E1;-1.292486072E0;5.014505386E-1;1.596976280E0
2.349974850E1;-9.954485297E-1;-5.514891148E-1;1.495834470E0
2.351165944E1;-7.016049027E-1;-1.059327602E0;8.836601973E-1
2.352357194E1;-7.026695609E-1;-8.538499475E-1;-3.130073547E-1
2.353548288E1;-1.436213970E0;6.025923491E-1;-1.878044128E0
2.354739538E1;-2.027095318E0;5.940751433E-1;-3.102392435E0
2.355930631E1;-2.607329845E0;-9.262461960E-2;-4.032897472E0
2.357121881E1;-3.296159029E0;-9.006946087E-1;-5.252987385E0
2.358312975E1;-4.073354244E0;-4.365068376E-1;-6.516727924E0
2.359504225E1;-3.810385466E0;5.422266960E0;-8.092411041E0
2.360695319E1;-2.363524884E-1;6.977721691E0;-8.143514633E0
2.361886412E1;1.479864717E0;3.361102819E0;-4.694045544E0
2.363077506E1;1.632109761E0;5.706528425E-1;-5.280668139E-1
2.364268756E1;1.011418343E0;-1.316973090E0;7.282211781E-1
2.365462663E1;1.298874021E-1;-1.737510204E0;1.958957613E-1
2.366651100E1;-9.613797069E-1;-2.146336079E0;-7.889062762E-1
2.367842350E1;-1.558648825E0;-2.785126686E0;-1.513933539E0
2.369033444E1;-1.793936610E0;-3.773122549E0;-1.849298477E0
2.370224538E1;-1.698118091E0;-4.264991283E0;-1.691730142E0
2.371416256E1;-1.434084654E0;-4.313965321E0;-1.142370343E0
2.372606881E1;-1.166857362E0;-4.063772202E0;-4.184077680E-1
2.373797975E1;-1.081685305E0;-3.657075644E0;3.832743168E-1
2.374989225E1;-1.045487165E0;-3.386654377E0;8.133932352E-1
2.376180319E1;-1.066780090E0;-3.414335251E0;9.358280897E-1
2.377371725E1;-1.220089912E0;-3.693273783E0;8.389448524E-1
2.378562663E1;-1.354235888E0;-4.002022743E0;6.228207350E-1
2.379753912E1;-1.166857362E0;-4.074418545E0;2.693566680E-1
2.380945006E1;-4.354421794E-1;-3.762475967E0;-3.193952516E-2
2.382136100E1;8.038113713E-1;-3.249314308E0;-3.694338500E-1
2.383327194E1;1.719411135E0;-2.710601091E0;-6.089802980E-1
2.384518444E1;2.016448736E0;-1.927018046E0;-7.026695609E-1
2.385709538E1;1.225413084E0;1.724734306E-1;-5.301961303E-1
2.386900788E1;-8.666257858E-1;2.719118357E0;-5.301961303E-1
2.388091881E1;-3.412205935E0;4.743019581E0;-1.118947983E0
2.389283131E1;-2.398658276E0;5.062414646E0;-1.804583192E0
2.390474225E1;1.216895938E0;3.824225903E0;-2.335844040E0
2.391665319E1;1.968539357E0;-1.510739565E0;-2.690372705E0
2.392856569E1;-1.394692659E-1;-3.234409332E0;-2.384817839E0
2.394047663E1;-1.546937704E0;-1.962151527E0;-2.643527985E0
2.395238912E1;-1.473476768E0;5.440365672E-1;-2.499800205E0
2.396430006E1;-1.069974065E0;7.613317966E0;-2.027095318E0
2.397621256E1;1.658725977E0;8.712038040E0;-1.010353684E0
2.398812350E1;3.016155720E0;5.859838009E0;7.218332887E-1
2.400003600E1;2.587101460E0;3.320646048E0;2.435921192E0
2.401194694E1;1.698118091E0;9.752201438E-1;3.236538649E0
2.402385788E1;1.516062737E0;-8.655611277E-1;3.710308075E0
2.403576881E1;2.010060787E0;-2.796837807E0;3.976470947E0
2.404768131E1;2.804290295E0;-4.343775272E0;4.008410454E0
2.405959381E1;4.177690029E0;-3.424981833E0;3.862553358E0
2.407150475E1;6.170716286E0;4.789864063E0;3.733730555E0
2.408341569E1;4.986824512E0;7.258789539E0;2.661627054E0
2.409532819E1;3.221633434E0;7.872028351E0;1.146628976E0
2.410723913E1;1.066780090E0;8.671581268E0;4.290542901E-1
2.411915162E1;-8.336216211E-1;7.543051243E0;5.014505386E-1
2.413106256E1;-1.504351616E0;4.041414738E0;2.130366325E0
2.414297506E1;-4.024380147E-1;8.208457828E-1;3.052353859E0
2.415488600E1;1.112560153E0;-1.807777166E0;2.952276707E0
2.416679850E1;1.278645635E0;-2.890527010E0;2.542386293E0
2.417870944E1;6.686007380E-1;-2.668015003E0;2.028159857E0
2.419062038E1;3.928561509E-1;-2.716989040E0;1.579941869E0
2.420253288E1;3.119426966E-1;-2.840488434E0;1.328684211E0
2.421444381E1;-2.182534188E-1;-1.096590400E0;1.320167065E0
2.422635475E1;-9.677675962E-1;1.055068970E0;1.527773976E0
2.423826725E1;-1.075297356E0;8.719490170E-1;1.570359945E0
2.425017819E1;-1.014612198E0;1.000771821E-1;1.550131679E0
2.426209381E1;-9.390220642E-1;-7.016049027E-1;1.517127395E0
2.427400162E1;-9.209229946E-1;-1.282904267E0;1.466024160E0
2.428591412E1;-9.571211338E-1;-1.489446521E0;1.347847939E0
2.429783444E1;-1.178568482E0;-8.272337317E-1;9.901252985E-1
2.430973600E1;-1.772643685E0;6.909583807E-1;2.118655145E-1
2.432164850E1;-2.231508255E0;8.155225515E-1;-1.078491330E0
2.433355944E1;-2.652045250E0;1.703441292E-1;-2.345425844E0
2.434547038E1;-3.186500072E0;-7.356737256E-1;-3.596390486E0
2.435738288E1;-3.740118504E0;-1.387240052E0;-4.948497295E0
2.436930006E1;-4.264991283E0;-1.089137793E0;-6.222884178E0
