"Time (s)";"Gyroscope x (rad/s)";"Gyroscope y (rad/s)";"Gyroscope z (rad/s)"
6.131312000E-3;1.426632106E-1;1.362753063E-1;-3.300417587E-2
1.804693700E-2;1.139176413E-1;1.852492392E-1;-8.517206647E-3
2.995631200E-2;7.559020817E-2;1.171115935E-1;-3.193952609E-3
4.186568700E-2;2.342231758E-2;1.384046115E-2;1.384046115E-2
5.377662500E-2;-2.342231758E-2;-4.045673087E-2;3.619812801E-2
6.568912500E-2;-6.281439960E-2;-6.600835174E-2;3.726277873E-2
7.760162500E-2;-7.026695460E-2;-5.429719388E-2;2.768092230E-2
8.951256200E-2;-3.513347730E-2;5.323254038E-3;3.726277873E-2
1.014250620E-1;-6.387905218E-3;2.981022373E-2;3.406882659E-2
1.133360000E-1;1.064650808E-2;2.874557301E-2;-3.193952609E-3
1.252469370E-1;4.471533373E-2;1.703441329E-2;-1.277581044E-2
1.371594370E-1;4.258603230E-2;2.661627159E-2;-3.300417587E-2
1.490703750E-1;5.323254317E-2;2.661627159E-2;-3.193952516E-2
1.609828750E-1;6.920230389E-2;-1.064650831E-3;-3.832742944E-2
1.728953750E-1;8.730136603E-2;-4.577998444E-2;-4.365068302E-2
1.848063120E-1;8.517206460E-2;-3.193952516E-2;-3.832742944E-2
1.967172500E-1;1.809906401E-2;-3.619812801E-2;-1.809906401E-2
2.086297500E-1;-8.197811246E-2;-6.281439960E-2;3.087487444E-2
2.205406870E-1;-1.522450745E-1;-1.384046115E-2;7.452555746E-2
2.324531870E-1;-1.905725002E-1;1.160469428E-1;1.000771821E-1
2.443641250E-1;-1.831199378E-1;2.225120217E-1;1.298874021E-1
2.562750620E-1;-1.490511149E-1;2.800031602E-1;1.373399645E-1
2.681875620E-1;-9.688322991E-2;2.501929402E-1;1.277581006E-1
2.800985000E-1;-4.471533373E-2;1.394692659E-1;1.341460049E-1
2.920156870E-1;-9.581857361E-3;1.309520602E-1;1.394692659E-1
3.039219370E-1;2.022836544E-2;3.662398756E-1;1.426632106E-1
3.158328750E-1;3.087487444E-2;9.155997038E-1;2.225120217E-1
3.277469370E-1;2.768092230E-2;1.151952267E0;3.343003690E-1
3.396563120E-1;6.707300246E-2;1.456442356E0;2.746799290E-1
3.515813120E-1;1.863138974E-1;1.698118091E0;2.810678184E-1
3.634797500E-1;2.725506127E-1;1.466024160E0;2.395464331E-1
3.753906870E-1;3.321710527E-1;8.794015646E-1;1.309520602E-1
3.873031870E-1;2.427403927E-1;5.323254466E-1;1.000771821E-1
3.992281870E-1;1.277581044E-2;3.332357109E-1;1.405339092E-1
4.111250620E-1;-1.937664598E-1;3.822096586E-1;2.810678184E-1
4.230375620E-1;-2.352878302E-1;4.407654405E-1;2.863910794E-1
4.349485000E-1;-2.565808594E-1;5.759761333E-1;1.746027321E-1
4.468594370E-1;-2.054776102E-1;7.409969568E-1;1.266934574E-1
4.587719370E-1;-1.075297371E-1;8.687551022E-1;8.623671532E-2
4.706906870E-1;-3.406882659E-2;9.028239250E-1;3.406882659E-2
4.825953750E-1;5.855579674E-2;6.675360799E-1;1.809906401E-2
4.945063120E-1;1.277581006E-1;3.002315462E-1;3.939208016E-2
5.064188120E-1;1.224348471E-1;6.281439960E-2;9.475392103E-2
5.183344370E-1;6.920230389E-2;-2.661627159E-2;1.841845959E-1
5.302422500E-1;-1.064650831E-3;-4.258603323E-3;3.098133802E-1
5.421531870E-1;-1.341460049E-1;1.394692659E-1;4.333128929E-1
5.540641250E-1;-2.863910794E-1;2.608394623E-1;4.971919358E-1
5.659828750E-1;-3.257831633E-1;2.970375717E-1;4.833514690E-1
5.778891250E-1;-2.576455176E-1;2.225120217E-1;4.471533597E-1
5.898000620E-1;-1.288227588E-1;1.277581044E-2;3.917915225E-1
6.017110000E-1;1.809906401E-2;-2.597748041E-1;3.034254909E-1
6.136235000E-1;9.901253134E-2;-3.268478215E-1;1.501157731E-1
6.255391250E-1;2.150594741E-1;2.001543641E-1;-1.916371472E-2
6.374469370E-1;2.768092155E-1;7.622900009E-1;-7.984881103E-2
6.493578750E-1;2.736152709E-1;7.984881401E-1;1.171115879E-2
6.612703750E-1;2.640334070E-1;5.301961303E-1;8.517206460E-2
6.731813120E-1;2.342231870E-1;2.001543641E-1;7.239625603E-2
6.850922500E-1;1.884431988E-1;-8.197811246E-2;3.193952516E-2
6.970047500E-1;1.149822921E-1;-3.268478215E-1;5.323254317E-2
7.089156870E-1;5.642649531E-2;-3.555933833E-1;1.022064835E-1
7.208313120E-1;1.596976258E-2;-4.152138233E-1;6.387905031E-2
7.327391250E-1;2.555162087E-2;-5.057091713E-1;7.452555932E-3
7.446531870E-1;3.300417587E-2;-5.174202919E-1;-1.277581044E-2
7.565610000E-1;1.384046115E-2;-4.003087282E-1;-2.129301615E-2
7.684735000E-1;8.517206647E-3;-2.693566680E-1;-2.342231758E-2
7.803844370E-1;2.129301615E-2;-1.394692659E-1;-1.916371472E-2
7.922969370E-1;2.022836544E-2;-8.197811246E-2;3.087487444E-2
8.042156870E-1;4.152138159E-2;-1.660855263E-1;5.323254317E-2
8.161188120E-1;9.794788063E-2;-2.491282970E-1;1.596976258E-2
8.280375620E-1;1.469218135E-1;-3.534640670E-1;-6.387905218E-3
8.399422500E-1;1.469218135E-1;-5.674588680E-1;1.064650808E-2
8.518547500E-1;1.085943878E-1;-8.165872097E-1;1.384046115E-2
8.637797500E-1;5.855579674E-2;-1.026323438E0;1.809906401E-2
8.756797500E-1;7.452555932E-3;-8.879188299E-1;-1.916371472E-2
8.875891250E-1;-3.619812801E-2;-5.568124056E-1;-3.832742944E-2
8.995000620E-1;-6.068509817E-2;-4.088259339E-1;1.809906401E-2
9.114125620E-1;-2.768092230E-2;-3.662398756E-1;6.281439960E-2
9.233235000E-1;4.790928960E-2;-3.151366413E-1;5.216789246E-2
9.352360000E-1;1.288227588E-1;-2.608394623E-1;2.555162087E-2
9.471469370E-1;1.788613349E-1;-2.161241174E-1;3.300417587E-2
9.590578750E-1;1.809906363E-1;-2.012190074E-1;7.026695460E-2
9.709703750E-1;1.767320335E-1;-2.352878302E-1;9.688322991E-2
9.828813120E-1;1.650208831E-1;-3.545287251E-1;1.394692659E-1
9.947938120E-1;1.735380888E-1;-3.928561509E-1;1.639562249E-1
1.006704750E0;1.746027321E-1;-3.598519862E-1;1.735380888E-1
1.018615687E0;1.565036774E-1;-3.343003690E-1;1.863138974E-1
1.030528187E0;1.437278688E-1;-3.545287251E-1;2.076069117E-1
1.042439125E0;1.277581006E-1;-4.397007823E-1;1.948311031E-1
1.054350062E0;1.213701963E-1;-4.854807854E-1;1.447925121E-1
1.066262562E0;1.266934574E-1;-4.184077680E-1;7.878416032E-2
1.078175062E0;1.394692659E-1;-3.768863976E-1;3.619812801E-2
1.090086000E0;9.901253134E-2;-2.225120217E-1;-1.916371472E-2
1.101998500E0;5.323254038E-3;-1.298874021E-1;-1.809906401E-2
1.113909437E0;-6.600835174E-2;-6.281439960E-2;5.855579674E-2
1.125820375E0;-9.155996889E-2;-1.596976258E-2;1.320167035E-1
1.137732875E0;-8.197811246E-2;-3.406882659E-2;1.724734306E-1
1.149643812E0;-9.688322991E-2;-2.033483088E-1;1.969604045E-1
1.161556312E0;-1.245641485E-1;-3.939208090E-1;1.852492392E-1
1.173476625E0;-1.565036774E-1;-4.066966176E-1;1.192408949E-1
1.185379750E0;-1.990897059E-1;-2.991668880E-1;5.110324174E-2
1.197290687E0;-1.724734306E-1;-9.368927032E-2;-1.596976258E-2
1.209201625E0;-1.043357849E-1;3.939208016E-2;-1.171115879E-2
1.221114125E0;-8.197811246E-2;-7.452555932E-3;3.087487444E-2
1.233025062E0;-8.304276317E-2;-1.533097178E-1;7.026695460E-2
1.244936000E0;-6.068509817E-2;-2.267706245E-1;8.623671532E-2
1.256848500E0;-3.513347730E-2;-2.161241174E-1;1.011418328E-1
1.268761000E0;-3.726277873E-2;-1.203055456E-1;1.181762442E-1
1.280676625E0;-5.003859103E-2;7.452555932E-3;9.901253134E-2
1.292582875E0;-5.962044746E-2;1.064650831E-3;7.559020817E-2
1.304495375E0;-6.068509817E-2;-1.245641485E-1;7.133160532E-2
1.316406312E0;-3.406882659E-2;-2.991668880E-1;7.452555746E-2
1.328317250E0;1.916371472E-2;-4.333128929E-1;8.091346174E-2
1.340231312E0;6.494370103E-2;-5.206142664E-1;9.475392103E-2
1.352140687E0;6.813765317E-2;-5.451012254E-1;9.901253134E-2
1.364053187E0;1.171115879E-2;-4.641877711E-1;9.155996889E-2
1.375964125E0;-4.790928960E-2;-3.492054641E-1;1.064650863E-1
1.387875062E0;-8.304276317E-2;-2.342231870E-1;1.149822921E-1
1.399787562E0;-8.730136603E-2;-1.256287992E-1;9.688322991E-2
1.411698500E0;-7.346090674E-2;-8.836601675E-2;7.984881103E-2
1.423611000E0;-4.790928960E-2;-1.181762442E-1;5.855579674E-2
1.435521937E0;-5.323254038E-3;-1.618269235E-1;2.022836544E-2
1.447432875E0;1.809906401E-2;-2.597748041E-1;-4.258603323E-3
1.459353187E0;1.171115879E-2;-3.172659576E-1;-2.129301662E-3
1.471257875E0;8.517206647E-3;-3.204599023E-1;-6.387905218E-3
1.483168812E0;-1.384046115E-2;-2.650980651E-1;-1.916371472E-2
1.495079750E0;-6.068509817E-2;-1.980250627E-1;1.064650808E-2
1.506990687E0;-7.452555746E-2;-1.085943878E-1;4.258603230E-2
1.518907875E0;-7.665485889E-2;-3.087487444E-2;4.897394031E-2
1.530814125E0;-8.197811246E-2;3.300417587E-2;5.110324174E-2
1.542725062E0;-5.536184460E-2;8.623671532E-2;6.281439960E-2
1.554637562E0;-4.258603323E-3;6.068509817E-2;5.642649531E-2
1.566556312E0;5.110324174E-2;-9.262461960E-2;2.981022373E-2
1.578461000E0;8.517206460E-2;-2.491282970E-1;5.323254038E-3
1.590371937E0;1.107236892E-1;-3.492054641E-1;-5.323254038E-3
1.602284437E0;1.043357849E-1;-3.609166443E-1;0.000000000E0
1.614195375E0;8.410741389E-2;-3.183306158E-1;7.452555932E-3
1.626106312E0;4.897394031E-2;-2.746799290E-1;1.277581044E-2
1.638018812E0;3.513347730E-2;-2.033483088E-1;2.555162087E-2
1.649931312E0;4.897394031E-2;-1.415985674E-1;5.536184460E-2
1.661842250E0;5.642649531E-2;-1.064650863E-1;7.133160532E-2
1.673754750E0;6.174974889E-2;-1.415985674E-1;7.026695460E-2
1.685665687E0;5.749114603E-2;-2.225120217E-1;5.855579674E-2
1.697576625E0;6.281439960E-2;-2.640334070E-1;4.684463516E-2
1.709489125E0;7.452555746E-2;-2.682920098E-1;4.365068302E-2
1.721400062E0;9.688322991E-2;-2.895850241E-1;3.726277873E-2
1.733312562E0;1.054004356E-1;-3.502701223E-1;2.448697016E-2
1.745231312E0;1.309520602E-1;-3.854036033E-1;2.129301615E-2
1.757140687E0;1.596976221E-1;-4.269249737E-1;2.555162087E-2
1.769046937E0;1.671501845E-1;-4.790928662E-1;3.832742944E-2
1.780957875E0;1.777966917E-1;-5.089030862E-1;4.684463516E-2
1.792870375E0;1.905725002E-1;-5.099677444E-1;4.790928960E-2
1.804781312E0;1.799259931E-1;-5.270021558E-1;5.429719388E-2
1.816695375E0;1.628915817E-1;-5.397779942E-1;5.962044746E-2
1.828604750E0;1.437278688E-1;-5.525537729E-1;7.452555746E-2
1.840515687E0;1.298874021E-1;-5.365840197E-1;9.794788063E-2
1.852428187E0;1.437278688E-1;-5.333900452E-1;1.043357849E-1
1.864339125E0;1.203055456E-1;-5.014505386E-1;1.011418328E-1
1.876250062E0;6.494370103E-2;-4.162784815E-1;9.262461960E-2
1.888162562E0;2.555162087E-2;-3.193952441E-1;8.836601675E-2
1.900073500E0;6.387905218E-3;-2.587101460E-1;8.410741389E-2
1.911989125E0;6.387905218E-3;-2.203827202E-1;7.239625603E-2
1.923896937E0;2.981022373E-2;-1.863138974E-1;5.962044746E-2
1.935823500E0;5.642649531E-2;-1.863138974E-1;4.152138159E-2
1.947720375E0;7.452555746E-2;-2.342231870E-1;1.171115879E-2
1.959643812E0;9.581857920E-2;-2.917143404E-1;1.171115879E-2
1.971542250E0;1.277581006E-1;-3.907268643E-1;2.448697016E-2
1.983454750E0;1.618269235E-1;-5.280668139E-1;4.365068302E-2
1.995365687E0;1.873785406E-1;-6.462430358E-1;4.045673087E-2
2.007278187E0;1.980250627E-1;-6.632774472E-1;2.874557301E-2
2.019189125E0;2.054776102E-1;-5.908812284E-1;2.342231758E-2
2.031101625E0;1.756673902E-1;-4.460887015E-1;1.809906401E-2
2.043012562E0;1.149822921E-1;-3.066194355E-1;2.022836544E-2
2.054931312E0;2.981022373E-2;-2.288999259E-1;2.874557301E-2
2.066846937E0;-5.855579674E-2;-2.363524884E-1;4.897394031E-2
2.078746937E0;-4.045673087E-2;-2.576455176E-1;3.939208016E-2
2.090659437E0;2.235766686E-2;-3.449468613E-1;1.171115879E-2
2.102571937E0;7.771950960E-2;-4.790928662E-1;7.452555932E-3
2.114501625E0;1.054004356E-1;-5.067738295E-1;2.022836544E-2
2.126393812E0;1.277581006E-1;-4.716403186E-1;1.596976258E-2
2.138306312E0;1.341460049E-1;-4.066966176E-1;-1.064650831E-3
2.150217250E0;1.213701963E-1;-3.683691919E-1;-1.916371472E-2
2.162129750E0;9.155996889E-2;-3.502701223E-1;-1.916371472E-2
2.174040687E0;6.281439960E-2;-3.321710527E-1;0.000000000E0
2.185953187E0;4.258603230E-2;-2.757445574E-1;1.916371472E-2
2.197864125E0;7.452555932E-3;-2.203827202E-1;3.939208016E-2
2.209775062E0;-2.555162087E-2;-1.927018017E-1;4.790928960E-2
2.221687562E0;-2.022836544E-2;-1.607622802E-1;5.216789246E-2
2.233598500E0;1.064650831E-3;-1.746027321E-1;4.152138159E-2
2.245511000E0;4.471533373E-2;-2.416757345E-1;1.596976258E-2
2.257421937E0;8.304276317E-2;-3.162012994E-1;-1.277581044E-2
2.269332875E0;1.203055456E-1;-3.641105890E-1;-2.874557301E-2
2.281245375E0;1.362753063E-1;-3.726277947E-1;-1.809906401E-2
2.293156312E0;1.320167035E-1;-3.523994386E-1;5.323254038E-3
2.305067250E0;1.096590385E-1;-2.970375717E-1;1.384046115E-2
2.316978187E0;8.517206460E-2;-2.608394623E-1;1.916371472E-2
2.328890687E0;5.642649531E-2;-2.853264213E-1;5.323254038E-3
2.340801625E0;5.110324174E-2;-3.098133802E-1;-8.517206647E-3
2.352714125E0;6.174974889E-2;-2.821324766E-1;-9.581857361E-3
2.364626625E0;6.920230389E-2;-2.374171317E-1;-1.384046115E-2
2.376537562E0;5.429719388E-2;-2.395464331E-1;-1.809906401E-2
2.388448500E0;4.045673087E-2;-2.778738737E-1;2.129301662E-3
2.400361000E0;5.216789246E-2;-3.215245605E-1;1.596976258E-2
2.412271937E0;7.452555746E-2;-3.758217394E-1;6.387905218E-3
2.424184437E0;9.262461960E-2;-3.822096586E-1;-7.452555932E-3
2.436095375E0;1.000771821E-1;-3.321710527E-1;-1.277581044E-2
2.448006312E0;7.771950960E-2;-2.842617631E-1;-2.768092230E-2
2.459918812E0;3.300417587E-2;-3.215245605E-1;-6.174974889E-2
2.471829750E0;-1.809906401E-2;-4.663170576E-1;-9.901253134E-2
2.483742250E0;-6.387905218E-3;-5.270021558E-1;-1.181762442E-1
2.495653187E0;5.216789246E-2;-5.301961303E-1;-1.000771821E-1
2.507564125E0;9.368927032E-2;-5.344547033E-1;-6.920230389E-2
2.519476625E0;1.000771821E-1;-5.301961303E-1;-5.323254317E-2
2.531387562E0;9.155996889E-2;-4.258603454E-1;-6.068509817E-2
2.543301625E0;7.133160532E-2;-2.501929402E-1;-4.152138159E-2
2.555211000E0;1.384046115E-2;-1.266934574E-1;-2.129301662E-3
2.567121937E0;-3.619812801E-2;-8.943066746E-2;0.000000000E0
2.579034437E0;-5.003859103E-2;-9.901253134E-2;-2.555162087E-2
2.590945375E0;-2.661627159E-2;-1.479864717E-1;-5.429719388E-2
2.602857875E0;1.809906401E-2;-1.863138974E-1;-7.133160532E-2
2.614768812E0;3.406882659E-2;-2.161241174E-1;-6.174974889E-2
2.626681312E0;2.768092230E-2;-2.587101460E-1;-3.939208016E-2
2.638592250E0;2.555162087E-2;-2.970375717E-1;-1.809906401E-2
2.650504750E0;3.619812801E-2;-2.949082851E-1;1.064650831E-3
2.662415687E0;5.110324174E-2;-2.597748041E-1;6.387905218E-3
2.674326625E0;4.790928960E-2;-2.288999259E-1;-2.129301662E-3
2.686239125E0;3.513347730E-2;-1.565036774E-1;-7.452555932E-3
2.698150062E0;1.277581044E-2;-6.387905031E-2;-1.490511186E-2
2.710067250E0;-1.490511186E-2;1.490511186E-2;-1.171115879E-2
2.721973500E0;-2.448697016E-2;5.642649531E-2;1.277581044E-2
2.733886000E0;-2.235766686E-2;5.855579674E-2;2.768092230E-2
2.745796937E0;-2.129301662E-3;2.235766686E-2;1.596976258E-2
2.757707875E0;1.596976258E-2;-6.813765317E-2;-8.517206647E-3
2.769620375E0;2.768092230E-2;-1.724734306E-1;-2.448697016E-2
2.781537562E0;3.087487444E-2;-2.225120217E-1;-2.555162087E-2
2.793442250E0;2.661627159E-2;-2.501929402E-1;-6.387905218E-3
2.805354750E0;2.235766686E-2;-2.384817898E-1;1.064650808E-2
2.817265687E0;2.022836544E-2;-2.076069117E-1;2.874557301E-2
2.829184437E0;2.874557301E-2;-2.171887755E-1;2.235766686E-2
2.841089125E0;2.768092230E-2;-2.533869147E-1;3.193952609E-3
2.853000062E0;3.939208016E-2;-2.789385319E-1;-3.087487444E-2
2.864912562E0;4.684463516E-2;-3.311064243E-1;-4.897394031E-2
2.876823500E0;3.619812801E-2;-4.077612758E-1;-6.068509817E-2
2.888742250E0;2.342231758E-2;-4.918686748E-1;-6.387905031E-2
2.900646937E0;3.087487444E-2;-5.344547033E-1;-6.068509817E-2
2.912557875E0;5.962044746E-2;-5.387133360E-1;-4.790928960E-2
2.924470375E0;8.197811246E-2;-5.238082409E-1;-2.874557301E-2
2.936381312E0;8.197811246E-2;-4.748342633E-1;-2.342231758E-2
2.948300062E0;6.494370103E-2;-4.013733566E-1;-2.874557301E-2
2.960204750E0;4.258603230E-2;-3.108780384E-1;-2.661627159E-2
2.972115687E0;1.384046115E-2;-2.597748041E-1;-3.087487444E-2
2.984028187E0;1.277581044E-2;-2.459343374E-1;-5.429719388E-2
2.995939125E0;4.045673087E-2;-2.704213262E-1;-7.771950960E-2
3.007853187E0;5.855579674E-2;-3.172659576E-1;-8.197811246E-2
3.019764125E0;6.920230389E-2;-3.140719831E-1;-7.452555746E-2
3.031673500E0;7.559020817E-2;-2.906496823E-1;-7.026695460E-2
3.043586000E0;6.920230389E-2;-2.438050359E-1;-4.365068302E-2
3.055496937E0;3.406882659E-2;-2.033483088E-1;-9.581857361E-3
3.067409437E0;-7.452555932E-3;-1.788613349E-1;-4.258603323E-3
3.079321937E0;-2.342231758E-2;-1.543743759E-1;-1.916371472E-2
3.091232875E0;-9.581857361E-3;-1.692794859E-1;-3.193952516E-2
3.103143812E0;7.452555932E-3;-1.969604045E-1;-4.790928960E-2
3.115056312E0;-5.216789246E-2;-2.746799290E-1;-1.384046078E-1
3.126967250E0;-7.665485889E-2;-2.512575984E-1;-1.650208831E-1
3.138879750E0;-7.452555746E-2;-2.448696941E-1;-1.415985674E-1
3.150790687E0;-6.707300246E-2;-2.501929402E-1;-1.032711342E-1
3.162701625E0;-7.026695460E-2;-2.938436270E-1;-7.239625603E-2
3.174614125E0;-7.878416032E-2;-4.120198786E-1;-4.684463516E-2
3.186534437E0;-7.665485889E-2;-5.546830893E-1;-4.365068302E-2
3.198440687E0;-6.920230389E-2;-6.590188742E-1;-3.193952516E-2
3.210348500E0;-6.174974889E-2;-7.314151525E-1;-2.235766686E-2
3.222261000E0;-2.981022373E-2;-7.346090674E-1;-1.596976258E-2
3.234171937E0;1.064650808E-2;-7.016049027E-1;7.452555932E-3
3.246117250E0;5.003859103E-2;-6.568895578E-1;2.129301615E-2
3.257996937E0;5.429719388E-2;-6.249500513E-1;2.235766686E-2
3.269906312E0;4.790928960E-2;-5.717175007E-1;-5.323254038E-3
3.281818812E0;3.406882659E-2;-5.301961303E-1;-3.193952516E-2
3.293729750E0;-3.193952609E-3;-4.375714958E-1;-3.726277873E-2
3.305657875E0;-4.152138159E-2;-3.353650272E-1;-3.406882659E-2
3.317553187E0;-3.832742944E-2;-2.214473784E-1;-8.517206647E-3
3.329464125E0;-7.452555932E-3;-1.863138974E-1;2.448697016E-2
3.341375062E0;3.939208016E-2;-1.809906363E-1;4.577998444E-2
3.353287562E0;8.197811246E-2;-2.012190074E-1;4.365068302E-2
3.365198500E0;1.011418328E-1;-2.076069117E-1;5.536184460E-2
3.377111000E0;1.224348471E-1;-1.916371584E-1;7.026695460E-2
3.389021937E0;1.394692659E-1;-1.980250627E-1;7.026695460E-2
3.400934437E0;1.330813617E-1;-2.650980651E-1;4.897394031E-2
3.412845375E0;1.139176413E-1;-3.385589719E-1;1.703441329E-2
3.424756312E0;1.075297371E-1;-3.577226698E-1;-1.064650831E-3
3.436668812E0;7.984881103E-2;-3.289771080E-1;-8.517206647E-3
3.448579750E0;2.874557301E-2;-2.725506127E-1;-9.581857361E-3
3.460490687E0;-2.661627159E-2;-2.118655145E-1;-8.517206647E-3
3.472403187E0;-5.003859103E-2;-1.927018017E-1;-1.277581044E-2
3.484314125E0;-2.874557301E-2;-2.501929402E-1;-1.809906401E-2
3.496229750E0;4.152138159E-2;-3.981794119E-1;-6.387905218E-3
3.508137562E0;1.373399645E-1;-5.312607884E-1;2.342231758E-2
3.520050062E0;2.459343374E-1;-5.759761333E-1;7.026695460E-2
3.531961000E0;2.831971347E-1;-5.248728395E-1;9.262461960E-2
3.543873500E0;2.384817898E-1;-4.716403186E-1;9.688322991E-2
3.555793812E0;1.756673902E-1;-3.928561509E-1;8.410741389E-2
3.567695375E0;1.320167035E-1;-3.066194355E-1;7.665485889E-2
3.579607875E0;1.224348471E-1;-2.480636388E-1;8.517206460E-2
3.591518812E0;1.479864717E-1;-1.958957613E-1;8.410741389E-2
3.603431312E0;1.596976221E-1;-1.373399645E-1;7.559020817E-2
3.615342250E0;1.426632106E-1;-7.026695460E-2;7.771950960E-2
3.627253187E0;1.054004356E-1;-4.258603323E-3;7.026695460E-2
3.639165687E0;5.429719388E-2;3.406882659E-2;6.174974889E-2
3.651076625E0;-1.064650831E-3;2.555162087E-2;4.152138159E-2
3.662989125E0;-2.235766686E-2;-1.384046115E-2;2.661627159E-2
3.674900062E0;-1.064650808E-2;-4.684463516E-2;5.323254038E-3
3.686812562E0;2.129301615E-2;-8.410741389E-2;-2.555162087E-2
3.698723500E0;6.920230389E-2;-1.309520602E-1;-2.555162087E-2
3.710636000E0;1.181762442E-1;-1.650208831E-1;-1.703441329E-2
3.722546937E0;1.234994978E-1;-1.990897059E-1;-2.235766686E-2
3.734461000E0;1.064650863E-1;-2.001543641E-1;-2.661627159E-2
3.746370375E0;8.410741389E-2;-1.586329788E-1;-3.193952609E-3
3.758281312E0;5.962044746E-2;-1.107236892E-1;4.684463516E-2
3.770192250E0;2.874557301E-2;-5.855579674E-2;8.623671532E-2
3.782104750E0;4.258603323E-3;-4.152138159E-2;1.022064835E-1
3.794015687E0;1.277581044E-2;-1.224348471E-1;8.517206460E-2
3.805928187E0;5.216789246E-2;-2.533869147E-1;4.152138159E-2
3.817839125E0;1.309520602E-1;-3.673045337E-1;1.809906401E-2
3.829751625E0;1.831199378E-1;-4.418300986E-1;3.193952516E-2
3.841664125E0;1.958957613E-1;-4.695110321E-1;4.790928960E-2
3.853576625E0;1.777966917E-1;-4.652524292E-1;3.832742944E-2
3.865486000E0;1.501157731E-1;-4.492826462E-1;3.513347730E-2
3.877396937E0;1.096590385E-1;-3.481408358E-1;4.471533373E-2
3.889309437E0;5.855579674E-2;-1.884431988E-1;5.429719388E-2
3.901228187E0;6.387905218E-3;-6.600835174E-2;5.216789246E-2
3.913131312E0;-3.406882659E-2;-2.342231758E-2;4.577998444E-2
3.925043812E0;-5.962044746E-2;1.277581044E-2;1.171115879E-2
3.936954750E0;-5.216789246E-2;5.110324174E-2;-4.258603323E-3
3.948865687E0;-3.513347730E-2;2.448697016E-2;-3.193952609E-3
3.960778187E0;-2.235766686E-2;-4.258603230E-2;-8.517206647E-3
3.972689125E0;3.193952609E-3;-1.234994978E-1;-1.490511186E-2
3.984601625E0;4.471533373E-2;-2.044129670E-1;-1.703441329E-2
3.996512562E0;5.323254317E-2;-2.480636388E-1;-5.110324174E-2
4.008425062E0;9.368927032E-2;-1.788613349E-1;-2.874557301E-2
4.020336000E0;9.475392103E-2;-1.181762442E-1;3.193952609E-3
4.032246937E0;7.452555746E-2;-8.943066746E-2;8.517206647E-3
4.044159437E0;3.726277873E-2;-1.320167035E-1;-6.387905218E-3
4.056075062E0;2.342231758E-2;-2.161241174E-1;-1.277581044E-2
4.067982875E0;3.726277873E-2;-2.512575984E-1;-1.277581044E-2
4.079900062E0;3.087487444E-2;-2.491282970E-1;-4.258603323E-3
4.091806312E0;5.323254038E-3;-2.406110913E-1;4.258603323E-3
4.103717250E0;1.064650808E-2;-1.767320335E-1;2.022836544E-2
4.115628187E0;1.916371472E-2;-1.384046078E-1;3.406882659E-2
4.127540687E0;1.809906401E-2;-1.064650863E-1;1.277581044E-2
4.139451625E0;2.235766686E-2;-1.054004356E-1;-1.171115879E-2
4.151364125E0;2.661627159E-2;-1.309520602E-1;-3.513347730E-2
4.163275062E0;4.684463516E-2;-1.948311031E-1;-4.897394031E-2
4.175187562E0;7.452555746E-2;-2.885203660E-1;-4.258603230E-2
4.187098500E0;8.943066746E-2;-3.843389452E-1;-3.193952516E-2
4.199014125E0;8.410741389E-2;-4.407654405E-1;-2.022836544E-2
4.210926625E0;9.155996889E-2;-4.535412490E-1;1.916371472E-2
4.222832875E0;9.049531817E-2;-4.397007823E-1;5.536184460E-2
4.234745375E0;7.559020817E-2;-3.896622062E-1;7.346090674E-2
4.246656312E0;6.281439960E-2;-3.811450005E-1;7.346090674E-2
4.258567250E0;7.878416032E-2;-3.981794119E-1;6.494370103E-2
4.270479750E0;1.139176413E-1;-3.715631366E-1;5.536184460E-2
4.282390687E0;1.298874021E-1;-3.406882584E-1;6.387905031E-2
4.294303187E0;1.330813617E-1;-2.949082851E-1;6.387905031E-2
4.306214125E0;1.224348471E-1;-2.533869147E-1;2.661627159E-2
4.318125062E0;9.262461960E-2;-2.384817898E-1;7.452555932E-3
4.330037562E0;7.133160532E-2;-2.076069117E-1;6.387905218E-3
4.341948500E0;6.707300246E-2;-1.554390192E-1;8.517206647E-3
4.353861000E0;6.494370103E-2;-1.117883399E-1;6.387905218E-3
4.365771937E0;6.600835174E-2;-7.771950960E-2;-6.387905218E-3
4.377684437E0;8.091346174E-2;-9.368927032E-2;-2.981022373E-2
4.389595375E0;7.878416032E-2;-1.586329788E-1;-4.471533373E-2
4.401506312E0;6.281439960E-2;-2.203827202E-1;-4.152138159E-2
4.413418812E0;5.536184460E-2;-1.820552945E-1;-3.300417587E-2
4.425329750E0;3.726277873E-2;-6.387905031E-2;-1.171115879E-2
4.437248500E0;8.517206647E-3;7.452555932E-3;1.064650808E-2
4.449154750E0;-1.171115879E-2;4.258603323E-3;2.661627159E-2
4.461064125E0;0.000000000E0;-2.874557301E-2;2.768092230E-2
4.472976625E0;2.981022373E-2;-7.026695460E-2;1.703441329E-2
4.484887562E0;4.790928960E-2;-1.639562249E-1;1.064650831E-3
4.496798500E0;7.878416032E-2;-2.427403927E-1;-1.809906401E-2
4.508711000E0;9.901253134E-2;-2.544515431E-1;-3.193952516E-2
4.520621937E0;8.197811246E-2;-1.948311031E-1;-1.384046115E-2
4.532534437E0;4.258603230E-2;-7.346090674E-2;7.452555932E-3
4.544445375E0;4.258603323E-3;3.726277873E-2;2.448697016E-2
4.556365687E0;-3.087487444E-2;8.197811246E-2;3.300417587E-2
4.568268812E0;-3.619812801E-2;6.494370103E-2;3.087487444E-2
4.580179750E0;-2.129301615E-2;-3.300417587E-2;3.619812801E-2
4.592092250E0;6.387905218E-3;-1.469218135E-1;5.110324174E-2
4.604004750E0;3.619812801E-2;-2.161241174E-1;7.239625603E-2
4.615915687E0;4.152138159E-2;-2.576455176E-1;9.262461960E-2
4.627826625E0;4.684463516E-2;-3.066194355E-1;9.794788063E-2
4.639739125E0;6.707300246E-2;-3.364296556E-1;7.878416032E-2
4.651650062E0;8.410741389E-2;-3.417529166E-1;4.577998444E-2
4.663562562E0;8.943066746E-2;-3.289771080E-1;2.448697016E-2
4.675473500E0;6.707300246E-2;-2.789385319E-1;3.193952516E-2
4.687384437E0;3.087487444E-2;-1.831199378E-1;4.045673087E-2
4.699296937E0;-7.452555932E-3;-3.726277873E-2;3.300417587E-2
4.711207875E0;-1.809906401E-2;4.365068302E-2;4.684463516E-2
4.723146937E0;-2.129301615E-2;9.155996889E-2;5.429719388E-2
4.735036000E0;-6.387905218E-3;1.139176413E-1;4.471533373E-2
4.746943812E0;1.384046115E-2;9.794788063E-2;4.897394031E-2
4.758854750E0;4.471533373E-2;7.452555932E-3;6.174974889E-2
4.770770375E0;7.133160532E-2;-8.943066746E-2;7.133160532E-2
4.782678187E0;9.155996889E-2;-2.108008713E-1;8.410741389E-2
4.794589125E0;1.075297371E-1;-2.714859545E-1;8.730136603E-2
4.806500062E0;1.171115935E-1;-2.885203660E-1;8.410741389E-2
4.818412562E0;1.107236892E-1;-2.895850241E-1;5.749114603E-2
4.830323500E0;8.197811246E-2;-2.597748041E-1;1.384046115E-2
4.842236000E0;5.962044746E-2;-1.884431988E-1;-9.581857361E-3
4.854146937E0;3.406882659E-2;-1.075297371E-1;-1.277581044E-2
4.866057875E0;7.452555932E-3;-4.577998444E-2;1.596976258E-2
4.877973500E0;-2.129301662E-3;3.193952609E-3;3.513347730E-2
4.889881312E0;-1.916371472E-2;2.129301615E-2;5.110324174E-2
4.901793812E0;-2.661627159E-2;4.258603230E-2;4.790928960E-2
4.913704750E0;-3.939208016E-2;8.197811246E-2;4.471533373E-2
4.925618812E0;-6.600835174E-2;8.730136603E-2;6.387905031E-2
4.937528187E0;-6.281439960E-2;9.475392103E-2;7.026695460E-2
4.949439125E0;-4.577998444E-2;8.517206460E-2;2.768092230E-2
4.961351625E0;-2.342231758E-2;5.003859103E-2;-3.193952516E-2
4.973262562E0;-1.171115879E-2;7.346090674E-2;-6.068509817E-2
4.985175062E0;-4.258603230E-2;1.075297371E-1;-1.000771821E-1
4.997086000E0;-7.559020817E-2;9.049531817E-2;-1.426632106E-1
5.008996937E0;-1.139176413E-1;3.300417587E-2;-1.565036774E-1
5.020909437E0;-1.607622802E-1;-2.768092230E-2;-1.586329788E-1
5.032820375E0;-1.671501845E-1;-8.836601675E-2;-1.405339092E-1
5.044731312E0;-1.447925121E-1;-1.054004356E-1;-1.000771821E-1
5.056643812E0;-1.160469428E-1;-8.304276317E-2;-5.536184460E-2
5.068556312E0;-9.368927032E-2;-6.174974889E-2;-3.619812801E-2
5.080467250E0;-9.049531817E-2;-9.049531817E-2;-3.832742944E-2
5.092387562E0;-1.054004356E-1;-1.565036774E-1;-5.536184460E-2
5.104293812E0;-1.171115935E-1;-2.012190074E-1;-8.091346174E-2
5.116201625E0;-1.288227588E-1;-2.704213262E-1;-1.085943878E-1
5.128114125E0;-1.309520602E-1;-3.193952441E-1;-1.107236892E-1
5.140025062E0;-1.288227588E-1;-3.502701223E-1;-7.665485889E-2
5.151937562E0;-1.256287992E-1;-3.566580415E-1;-2.448697016E-2
5.163848500E0;-1.181762442E-1;-3.577226698E-1;3.726277873E-2
5.175759437E0;-8.517206460E-2;-3.662398756E-1;9.368927032E-2
5.187671937E0;-2.555162087E-2;-3.790156841E-1;1.203055456E-1
5.199582875E0;2.874557301E-2;-3.790156841E-1;1.245641485E-1
5.211495375E0;4.471533373E-2;-3.811450005E-1;1.192408949E-1
5.223412562E0;4.045673087E-2;-3.555933833E-1;9.475392103E-2
5.235317250E0;1.490511186E-2;-2.970375717E-1;7.559020817E-2
5.247229750E0;-3.726277873E-2;-2.086715698E-1;7.026695460E-2
5.259140687E0;-9.901253134E-2;-1.203055456E-1;8.410741389E-2
5.271053187E0;-1.309520602E-1;-6.600835174E-2;9.262461960E-2
5.282964125E0;-1.384046078E-1;-2.661627159E-2;9.049531817E-2
5.294875062E0;-1.330813617E-1;-3.513347730E-2;7.878416032E-2
5.306804750E0;-1.181762442E-1;-7.559020817E-2;5.642649531E-2
5.318698500E0;-1.064650863E-1;-1.054004356E-1;2.768092230E-2
5.330614125E0;-1.054004356E-1;-1.149822921E-1;1.809906401E-2
5.342523500E0;-1.160469428E-1;-1.117883399E-1;3.300417587E-2
5.354432875E0;-1.277581006E-1;-8.623671532E-2;6.387905031E-2
5.366345375E0;-1.309520602E-1;-6.600835174E-2;7.878416032E-2
5.378256312E0;-1.117883399E-1;-1.203055456E-1;8.091346174E-2
5.390168812E0;-7.771950960E-2;-1.884431988E-1;7.133160532E-2
5.402079750E0;-2.874557301E-2;-2.267706245E-1;7.026695460E-2
5.413990687E0;3.406882659E-2;-2.757445574E-1;7.452555746E-2
5.425903187E0;9.581857920E-2;-2.831971347E-1;7.346090674E-2
5.437814125E0;1.522450745E-1;-2.533869147E-1;8.091346174E-2
5.449726625E0;1.820552945E-1;-2.523222566E-1;9.688322991E-2
5.461637562E0;1.873785406E-1;-2.736152709E-1;1.139176413E-1
5.473548500E0;1.809906363E-1;-2.480636388E-1;1.192408949E-1
5.485461000E0;1.703441292E-1;-2.427403927E-1;1.234994978E-1
5.497371937E0;1.511804163E-1;-2.576455176E-1;1.203055456E-1
5.509286000E0;1.415985674E-1;-2.299645841E-1;1.032711342E-1
5.521195375E0;1.203055456E-1;-1.990897059E-1;9.688322991E-2
5.533107875E0;8.091346174E-2;-1.905725002E-1;1.000771821E-1
5.545018812E0;7.239625603E-2;-1.171115935E-1;7.239625603E-2
5.556929750E0;7.239625603E-2;-9.581857361E-3;1.171115879E-2
5.568842250E0;4.471533373E-2;5.110324174E-2;-3.939208016E-2
5.580753187E0;5.323254038E-3;5.003859103E-2;-6.387905031E-2
5.592665687E0;-4.152138159E-2;1.277581044E-2;-7.984881103E-2
5.604576625E0;-6.387905031E-2;-2.874557301E-2;-6.068509817E-2
5.616489125E0;-5.323254317E-2;-8.091346174E-2;-3.193952609E-3
5.628406312E0;-3.300417587E-2;-1.192408949E-1;5.110324174E-2
5.640311000E0;-2.129301662E-3;-1.671501845E-1;8.943066746E-2
5.652234437E0;3.832742944E-2;-2.267706245E-1;1.352106631E-1
5.664134437E0;1.011418328E-1;-2.757445574E-1;1.554390192E-1
5.676046937E0;1.724734306E-1;-2.693566680E-1;1.373399645E-1
5.687957875E0;2.352878302E-1;-2.469989955E-1;1.192408949E-1
5.699870375E0;2.629687488E-1;-2.214473784E-1;9.049531817E-2
5.711781312E0;2.565808594E-1;-2.203827202E-1;5.323254317E-2
5.723693812E0;2.480636388E-1;-2.342231870E-1;4.258603230E-2
5.735604750E0;2.459343374E-1;-2.587101460E-1;5.855579674E-2
5.747515687E0;2.640334070E-1;-2.246413231E-1;9.049531817E-2
5.759428187E0;2.693566680E-1;-1.458571702E-1;1.373399645E-1
5.771339125E0;2.416757345E-1;-6.813765317E-2;1.927018017E-1
5.783250062E0;2.033483088E-1;-4.258603230E-2;2.757445574E-1
5.795162562E0;1.873785406E-1;6.387905218E-3;3.832743168E-1
5.807079750E0;2.565808594E-1;6.068509817E-2;4.141491652E-1
5.818986000E0;3.353650272E-1;7.559020817E-2;3.619812727E-1
5.830903187E0;4.141491652E-1;4.258603230E-2;2.501929402E-1
5.842809437E0;4.428947568E-1;-1.384046115E-2;1.394692659E-1
5.854720375E0;4.397007823E-1;-8.623671532E-2;3.087487444E-2
5.866631312E0;4.173431396E-1;-1.341460049E-1;-9.581857361E-3
5.878545375E0;3.822096586E-1;-1.575683206E-1;-3.193952609E-3
5.890454750E0;3.300417662E-1;-1.916371584E-1;2.555162087E-2
5.902367250E0;2.746799290E-1;-2.427403927E-1;5.216789246E-2
5.914278187E0;2.203827202E-1;-3.215245605E-1;7.239625603E-2
5.926192250E0;1.777966917E-1;-3.470761776E-1;8.943066746E-2
5.938101625E0;1.575683206E-1;-3.098133802E-1;1.117883399E-1
5.950012562E0;1.554390192E-1;-2.416757345E-1;1.181762442E-1
5.961923500E0;1.650208831E-1;-1.671501845E-1;1.139176413E-1
5.973836000E0;1.841845959E-1;-9.688322991E-2;8.730136603E-2
5.985746937E0;1.916371584E-1;-6.068509817E-2;4.684463516E-2
5.997659437E0;1.831199378E-1;-5.962044746E-2;3.193952609E-3
6.009570375E0;1.501157731E-1;-7.026695460E-2;-9.581857361E-3
6.021482875E0;9.688322991E-2;-8.836601675E-2;-4.258603323E-3
6.033393812E0;5.323254317E-2;-1.277581006E-1;1.490511186E-2
6.045311000E0;2.874557301E-2;-1.533097178E-1;3.726277873E-2
6.057221937E0;2.022836544E-2;-1.469218135E-1;6.387905031E-2
6.069128187E0;2.661627159E-2;-1.288227588E-1;9.049531817E-2
6.081040687E0;6.068509817E-2;-1.437278688E-1;1.085943878E-1
6.092951625E0;1.160469428E-1;-2.150594741E-1;9.688322991E-2
6.104864125E0;1.671501845E-1;-2.746799290E-1;7.026695460E-2
6.116778187E0;1.927018017E-1;-3.247185051E-1;4.045673087E-2
6.128686000E0;1.990897059E-1;-3.566580415E-1;3.832742944E-2
6.140598500E0;1.927018017E-1;-3.577226698E-1;9.475392103E-2
6.152511000E0;1.905725002E-1;-3.481408358E-1;1.884431988E-1
6.164421937E0;1.958957613E-1;-2.629687488E-1;2.587101460E-1
6.176336000E0;1.682148278E-1;-1.203055456E-1;3.119426966E-1
6.188248500E0;1.117883399E-1;-3.726277873E-2;3.396236300E-1
6.200156312E0;7.771950960E-2;-6.387905031E-2;3.374943137E-1
6.212068812E0;8.623671532E-2;-1.298874021E-1;3.023608327E-1
6.223982875E0;1.373399645E-1;-2.139948159E-1;2.629687488E-1
6.235893812E0;2.054776102E-1;-3.523994386E-1;2.310292274E-1
6.247803187E0;2.800031602E-1;-5.184849501E-1;2.086715698E-1
6.259714125E0;3.396236300E-1;-5.227435827E-1;2.193180770E-1
6.271626625E0;3.981794119E-1;-4.311835766E-1;2.789385319E-1
6.283545375E0;4.269249737E-1;-3.321710527E-1;3.087487519E-1
6.295451625E0;4.450240433E-1;-2.523222566E-1;3.044901490E-1
6.307361000E0;4.641877711E-1;-2.831971347E-1;2.789385319E-1
6.319271937E0;4.854807854E-1;-4.556705654E-1;2.555162013E-1
6.331184437E0;5.365840197E-1;-7.282211781E-1;2.459343374E-1
6.343095375E0;5.866225958E-1;-1.027388096E0;2.576455176E-1
6.355009437E0;5.493598580E-1;-1.147693634E0;2.576455176E-1
6.366918812E0;1.937664598E-1;-1.156210780E0;2.086715698E-1
6.378829750E0;-1.873785406E-1;-1.237124324E0;1.937664598E-1
6.390742250E0;-2.959729433E-1;-1.100848913E0;1.916371584E-1
6.402656312E0;-2.139948159E-1;-8.634318113E-1;2.033483088E-1
6.414564125E0;-1.224348471E-1;-5.685235262E-1;2.065422684E-1
6.426476625E0;-7.771950960E-2;-3.949854672E-1;1.905725002E-1
6.438387562E0;-1.277581044E-2;-3.076840937E-1;1.160469428E-1
6.450300062E0;5.003859103E-2;-2.810678184E-1;-2.661627159E-2
6.462211000E0;1.149822921E-1;-3.907268643E-1;-1.682148278E-1
6.474121937E0;1.863138974E-1;-5.174202919E-1;-2.459343374E-1
6.486034437E0;2.757445574E-1;-6.526309848E-1;-2.810678184E-1
6.497945375E0;3.673045337E-1;-7.601606846E-1;-2.363524884E-1
6.509857875E0;4.482180178E-1;-7.803890705E-1;-1.533097178E-1
6.521768812E0;4.716403186E-1;-7.346090674E-1;-5.962044746E-2
6.533679750E0;4.524766207E-1;-6.579542160E-1;3.300417587E-2
6.545590687E0;3.939208090E-1;-6.004630923E-1;1.022064835E-1
6.557503187E0;3.481408358E-1;-6.206914186E-1;1.203055456E-1
6.569415687E0;3.374943137E-1;-5.993984342E-1;9.262461960E-2
6.581326625E0;3.492054641E-1;-5.727821589E-1;7.771950960E-2
6.593237562E0;3.555933833E-1;-5.738468170E-1;7.559020817E-2
6.605150062E0;3.641105890E-1;-5.781053901E-1;7.452555746E-2
6.617061000E0;3.800803423E-1;-6.398551464E-1;3.832742944E-2
6.628973500E0;4.343775511E-1;-7.346090674E-1;-4.684463516E-2
6.640884437E0;5.067738295E-1;-7.771950960E-1;-8.623671532E-2
6.652796937E0;5.908812284E-1;-7.825183868E-1;-4.365068302E-2
6.664707875E0;6.835058331E-1;-6.930876970E-1;2.342231758E-2
6.676620375E0;8.165872097E-1;-5.770407319E-1;3.939208016E-2
6.688531312E0;9.315694571E-1;-5.419072509E-1;-1.064650831E-3
6.700445375E0;9.571211338E-1;-5.898165703E-1;-3.406882659E-2
6.712354750E0;8.740783334E-1;-6.345319152E-1;-7.133160532E-2
6.724286000E0;7.559021115E-1;-6.100449562E-1;-9.901253134E-2
6.736178187E0;6.451784372E-1;-5.323254466E-1;-1.266934574E-1
6.748089125E0;5.685235262E-1;-4.237310290E-1;-1.490511149E-1
6.760000062E0;5.216789246E-1;-3.438822329E-1;-1.628915817E-1
6.771912562E0;5.046445131E-1;-3.523994386E-1;-1.767320335E-1
6.783823500E0;5.014505386E-1;-3.662398756E-1;-2.225120217E-1
6.795736000E0;5.142263770E-1;-3.981794119E-1;-2.778738737E-1
6.807646937E0;5.323254466E-1;-4.343775511E-1;-3.023608327E-1
6.819557875E0;5.099677444E-1;-4.216017425E-1;-3.076840937E-1
6.831470375E0;4.407654405E-1;-3.885975480E-1;-3.374943137E-1
6.843381312E0;3.417529166E-1;-3.715631366E-1;-3.449468613E-1
6.855293812E0;2.746799290E-1;-2.693566680E-1;-2.789385319E-1
6.867204750E0;2.406110913E-1;-2.108008713E-1;-2.427403927E-1
6.879120375E0;2.480636388E-1;-2.363524884E-1;-2.576455176E-1
6.891028187E0;2.352878302E-1;-2.682920098E-1;-2.768092155E-1
6.902939125E0;2.054776102E-1;-2.587101460E-1;-2.597748041E-1
6.914851625E0;2.054776102E-1;-2.342231870E-1;-2.448696941E-1
6.926762562E0;1.841845959E-1;-1.746027321E-1;-2.714859545E-1
6.938676625E0;1.618269235E-1;-1.671501845E-1;-2.831971347E-1
6.950586000E0;1.777966917E-1;-1.895078421E-1;-2.874557376E-1
6.962496937E0;1.714087874E-1;-1.799259931E-1;-2.682920098E-1
6.974409437E0;1.618269235E-1;-1.863138974E-1;-2.076069117E-1
6.986320375E0;1.852492392E-1;-2.118655145E-1;-1.298874021E-1
6.998239125E0;1.447925121E-1;-2.714859545E-1;-1.011418328E-1
7.010143812E0;1.000771821E-1;-2.512575984E-1;-9.901253134E-2
7.022054750E0;7.026695460E-2;-2.097362131E-1;-7.878416032E-2
7.033967250E0;7.452555746E-2;-1.692794859E-1;-9.581857920E-2
7.045878187E0;1.245641485E-1;-2.150594741E-1;-1.554390192E-1
7.057790687E0;1.756673902E-1;-2.853264213E-1;-2.203827202E-1
7.069706312E0;2.171887755E-1;-3.108780384E-1;-2.640334070E-1
7.081614125E0;2.225120217E-1;-3.172659576E-1;-3.066194355E-1
7.093525062E0;2.416757345E-1;-3.960501254E-1;-3.279124498E-1
7.105437562E0;2.736152709E-1;-4.588645101E-1;-2.672273517E-1
7.117367250E0;2.619041204E-1;-3.704984784E-1;-2.267706245E-1
7.129259437E0;2.416757345E-1;-3.108780384E-1;-2.044129670E-1
7.141171937E0;2.108008713E-1;-3.066194355E-1;-2.299645841E-1
7.153082875E0;1.937664598E-1;-2.981022298E-1;-2.544515431E-1
7.164995375E0;1.565036774E-1;-1.330813617E-1;-2.661627233E-1
7.176906312E0;1.362753063E-1;-2.555162087E-2;-2.406110913E-1
7.188818812E0;1.022064835E-1;-4.577998444E-2;-2.331585288E-1
7.200729750E0;9.262461960E-2;-1.320167035E-1;-2.640334070E-1
7.212640687E0;1.054004356E-1;-1.958957613E-1;-3.119426966E-1
7.224553187E0;1.117883399E-1;-1.863138974E-1;-3.321710527E-1
7.236464125E0;1.107236892E-1;-1.958957613E-1;-3.183306158E-1
7.248378187E0;1.234994978E-1;-2.608394623E-1;-3.523994386E-1
7.260287562E0;1.085943878E-1;-3.183306158E-1;-4.205370843E-1
7.272198500E0;5.429719388E-2;-2.704213262E-1;-4.088259339E-1
7.284114125E0;7.133160532E-2;-2.235766798E-1;-3.428175747E-1
7.296023500E0;1.650208831E-1;-1.884431988E-1;-3.140719831E-1
7.307932875E0;2.427403927E-1;-2.086715698E-1;-2.778738737E-1
7.319845375E0;2.736152709E-1;-2.331585288E-1;-2.320938855E-1
7.331756312E0;2.704213262E-1;-2.288999259E-1;-2.150594741E-1
7.343668812E0;2.757445574E-1;-2.310292274E-1;-1.820552945E-1
7.355579750E0;2.917143404E-1;-2.235766798E-1;-1.426632106E-1
7.367492250E0;2.927789688E-1;-2.246413231E-1;-1.341460049E-1
7.379403187E0;2.480636388E-1;-1.522450745E-1;-7.346090674E-2
7.391314125E0;1.277581006E-1;-2.555162087E-2;-3.193952516E-2
7.403226625E0;8.730136603E-2;-5.323254317E-2;-1.107236892E-1
7.415137562E0;1.224348471E-1;-1.756673902E-1;-1.884431988E-1
7.427050062E0;1.543743759E-1;-1.554390192E-1;-2.086715698E-1
7.438961000E0;1.490511149E-1;8.623671532E-2;-1.714087874E-1
7.450871937E0;9.688322991E-2;1.735380888E-1;-2.257059813E-1
7.462782875E0;-3.939208016E-2;1.085943878E-1;-2.555162013E-1
7.474704750E0;-9.368927032E-2;1.213701963E-1;-2.906496823E-1
7.486612562E0;-7.452555746E-2;1.703441292E-1;-3.044901490E-1
7.498523500E0;-4.897394031E-2;1.682148278E-1;-2.970375717E-1
7.510429750E0;-3.726277873E-2;1.224348471E-1;-2.459343374E-1
7.522342250E0;-2.129301662E-3;1.384046115E-2;-1.714087874E-1
7.534253187E0;5.216789246E-2;-6.813765317E-2;-1.107236892E-1
7.546165687E0;1.022064835E-1;-1.054004356E-1;-3.087487444E-2
7.558076625E0;1.203055456E-1;-1.054004356E-1;-1.596976258E-2
7.569989125E0;1.213701963E-1;-5.323254317E-2;-1.703441329E-2
7.581900062E0;1.181762442E-1;5.536184460E-2;2.981022373E-2
7.593812562E0;8.943066746E-2;6.174974889E-2;4.684463516E-2
7.605723500E0;4.365068302E-2;1.352106631E-1;1.000771821E-1
7.617634437E0;1.490511186E-2;2.544515431E-1;1.852492392E-1
7.629546937E0;-9.581857361E-3;3.034254909E-1;2.491282970E-1
7.641457875E0;-5.642649531E-2;2.959729433E-1;2.821324766E-1
7.653384437E0;-8.410741389E-2;2.501929402E-1;1.139176413E-1
7.665281312E0;-5.962044746E-2;1.054004356E-1;1.916371472E-2
7.677192250E0;-1.171115879E-2;4.045673087E-2;1.596976258E-2
7.689104750E0;3.193952609E-3;7.559020817E-2;6.281439960E-2
7.701036000E0;-1.809906401E-2;1.437278688E-1;1.362753063E-1
7.712937562E0;-5.749114603E-2;1.714087874E-1;1.788613349E-1
7.724839125E0;-1.181762442E-1;1.171115935E-1;1.831199378E-1
7.736765687E0;-2.129301727E-1;1.916371472E-2;1.405339092E-1
7.748662562E0;-2.469989955E-1;-9.688322991E-2;1.054004356E-1
7.760573500E0;-2.065422684E-1;-1.341460049E-1;5.536184460E-2
7.772486000E0;-9.475392103E-2;-1.501157731E-1;1.064650831E-3
7.784396937E0;-3.726277873E-2;-2.267706245E-1;-2.448697016E-2
7.796309437E0;-2.661627159E-2;-2.044129670E-1;-3.406882659E-2
7.808220375E0;-1.809906401E-2;-1.458571702E-1;3.193952516E-2
7.820132875E0;4.045673087E-2;-1.373399645E-1;8.197811246E-2
7.832043812E0;2.022836544E-2;-1.863138974E-1;4.790928960E-2
7.843954750E0;-8.517206647E-3;-1.714087874E-1;2.981022373E-2
7.855865687E0;-2.555162087E-2;-1.064650863E-1;3.619812801E-2
7.867778187E0;-3.193952516E-2;-2.768092230E-2;3.832742944E-2
7.879689125E0;-2.235766686E-2;-6.387905218E-3;-8.517206647E-3
7.891606312E0;-1.064650808E-2;2.129301615E-2;-5.003859103E-2
7.903515687E0;2.342231758E-2;-1.171115935E-1;-5.429719388E-2
7.915425062E0;3.513347730E-2;-2.012190074E-1;-1.916371472E-2
7.927336000E0;6.281439960E-2;-1.298874021E-1;6.068509817E-2
7.939246937E0;9.368927032E-2;-4.152138159E-2;1.192408949E-1
7.951164125E0;1.447925121E-1;-5.642649531E-2;1.490511149E-1
7.963070375E0;2.480636388E-1;-1.628915817E-1;1.160469428E-1
7.974982875E0;4.620584548E-1;-3.673045337E-1;3.193952609E-3
7.986893812E0;6.260147095E-1;-4.705756605E-1;-6.600835174E-2
7.998804750E0;6.036570072E-1;-4.758989215E-1;1.479864717E-1
8.010723500E0;2.235766798E-1;-2.246413231E-1;1.032711342E-1
8.022628187E0;-5.642649531E-2;-6.494370103E-2;-5.110324174E-2
8.034540687E0;-4.790928960E-2;-1.916371584E-1;-6.174974889E-2
8.046451625E0;-5.642649531E-2;7.346090674E-2;4.258603323E-3
8.058364125E0;-8.517206647E-3;2.139948159E-1;1.032711342E-1
8.070275062E0;-2.768092230E-2;2.331585288E-1;7.346090674E-2
8.082187562E0;-6.920230389E-2;2.171887755E-1;-1.916371472E-2
8.094098500E0;-1.096590385E-1;1.596976221E-1;-6.281439960E-2
8.106009437E0;-1.075297371E-1;2.214473784E-1;-8.197811246E-2
8.117921937E0;-1.107236892E-1;3.374943137E-1;-8.730136603E-2
8.129839125E0;-1.405339092E-1;3.662398756E-1;-6.920230389E-2
8.141745375E0;-1.767320335E-1;3.023608327E-1;-3.193952516E-2
8.153656312E0;-1.181762442E-1;1.873785406E-1;-1.064650808E-2
8.165568812E0;-2.555162087E-2;1.192408949E-1;4.365068302E-2
8.177479750E0;-2.129301615E-2;1.266934574E-1;4.684463516E-2
8.189390687E0;-2.874557301E-2;8.836601675E-2;3.513347730E-2
8.201304750E0;4.258603323E-3;1.011418328E-1;1.703441329E-2
8.213214125E0;2.342231758E-2;1.277581006E-1;-1.064650831E-3
8.225131312E0;-1.064650831E-3;1.511804163E-1;-1.384046115E-2
8.237043812E0;-7.984881103E-2;2.097362131E-1;-4.258603230E-2
8.248948500E0;-1.565036774E-1;3.076840937E-1;-6.600835174E-2
8.260861000E0;-2.257059813E-1;3.811450005E-1;-7.346090674E-2
8.272771937E0;-2.927789688E-1;2.981022298E-1;-7.452555746E-2
8.284684437E0;-3.758217394E-1;2.821324766E-1;-1.011418328E-1
8.296595375E0;-5.270021558E-1;-4.247956872E-1;1.586329788E-1
8.308512562E0;-4.397007823E-1;-6.366612315E-1;3.279124498E-1
8.320418812E0;-2.459343374E-1;-4.971919358E-1;4.577998519E-1
8.332329750E0;-7.452555746E-2;-7.984881103E-2;5.589416623E-1
8.344242250E0;-1.809906401E-2;3.055547774E-1;5.812993646E-1
8.356153187E0;-7.026695460E-2;6.036570072E-1;5.461658835E-1
8.368064125E0;-1.352106631E-1;6.547602415E-1;5.206142664E-1
8.379976625E0;-2.022836655E-1;6.121742129E-1;5.461658835E-1
8.391887562E0;-3.343003690E-1;6.494370103E-1;5.600063205E-1
8.403798500E0;-4.524766207E-1;7.665486336E-1;6.228207350E-1
8.415711000E0;-4.822868407E-1;9.826727509E-1;7.729365230E-1
8.427621937E0;-4.428947568E-1;1.028452754E0;8.708843589E-1
8.439537562E0;-3.523994386E-1;8.368155360E-1;9.134704471E-1
8.451445375E0;-2.406110913E-1;4.503473043E-1;8.517206907E-1
8.463357875E0;-2.033483088E-1;1.703441292E-1;6.302732825E-1
8.475268812E0;-1.724734306E-1;-2.981022373E-2;6.707300246E-2
8.487179750E0;-1.639562249E-1;5.003859103E-2;-7.984881103E-2
8.499092250E0;-2.565808594E-1;1.160469428E-1;4.790928960E-2
8.511003187E0;-3.619812727E-1;1.298874021E-1;2.491282970E-1
8.522914125E0;-4.311835766E-1;7.346090674E-2;3.609166443E-1
8.534826625E0;-2.438050359E-1;7.569667697E-1;8.698197603E-1
8.546737562E0;-2.203827202E-1;1.401080489E0;7.580313683E-1
8.558650062E0;-3.130073547E-1;1.189214945E0;6.419844627E-1
8.570564125E0;-4.833514690E-1;9.922545552E-1;7.633546591E-1
8.582475062E0;-5.163556337E-1;8.101992607E-1;7.889062762E-1
8.594384437E0;-4.492826462E-1;5.844933391E-1;6.739239693E-1
8.606296937E0;-4.290542901E-1;4.247956872E-1;4.982565939E-1
8.618211000E0;-3.864682615E-1;3.002315462E-1;2.938436270E-1
8.630120375E0;-2.949082851E-1;2.310292274E-1;1.096590385E-1
8.642031312E0;-1.980250627E-1;1.490511149E-1;-5.642649531E-2
8.653943812E0;-1.373399645E-1;3.193952516E-2;-2.374171317E-1
8.665856312E0;-1.107236892E-1;-1.746027321E-1;-3.204599023E-1
8.677767250E0;-5.003859103E-2;-4.492826462E-1;-3.704984784E-1
8.689678187E0;-7.452555932E-3;-7.122514248E-1;-3.630459309E-1
8.701589125E0;0.000000000E0;-7.963588238E-1;-2.512575984E-1
8.713501625E0;1.107236892E-1;-8.485267162E-1;-1.575683206E-1
8.725415687E0;3.204599023E-1;-8.346862793E-1;4.152138159E-2
8.737325062E0;3.034254909E-1;-8.794015646E-1;1.085943878E-1
8.749236000E0;2.235766686E-2;-1.271193147E0;2.012190074E-1
8.761146937E0;-1.511804163E-1;-1.160469413E0;4.833514690E-1
8.773059437E0;-1.692794859E-1;-6.302732825E-1;8.474620581E-1
8.784989125E0;-2.352878302E-1;-2.395464331E-1;1.127465248E0
8.796882875E0;-2.959729433E-1;-6.920230389E-2;1.345718622E0
8.808793812E0;-2.384817898E-1;-1.852492392E-1;1.535226464E0
8.820704750E0;-7.984881103E-2;-3.247185051E-1;1.670437217E0
8.832617250E0;1.043357849E-1;-4.035026729E-1;1.755609274E0
8.844540687E0;1.788613349E-1;-4.758989215E-1;1.678954363E0
8.856439125E0;1.969604045E-1;-6.121742129E-1;1.548002362E0
8.868351625E0;1.820552945E-1;-5.887519121E-1;1.340395451E0
8.880262562E0;1.064650831E-3;-4.120198786E-1;1.045487165E0
8.892175062E0;-4.652524292E-1;-5.887519121E-1;7.793244123E-1
8.904093812E0;-8.655611277E-1;-7.079927921E-1;6.153681874E-1
8.916000062E0;-9.060178399E-1;-5.844933391E-1;5.589416623E-1
8.927909437E0;-6.111095548E-1;-6.366612315E-1;6.143035293E-1
8.939820375E0;-4.833514690E-1;-2.555162013E-1;7.303504944E-1
8.951732875E0;-5.387133360E-1;2.044129670E-1;8.070053458E-1
8.963646937E0;-5.301961303E-1;5.248728395E-1;8.666257858E-1
8.975556312E0;-3.523994386E-1;7.505788207E-1;8.687551022E-1
8.987467250E0;-2.438050359E-1;8.229750991E-1;7.111867666E-1
8.999378187E0;-2.512575984E-1;7.399323583E-1;4.939979911E-1
9.011290687E0;-2.171887755E-1;5.419072509E-1;3.555933833E-1
9.023201625E0;-3.268478215E-1;9.358280897E-1;5.940751433E-1
9.035114125E0;-1.575683206E-1;9.241169095E-1;5.174202919E-1
9.047025062E0;-1.139176413E-1;5.078384280E-1;2.789385319E-1
9.058937562E0;-2.661627233E-1;7.559020817E-2;2.650980651E-1
9.070848500E0;-4.556705654E-1;-1.905725002E-1;3.747570813E-1
9.082759437E0;-4.652524292E-1;-1.671501845E-1;3.683691919E-1
9.094671937E0;-3.917915225E-1;2.874557301E-2;2.597748041E-1
9.106582875E0;-3.364296556E-1;8.943066746E-2;1.511804163E-1
9.118495375E0;-2.299645841E-1;2.193180770E-1;2.469989955E-1
9.130406312E0;-2.501929402E-1;3.715631366E-1;4.237310290E-1
9.142320375E0;-2.533869147E-1;5.014505386E-1;5.280668139E-1
9.154229750E0;-2.001543641E-1;4.727049768E-1;5.727821589E-1
9.166145375E0;-2.672273517E-1;4.716403186E-1;5.365840197E-1
9.178053187E0;-2.108008713E-1;8.006174564E-1;3.034254909E-1
9.189964125E0;1.117883399E-1;6.377258301E-1;5.323254317E-2
9.201876625E0;1.565036774E-1;3.225892186E-1;1.799259931E-1
9.213787562E0;1.820552945E-1;2.374171317E-1;4.365068376E-1
9.225706312E0;1.650208831E-1;4.673817158E-1;6.409198046E-1
9.237611000E0;1.352106631E-1;8.602378964E-1;7.324797511E-1
9.249521937E0;3.939208016E-2;1.138111711E0;1.129594564E0
9.261436000E0;-1.756673902E-1;1.217960596E0;1.253094077E0
9.273354750E0;-4.397007823E-1;1.160469413E0;1.240318179E0
9.285257875E0;-8.272337317E-1;1.071038723E0;1.061456919E0
9.297168812E0;-1.343589306E0;8.740783334E-1;4.482180178E-1
9.309079750E0;-1.419179559E0;8.921774030E-1;-2.459343374E-1
9.320992250E0;-1.468153477E0;1.081685305E0;-3.268478215E-1
9.332903187E0;-5.844933391E-1;9.305048585E-1;1.863138974E-1
9.344814125E0;2.725506127E-1;5.642649531E-2;3.502701223E-1
9.356726625E0;1.895078421E-1;2.203827202E-1;2.842617631E-1
9.368637562E0;1.533097178E-1;1.288227588E-1;4.184077680E-1
9.380550062E0;2.129301727E-1;4.088259339E-1;4.929333329E-1
9.392464125E0;4.130845368E-1;4.588645101E-1;4.450240433E-1
9.404371937E0;5.674588680E-1;-7.346090674E-2;2.448697016E-2
9.416284437E0;4.098905623E-1;-6.600835323E-1;-3.992440701E-1
9.428195375E0;4.152138159E-2;-4.460887015E-1;-3.768863976E-1
9.440107875E0;-1.980250627E-1;2.299645841E-1;-3.300417662E-1
9.452020375E0;-2.672273517E-1;6.313379407E-1;-2.895850241E-1
9.463929750E0;-2.161241174E-1;9.379574060E-1;-5.972691178E-1
9.475842250E0;-4.684463516E-2;8.261690736E-1;-8.229750991E-1
9.487753187E0;6.387905031E-2;3.140719831E-1;-6.536956429E-1
9.499682875E0;8.091346174E-2;2.406110913E-1;2.086715698E-1
9.511576625E0;-9.581857361E-3;2.384817898E-1;-6.707300246E-2
9.523487562E0;-2.012190074E-1;7.740011811E-1;5.791700482E-1
9.535400062E0;-2.352878302E-1;1.090202451E0;2.267706245E-1
9.547311000E0;-7.984881103E-2;9.092118144E-1;1.256287992E-1
9.559223500E0;6.920230389E-2;3.917915225E-1;1.277581044E-2
9.571134437E0;1.671501845E-1;-1.639562249E-1;-6.281439960E-2
9.583046937E0;2.501929402E-1;-6.568895578E-1;-3.513347730E-2
9.594957875E0;3.311064243E-1;-1.032711267E0;-3.513347730E-2
9.606870375E0;3.609166443E-1;-1.215831280E0;-8.517206460E-2
9.618781312E0;2.459343374E-1;-1.123206615E0;-1.437278688E-1
9.630695375E0;1.394692659E-1;-6.973463297E-1;-2.054776102E-1
9.642604750E0;4.790928960E-2;-1.139176413E-1;-1.533097178E-1
9.654515687E0;-7.026695460E-2;1.777966917E-1;-1.469218135E-1
9.666432875E0;-9.049531817E-2;5.429719388E-2;-1.384046078E-1
9.678339125E0;-1.809906401E-2;-2.225120217E-1;-2.842617631E-1
9.690251625E0;4.365068302E-2;-4.897393882E-1;-3.907268643E-1
9.702162562E0;1.011418328E-1;-7.207686305E-1;-3.811450005E-1
9.714075062E0;1.607622802E-1;-7.463202477E-1;-3.960501254E-1
9.725986000E0;2.203827202E-1;-6.313379407E-1;-3.587873280E-1
9.737896937E0;2.480636388E-1;-5.408426523E-1;-2.746799290E-1
9.749809437E0;1.916371584E-1;-6.196267605E-1;-1.075297371E-1
9.761720375E0;1.724734306E-1;-8.804662228E-1;9.368927032E-2
9.773631312E0;1.990897059E-1;-1.296744704E0;2.970375717E-1
9.785543812E0;2.278352827E-1;-1.691730142E0;4.035026729E-1
9.797459437E0;2.076069117E-1;-2.070745945E0;4.407654405E-1
9.809367250E0;1.628915817E-1;-2.307098389E0;4.865454435E-1
9.821278187E0;4.577998444E-2;-2.214473724E0;5.461658835E-1
9.833189125E0;1.916371472E-2;-1.612946033E0;5.695881844E-1
9.845101625E0;2.555162013E-1;-7.058635354E-1;6.792472601E-1
9.857012562E0;4.130845368E-1;-3.566580415E-1;8.091346622E-1
9.868925062E0;4.439594150E-1;-3.768863976E-1;9.028239250E-1
9.880853187E0;3.907268643E-1;-5.323254466E-1;8.389448524E-1
9.892746937E0;3.641105890E-1;-5.802347064E-1;6.877644658E-1
9.904659437E0;4.876100719E-1;-5.003858805E-1;7.314151525E-1
9.916581312E0;5.993984342E-1;-3.651752472E-1;8.655611277E-1
9.928486000E0;3.822096586E-1;-1.469218135E-1;7.527081370E-1
9.940393812E0;2.650980651E-1;-3.779510558E-1;5.387133360E-1
9.952304750E0;3.353650272E-1;-3.289771080E-1;5.493598580E-1
9.964217250E0;4.205370843E-1;-1.213701963E-1;5.493598580E-1
9.976128187E0;4.013733566E-1;-1.575683206E-1;4.822868407E-1
9.988040687E0;3.108780384E-1;-2.853264213E-1;4.982565939E-1
9.999951625E0;1.522450745E-1;-2.459343374E-1;6.004630923E-1
1.001186256E1;9.688322991E-2;2.768092230E-2;7.548374534E-1
1.002377506E1;1.160469428E-1;4.045673311E-1;8.219104409E-1
1.003568600E1;2.054776102E-1;5.504244566E-1;8.911127448E-1
1.004760162E1;3.779510558E-1;5.216789246E-1;9.187936783E-1
1.005952038E1;4.854807854E-1;4.013733566E-1;8.943067193E-1
1.007142194E1;4.173431396E-1;2.491282970E-1;8.187164664E-1
1.008333288E1;3.917915225E-1;1.799259931E-1;6.270793676E-1
1.009524850E1;3.311064243E-1;2.863910794E-1;4.886747301E-1
1.010715788E1;2.416757345E-1;4.588645101E-1;4.173431396E-1
1.011906881E1;6.494370103E-2;6.025923491E-1;3.981794119E-1
1.013097975E1;-2.097362131E-1;6.494370103E-1;2.523222566E-1
1.014289225E1;-5.557477474E-1;8.985652924E-1;1.639562249E-1
1.015480319E1;-8.421388268E-1;1.444731236E0;1.639562249E-1
1.016671412E1;-3.119426966E-1;1.429826021E0;-3.300417587E-2
1.017862663E1;3.822096586E-1;9.241169095E-1;-2.193180770E-1
1.019053756E1;5.323254466E-1;6.206914186E-1;-3.098133802E-1
1.020245006E1;4.258603454E-1;3.662398756E-1;-3.981794119E-1
1.021436100E1;1.362753063E-1;1.575683206E-1;-6.036570072E-1
1.022627194E1;-1.575683206E-1;-1.490511186E-2;-6.430491209E-1
1.023818444E1;-3.673045337E-1;2.097362131E-1;-3.726277947E-1
1.025009538E1;-2.427403927E-1;6.068509817E-1;-2.331585288E-1
1.026200631E1;-9.794788063E-2;1.397886515E0;-1.703441292E-1
1.027391881E1;5.216789246E-2;1.855686426E0;5.429719388E-2
1.028582975E1;1.277581006E-1;1.921694756E0;3.779510558E-1
1.029774225E1;5.536184460E-2;1.590588331E0;4.439594150E-1
1.030965319E1;-6.920230389E-2;1.144499660E0;2.438050359E-1
1.032156412E1;-1.298874021E-1;5.440365672E-1;-1.937664598E-1
1.033347663E1;-3.832742944E-2;2.533869147E-1;-3.843389452E-1
1.034538756E1;3.087487444E-2;1.916371584E-1;-5.099677444E-1
1.035730006E1;3.832742944E-2;2.746799290E-1;-6.334672570E-1
1.036921100E1;-2.768092230E-2;4.780282378E-1;-7.622900009E-1
1.038112194E1;-1.234994978E-1;7.527081370E-1;-9.848020077E-1
1.039303444E1;-2.044129670E-1;1.017806172E0;-1.176439166E0
1.040494538E1;-3.577226698E-1;1.237124324E0;-1.312714458E0
1.041685788E1;-5.461658835E-1;1.475606084E0;-1.321231723E0
1.042876881E1;-7.857123017E-1;1.758803129E0;-1.206249356E0
1.044068131E1;-8.921774030E-1;2.011125326E0;-9.997071624E-1
1.045261256E1;-7.771950960E-1;2.213409185E0;-7.984881401E-1
1.046451100E1;-3.385589719E-1;2.352878332E0;-5.387133360E-1
1.047641569E1;1.075297371E-1;2.184663534E0;-2.320938855E-1
1.048832663E1;2.533869147E-1;1.595911622E0;-2.129301662E-3
1.050023912E1;1.085943878E-1;7.633546591E-1;6.494370103E-2
1.051215006E1;-2.555162087E-2;4.577998444E-2;4.045673087E-2
1.052406256E1;-7.026695460E-2;-2.203827202E-1;8.517206647E-3
1.053597350E1;-7.239625603E-2;-1.682148278E-1;4.045673087E-2
1.054788600E1;-9.155996889E-2;-5.855579674E-2;-7.452555932E-3
1.055979694E1;-9.581857920E-2;2.661627159E-2;7.452555932E-3
1.057170788E1;-4.152138159E-2;4.790928960E-2;2.981022373E-2
1.058362194E1;-3.193952609E-3;3.513347730E-2;1.703441329E-2
1.059553131E1;4.258603323E-3;-1.064650831E-3;-1.277581044E-2
1.060744225E1;2.129301615E-2;-3.087487444E-2;-5.323254038E-3
1.061935475E1;4.471533373E-2;-1.000771821E-1;0.000000000E0
1.063127506E1;3.406882659E-2;-1.298874021E-1;-1.171115879E-2
1.064318131E1;2.129301615E-2;-1.000771821E-1;-1.490511186E-2
1.065508912E1;2.342231758E-2;-3.939208016E-2;-3.087487444E-2
1.066700163E1;2.342231758E-2;1.596976258E-2;-5.536184460E-2
1.067891256E1;1.064650808E-2;5.642649531E-2;-7.771950960E-2
1.069082506E1;-1.064650831E-3;3.513347730E-2;-7.026695460E-2
1.070273600E1;1.384046115E-2;2.129301662E-3;-6.707300246E-2
1.071464694E1;3.513347730E-2;-3.087487444E-2;-5.855579674E-2
1.072655944E1;5.003859103E-2;-6.920230389E-2;-4.045673087E-2
1.073847038E1;2.768092230E-2;-8.517206460E-2;-2.022836544E-2
1.075038288E1;7.452555932E-3;-5.642649531E-2;7.452555932E-3
1.076229381E1;-2.981022373E-2;1.064650808E-2;2.129301615E-2
1.077420475E1;-5.110324174E-2;3.300417587E-2;1.916371472E-2
1.078611725E1;-5.749114603E-2;2.129301615E-2;9.581857361E-3
1.079802819E1;-5.110324174E-2;-8.517206647E-3;1.064650831E-3
1.080994069E1;-3.513347730E-2;-3.619812801E-2;9.581857361E-3
1.082185162E1;-4.045673087E-2;-5.110324174E-2;1.171115879E-2
1.083376256E1;-3.939208016E-2;-9.475392103E-2;1.916371472E-2
1.084567350E1;-2.129301615E-2;-1.469218135E-1;4.045673087E-2
1.085758600E1;-3.193952516E-2;-1.501157731E-1;5.962044746E-2
1.086949850E1;-6.174974889E-2;-1.117883399E-1;5.962044746E-2
1.088140944E1;-8.091346174E-2;-1.011418328E-1;3.939208016E-2
1.089332038E1;-7.239625603E-2;-1.288227588E-1;2.768092230E-2
1.090523288E1;-6.813765317E-2;-1.352106631E-1;1.703441329E-2
1.091714381E1;-7.559020817E-2;-8.304276317E-2;1.064650808E-2
1.092905475E1;-6.600835174E-2;-2.555162087E-2;1.490511186E-2
1.094096881E1;-1.490511186E-2;-5.216789246E-2;3.300417587E-2
1.095287819E1;1.490511186E-2;-1.054004356E-1;5.003859103E-2
1.096479069E1;1.809906401E-2;-1.171115935E-1;4.684463516E-2
1.097670162E1;2.129301615E-2;-1.000771821E-1;3.726277873E-2
1.098862038E1;2.235766686E-2;-7.452555746E-2;1.809906401E-2
1.100052506E1;8.517206647E-3;-3.832742944E-2;4.258603323E-3
1.101243756E1;-7.452555932E-3;-1.703441329E-2;-2.129301662E-3
1.102434850E1;-1.916371472E-2;-1.916371472E-2;-8.517206647E-3
1.103625944E1;-8.517206647E-3;-4.045673087E-2;-1.064650808E-2
1.104817194E1;1.277581044E-2;-6.281439960E-2;-5.323254038E-3
1.106008288E1;1.916371472E-2;-8.836601675E-2;3.193952609E-3
1.107199538E1;8.517206647E-3;-9.688322991E-2;7.452555932E-3
1.108390631E1;-1.171115879E-2;-8.517206460E-2;3.193952609E-3
1.109581725E1;-2.448697016E-2;-5.749114603E-2;-5.323254038E-3
1.110773444E1;-3.406882659E-2;-4.471533373E-2;-4.258603323E-3
1.111964069E1;-4.577998444E-2;-5.323254317E-2;-3.193952609E-3
1.113155944E1;-5.323254317E-2;-6.707300246E-2;3.193952609E-3
1.114346413E1;-5.003859103E-2;-8.304276317E-2;1.277581044E-2
1.115537662E1;-2.981022373E-2;-8.943066746E-2;2.448697016E-2
1.116729381E1;-3.087487444E-2;-7.452555746E-2;3.619812801E-2
1.117920006E1;-6.813765317E-2;-1.490511186E-2;3.513347730E-2
1.119111100E1;-8.623671532E-2;3.193952516E-2;4.258603230E-2
1.120302194E1;-7.026695460E-2;5.855579674E-2;5.110324174E-2
1.121493444E1;-6.174974889E-2;6.813765317E-2;4.897394031E-2
1.122684538E1;-6.600835174E-2;5.216789246E-2;5.429719388E-2
1.123875631E1;-6.494370103E-2;1.064650808E-2;5.855579674E-2
1.125066881E1;-4.471533373E-2;-2.874557301E-2;6.494370103E-2
1.126257975E1;-2.448697016E-2;-5.003859103E-2;6.494370103E-2
1.127449225E1;-2.342231758E-2;-4.897394031E-2;5.003859103E-2
1.128640319E1;-2.981022373E-2;-3.513347730E-2;3.406882659E-2
1.129831569E1;-2.981022373E-2;-2.661627159E-2;1.703441329E-2
1.131022662E1;-2.022836544E-2;-2.235766686E-2;4.258603323E-3
1.132213756E1;-1.277581044E-2;-3.406882659E-2;5.323254038E-3
1.133405006E1;-3.193952609E-3;-4.365068302E-2;8.517206647E-3
1.134596100E1;5.323254038E-3;-5.642649531E-2;8.517206647E-3
1.135787350E1;8.517206647E-3;-7.452555746E-2;9.581857361E-3
1.136978444E1;9.581857361E-3;-7.984881103E-2;2.129301662E-3
1.138169538E1;1.596976258E-2;-7.665485889E-2;-7.452555932E-3
1.139360788E1;1.384046115E-2;-6.281439960E-2;-1.809906401E-2
1.140551881E1;1.064650808E-2;-4.365068302E-2;-2.768092230E-2
1.141743131E1;1.277581044E-2;-2.022836544E-2;-3.193952516E-2
1.142934225E1;1.490511186E-2;1.064650831E-3;-2.235766686E-2
1.144125319E1;1.384046115E-2;1.171115879E-2;4.258603323E-3
1.145316569E1;2.129301662E-3;1.384046115E-2;2.874557301E-2
1.146507662E1;-2.129301615E-2;6.387905218E-3;3.726277873E-2
1.147698756E1;-5.536184460E-2;8.517206647E-3;3.513347730E-2
1.148890006E1;-7.665485889E-2;-6.387905218E-3;2.129301615E-2
1.150081100E1;-7.878416032E-2;-4.258603323E-3;1.596976258E-2
1.151272350E1;-7.878416032E-2;1.916371472E-2;1.171115879E-2
1.152463444E1;-6.600835174E-2;2.661627159E-2;1.490511186E-2
1.153654538E1;-5.003859103E-2;2.874557301E-2;2.555162087E-2
1.154845788E1;-4.365068302E-2;3.087487444E-2;3.726277873E-2
1.156037038E1;-4.365068302E-2;3.939208016E-2;4.790928960E-2
1.157228131E1;-4.790928960E-2;5.429719388E-2;5.216789246E-2
1.158420006E1;-4.897394031E-2;5.536184460E-2;6.068509817E-2
1.159610475E1;-4.790928960E-2;5.855579674E-2;6.387905031E-2
1.160801569E1;-4.577998444E-2;6.707300246E-2;6.174974889E-2
1.161992819E1;-5.216789246E-2;8.304276317E-2;5.429719388E-2
1.163183912E1;-5.003859103E-2;5.536184460E-2;3.726277873E-2
1.164376881E1;-4.684463516E-2;4.045673087E-2;2.874557301E-2
1.165566256E1;-4.045673087E-2;2.555162087E-2;1.384046115E-2
1.166757819E1;-2.661627159E-2;-3.193952609E-3;-1.064650831E-3
1.167948756E1;-1.703441329E-2;4.258603323E-3;0.000000000E0
1.169139694E1;-1.171115879E-2;3.832742944E-2;1.064650831E-3
1.170330944E1;-1.064650808E-2;4.897394031E-2;-4.258603323E-3
1.171522038E1;-5.323254038E-3;5.003859103E-2;-1.277581044E-2
1.172713131E1;-4.258603323E-3;5.855579674E-2;-1.596976258E-2
1.173904381E1;1.064650831E-3;7.559020817E-2;-1.277581044E-2
1.175095475E1;9.581857361E-3;9.581857920E-2;-3.193952609E-3
1.176286725E1;1.277581044E-2;1.160469428E-1;1.064650831E-3
1.177477819E1;1.064650808E-2;1.458571702E-1;8.517206647E-3
1.178669069E1;1.916371472E-2;1.596976221E-1;4.258603323E-3
1.179860162E1;2.022836544E-2;1.511804163E-1;9.581857361E-3
1.181051256E1;1.916371472E-2;1.149822921E-1;1.384046115E-2
1.182242506E1;1.277581044E-2;6.494370103E-2;1.703441329E-2
1.183433600E1;6.387905218E-3;5.323254038E-3;1.809906401E-2
1.184624850E1;-2.129301662E-3;-3.513347730E-2;1.916371472E-2
1.185815944E1;-2.022836544E-2;-4.045673087E-2;1.171115879E-2
1.187007038E1;-5.429719388E-2;-3.726277873E-2;0.000000000E0
1.188198288E1;-7.133160532E-2;-3.406882659E-2;-6.387905218E-3
1.189389381E1;-9.155996889E-2;-2.981022373E-2;3.193952609E-3
1.190580631E1;-1.096590385E-1;-4.365068302E-2;7.452555932E-3
1.191771725E1;-1.245641485E-1;-3.726277873E-2;1.916371472E-2
1.192963444E1;-1.277581006E-1;-1.490511186E-2;3.406882659E-2
1.194154069E1;-1.203055456E-1;1.064650831E-3;5.003859103E-2
1.195345163E1;-1.022064835E-1;2.235766686E-2;6.707300246E-2
1.196536412E1;-7.984881103E-2;3.726277873E-2;8.304276317E-2
1.197727506E1;-4.897394031E-2;4.790928960E-2;8.836601675E-2
1.198918756E1;-2.555162087E-2;6.174974889E-2;8.304276317E-2
1.200109850E1;-1.384046115E-2;7.878416032E-2;7.026695460E-2
1.201300944E1;-8.517206647E-3;6.920230389E-2;5.110324174E-2
1.202492038E1;3.193952609E-3;2.981022373E-2;3.619812801E-2
1.203683288E1;1.277581044E-2;-3.193952609E-3;1.809906401E-2
1.204874538E1;2.555162087E-2;-2.555162087E-2;-7.452555932E-3
1.206065788E1;3.193952516E-2;-3.087487444E-2;-3.513347730E-2
1.207256881E1;3.832742944E-2;-1.596976258E-2;-4.790928960E-2
1.208447975E1;4.258603230E-2;4.258603323E-3;-5.323254317E-2
1.209639069E1;4.045673087E-2;1.384046115E-2;-5.216789246E-2
1.210830319E1;3.087487444E-2;9.581857361E-3;-4.365068302E-2
1.212021412E1;2.555162087E-2;0.000000000E0;-3.087487444E-2
1.213212663E1;2.661627159E-2;-2.235766686E-2;-1.916371472E-2
1.214403756E1;2.661627159E-2;-3.939208016E-2;-6.387905218E-3
1.215595006E1;2.555162087E-2;-4.258603230E-2;-2.129301662E-3
1.216786100E1;1.490511186E-2;-2.661627159E-2;0.000000000E0
1.217977350E1;1.064650831E-3;-1.064650808E-2;1.064650831E-3
1.219168288E1;-2.129301662E-3;7.452555932E-3;3.193952609E-3
1.220359538E1;-2.129301662E-3;2.768092230E-2;3.193952609E-3
1.221550788E1;-1.171115879E-2;3.939208016E-2;0.000000000E0
1.222741881E1;-1.916371472E-2;4.471533373E-2;1.064650831E-3
1.223933912E1;-2.129301615E-2;4.152138159E-2;2.129301662E-3
1.225124225E1;-1.703441329E-2;2.768092230E-2;6.387905218E-3
1.226315319E1;-1.171115879E-2;1.596976258E-2;8.517206647E-3
1.227506412E1;-8.517206647E-3;9.581857361E-3;1.171115879E-2
1.228697663E1;-8.517206647E-3;0.000000000E0;9.581857361E-3
1.229888756E1;-5.323254038E-3;-2.129301662E-3;6.387905218E-3
1.231080006E1;3.193952609E-3;-3.193952609E-3;0.000000000E0
1.232271100E1;8.517206647E-3;-4.258603323E-3;-4.258603323E-3
1.233462194E1;1.277581044E-2;-2.129301662E-3;-7.452555932E-3
1.234653444E1;8.517206647E-3;-2.129301662E-3;-9.581857361E-3
1.235844694E1;9.581857361E-3;0.000000000E0;-8.517206647E-3
1.237035788E1;6.387905218E-3;-3.193952609E-3;-1.064650808E-2
1.238226881E1;5.323254038E-3;-8.517206647E-3;-7.452555932E-3
1.239417975E1;4.258603323E-3;-1.596976258E-2;-2.129301662E-3
1.240609225E1;3.193952609E-3;-1.384046115E-2;1.064650831E-3
1.241800475E1;2.129301662E-3;-6.387905218E-3;3.193952609E-3
1.242991569E1;0.000000000E0;-3.193952609E-3;5.323254038E-3
1.244182663E1;-4.258603323E-3;1.064650831E-3;3.193952609E-3
1.245373756E1;-7.452555932E-3;2.129301662E-3;-1.064650831E-3
1.246565006E1;-7.452555932E-3;2.129301662E-3;-2.129301662E-3
1.247756256E1;-4.258603323E-3;-1.064650831E-3;-4.258603323E-3
1.248947350E1;-3.193952609E-3;-2.129301662E-3;-4.258603323E-3
1.250138444E1;3.193952609E-3;0.000000000E0;-1.064650831E-3
1.251329694E1;3.193952609E-3;4.258603323E-3;1.064650831E-3
1.252520788E1;-1.064650831E-3;1.277581044E-2;-1.064650831E-3
1.253711881E1;-1.064650831E-3;2.342231758E-2;-2.129301662E-3
1.254903131E1;-2.129301662E-3;2.981022373E-2;-2.129301662E-3
1.256094225E1;1.064650831E-3;3.513347730E-2;-2.129301662E-3
1.257285475E1;2.129301662E-3;2.448697016E-2;2.129301662E-3
1.258476569E1;0.000000000E0;1.277581044E-2;5.323254038E-3
1.259667819E1;-6.387905218E-3;-1.064650831E-3;4.258603323E-3
1.260858912E1;-2.129301662E-3;-8.517206647E-3;4.258603323E-3
1.262050319E1;3.193952609E-3;-1.490511186E-2;4.258603323E-3
1.263241256E1;5.323254038E-3;-2.235766686E-2;8.517206647E-3
1.264432506E1;4.258603323E-3;-2.235766686E-2;9.581857361E-3
1.265623600E1;2.129301662E-3;-2.022836544E-2;1.064650808E-2
1.266814694E1;-1.064650831E-3;-1.384046115E-2;7.452555932E-3
1.268005944E1;-5.323254038E-3;-1.064650808E-2;3.193952609E-3
1.269197038E1;-8.517206647E-3;-6.387905218E-3;-4.258603323E-3
1.270388131E1;-5.323254038E-3;-1.064650831E-3;-9.581857361E-3
1.271580006E1;0.000000000E0;4.258603323E-3;-8.517206647E-3
1.272770788E1;5.323254038E-3;5.323254038E-3;-4.258603323E-3
1.273961725E1;7.452555932E-3;5.323254038E-3;-1.064650831E-3
1.275152819E1;2.129301662E-3;7.452555932E-3;-1.064650831E-3
1.276344069E1;-1.064650831E-3;1.490511186E-2;-2.129301662E-3
1.277535162E1;-2.129301662E-3;1.490511186E-2;-3.193952609E-3
1.278726256E1;-3.193952609E-3;1.490511186E-2;-5.323254038E-3
1.279917506E1;0.000000000E0;1.171115879E-2;-2.129301662E-3
1.281108600E1;6.387905218E-3;7.452555932E-3;3.193952609E-3
1.282300163E1;8.517206647E-3;1.064650831E-3;1.064650808E-2
1.283491256E1;4.258603323E-3;-5.323254038E-3;1.277581044E-2
1.284682038E1;1.064650831E-3;-7.452555932E-3;4.258603323E-3
1.285873288E1;-6.387905218E-3;-2.129301662E-3;-5.323254038E-3
1.287064381E1;-3.193952609E-3;3.193952609E-3;-1.064650808E-2
1.288255631E1;5.323254038E-3;7.452555932E-3;-8.517206647E-3
1.289446725E1;8.517206647E-3;5.323254038E-3;-4.258603323E-3
1.290637819E1;6.387905218E-3;3.193952609E-3;-1.064650831E-3
1.291829069E1;2.129301662E-3;6.387905218E-3;1.064650831E-3
1.293020162E1;-3.193952609E-3;1.384046115E-2;1.064650831E-3
1.294211413E1;-9.581857361E-3;1.809906401E-2;-2.129301662E-3
1.295402975E1;-8.517206647E-3;1.596976258E-2;-6.387905218E-3
1.296593600E1;-1.064650831E-3;1.809906401E-2;-6.387905218E-3
1.297784850E1;6.387905218E-3;9.581857361E-3;0.000000000E0
1.298975944E1;5.323254038E-3;0.000000000E0;4.258603323E-3
1.300167194E1;1.064650831E-3;-6.387905218E-3;3.193952609E-3
1.301358600E1;0.000000000E0;-6.387905218E-3;4.258603323E-3
1.302549694E1;0.000000000E0;0.000000000E0;5.323254038E-3
1.303740631E1;0.000000000E0;3.193952609E-3;3.193952609E-3
1.304931881E1;-2.129301662E-3;5.323254038E-3;0.000000000E0
1.306122975E1;-1.064650831E-3;5.323254038E-3;-1.064650831E-3
1.307315788E1;0.000000000E0;0.000000000E0;1.064650831E-3
1.308505319E1;1.064650831E-3;-4.258603323E-3;2.129301662E-3
1.309696725E1;2.129301662E-3;-4.258603323E-3;3.193952609E-3
1.310887506E1;1.064650831E-3;-3.193952609E-3;2.129301662E-3
1.312078756E1;0.000000000E0;3.193952609E-3;-1.064650831E-3
1.313270006E1;2.129301662E-3;6.387905218E-3;2.129301662E-3
1.314461100E1;2.129301662E-3;9.581857361E-3;0.000000000E0
1.315652194E1;-1.064650831E-3;9.581857361E-3;1.064650831E-3
1.316843444E1;0.000000000E0;1.171115879E-2;4.258603323E-3
1.318034538E1;0.000000000E0;1.171115879E-2;4.258603323E-3
1.319226413E1;-2.129301662E-3;6.387905218E-3;5.323254038E-3
1.320416881E1;-1.064650831E-3;6.387905218E-3;3.193952609E-3
1.321607975E1;-2.129301662E-3;2.129301662E-3;0.000000000E0
1.322799225E1;-3.193952609E-3;0.000000000E0;-1.064650831E-3
1.323990319E1;2.129301662E-3;-2.129301662E-3;2.129301662E-3
1.325182194E1;5.323254038E-3;-4.258603323E-3;3.193952609E-3
1.326372662E1;1.064650831E-3;-3.193952609E-3;3.193952609E-3
1.327563756E1;-2.129301662E-3;0.000000000E0;1.064650831E-3
1.328755006E1;0.000000000E0;6.387905218E-3;0.000000000E0
1.329946100E1;0.000000000E0;5.323254038E-3;-2.129301662E-3
1.331137506E1;2.129301662E-3;6.387905218E-3;-1.064650831E-3
1.332328444E1;2.129301662E-3;5.323254038E-3;-2.129301662E-3
1.333519538E1;3.193952609E-3;5.323254038E-3;1.064650831E-3
1.334710788E1;0.000000000E0;3.193952609E-3;3.193952609E-3
1.335901881E1;-2.129301662E-3;7.452555932E-3;4.258603323E-3
1.337093756E1;-6.387905218E-3;9.581857361E-3;3.193952609E-3
1.338284225E1;-3.193952609E-3;1.171115879E-2;5.323254038E-3
1.339475319E1;-1.064650831E-3;7.452555932E-3;8.517206647E-3
1.340666569E1;1.064650831E-3;-1.064650831E-3;1.064650808E-2
1.341857662E1;1.064650831E-3;-3.193952609E-3;7.452555932E-3
1.343048913E1;-2.129301662E-3;-4.258603323E-3;5.323254038E-3
1.344240006E1;-3.193952609E-3;-2.129301662E-3;2.129301662E-3
1.345431100E1;0.000000000E0;0.000000000E0;-2.129301662E-3
1.346622350E1;-1.064650831E-3;2.129301662E-3;0.000000000E0
1.347813444E1;1.064650831E-3;0.000000000E0;0.000000000E0
1.349004538E1;1.064650831E-3;0.000000000E0;-1.064650831E-3
1.350195788E1;-1.064650831E-3;5.323254038E-3;0.000000000E0
1.351386881E1;-1.064650831E-3;4.258603323E-3;0.000000000E0
1.352578131E1;2.129301662E-3;8.517206647E-3;0.000000000E0
1.353769225E1;0.000000000E0;4.258603323E-3;4.258603323E-3
1.354960631E1;-1.064650831E-3;5.323254038E-3;3.193952609E-3
1.356151569E1;-1.064650831E-3;4.258603323E-3;3.193952609E-3
1.357342819E1;-4.258603323E-3;4.258603323E-3;0.000000000E0
1.358533912E1;-2.129301662E-3;4.258603323E-3;0.000000000E0
1.359725162E1;1.064650831E-3;0.000000000E0;2.129301662E-3
1.360916256E1;3.193952609E-3;0.000000000E0;5.323254038E-3
1.362107350E1;0.000000000E0;4.258603323E-3;3.193952609E-3
1.363298600E1;-3.193952609E-3;3.193952609E-3;2.129301662E-3
1.364490163E1;-6.387905218E-3;1.171115879E-2;-2.129301662E-3
1.365681256E1;-4.258603323E-3;6.387905218E-3;-3.193952609E-3
1.366872038E1;3.193952609E-3;1.064650831E-3;3.193952609E-3
1.368063131E1;8.517206647E-3;-3.193952609E-3;6.387905218E-3
1.369254381E1;2.129301662E-3;-1.064650831E-3;8.517206647E-3
1.370445475E1;-1.064650831E-3;1.064650831E-3;4.258603323E-3
1.371636725E1;-4.258603323E-3;4.258603323E-3;0.000000000E0
1.372827819E1;-3.193952609E-3;5.323254038E-3;-1.064650831E-3
1.374019069E1;3.193952609E-3;5.323254038E-3;-1.064650831E-3
1.375210163E1;3.193952609E-3;1.064650831E-3;1.064650831E-3
1.376401256E1;1.064650831E-3;1.064650831E-3;-2.129301662E-3
1.377592506E1;-3.193952609E-3;2.129301662E-3;-4.258603323E-3
1.378783600E1;-4.258603323E-3;5.323254038E-3;-5.323254038E-3
1.379974850E1;-1.064650831E-3;7.452555932E-3;-2.129301662E-3
1.381165944E1;0.000000000E0;3.193952609E-3;-2.129301662E-3
1.382357038E1;-2.129301662E-3;-2.129301662E-3;0.000000000E0
1.383548288E1;-5.323254038E-3;-4.258603323E-3;-4.258603323E-3
1.384739694E1;-2.129301662E-3;-6.387905218E-3;-3.193952609E-3
1.385930631E1;-1.064650831E-3;-8.517206647E-3;-4.258603323E-3
1.387121725E1;2.129301662E-3;-1.171115879E-2;-2.129301662E-3
1.388312819E1;2.129301662E-3;-9.581857361E-3;-3.193952609E-3
1.389504069E1;1.064650831E-3;-9.581857361E-3;-3.193952609E-3
1.390695163E1;1.064650831E-3;-4.258603323E-3;-3.193952609E-3
1.391886256E1;0.000000000E0;2.129301662E-3;-5.323254038E-3
1.393077506E1;-1.064650831E-3;3.193952609E-3;-3.193952609E-3
1.394268600E1;0.000000000E0;6.387905218E-3;-4.258603323E-3
1.395459850E1;-2.129301662E-3;7.452555932E-3;-4.258603323E-3
1.396651569E1;-1.064650831E-3;7.452555932E-3;-4.258603323E-3
1.397842038E1;1.064650831E-3;5.323254038E-3;-1.064650831E-3
1.399034225E1;-1.064650831E-3;4.258603323E-3;-2.129301662E-3
1.400224381E1;-1.064650831E-3;1.064650831E-3;-1.064650831E-3
1.401415631E1;1.064650831E-3;-1.064650831E-3;1.064650831E-3
1.402606725E1;0.000000000E0;1.064650831E-3;-1.064650831E-3
1.403797975E1;-2.129301662E-3;-1.064650831E-3;-3.193952609E-3
1.404989069E1;-1.064650831E-3;-2.129301662E-3;-4.258603323E-3
1.406180319E1;-1.064650831E-3;-2.129301662E-3;-3.193952609E-3
1.407371412E1;1.064650831E-3;-4.258603323E-3;0.000000000E0
1.408562663E1;2.129301662E-3;-6.387905218E-3;1.064650831E-3
1.409753756E1;1.064650831E-3;-7.452555932E-3;0.000000000E0
1.410944850E1;1.064650831E-3;-4.258603323E-3;1.064650831E-3
1.412136100E1;-2.129301662E-3;-5.323254038E-3;-1.064650831E-3
1.413327194E1;0.000000000E0;-3.193952609E-3;-4.258603323E-3
1.414518444E1;2.129301662E-3;-5.323254038E-3;-4.258603323E-3
1.415709538E1;2.129301662E-3;-4.258603323E-3;-3.193952609E-3
1.416900788E1;0.000000000E0;0.000000000E0;-4.258603323E-3
1.418091881E1;-1.064650831E-3;0.000000000E0;-3.193952609E-3
1.419282975E1;-1.064650831E-3;0.000000000E0;-4.258603323E-3
1.420474225E1;-2.129301662E-3;4.258603323E-3;-3.193952609E-3
1.421665319E1;-2.129301662E-3;2.129301662E-3;-1.064650831E-3
1.422856412E1;3.193952609E-3;1.064650831E-3;1.064650831E-3
1.424047663E1;2.129301662E-3;2.129301662E-3;0.000000000E0
1.425238756E1;0.000000000E0;0.000000000E0;-1.064650831E-3
1.426430163E1;-1.064650831E-3;1.064650831E-3;-1.064650831E-3
1.427622194E1;-1.064650831E-3;1.064650831E-3;-1.064650831E-3
1.428812350E1;-3.193952609E-3;1.064650831E-3;-2.129301662E-3
1.430003444E1;-1.064650831E-3;-1.064650831E-3;-4.258603323E-3
1.431194538E1;0.000000000E0;0.000000000E0;-2.129301662E-3
1.432386412E1;0.000000000E0;-5.323254038E-3;0.000000000E0
1.433576881E1;0.000000000E0;-3.193952609E-3;2.129301662E-3
1.434768131E1;4.258603323E-3;-2.129301662E-3;3.193952609E-3
1.435959225E1;1.064650831E-3;0.000000000E0;2.129301662E-3
1.437150319E1;-1.064650831E-3;7.452555932E-3;2.129301662E-3
1.438341569E1;0.000000000E0;1.064650808E-2;2.129301662E-3
1.439532819E1;-3.193952609E-3;7.452555932E-3;2.129301662E-3
1.440723756E1;1.064650831E-3;5.323254038E-3;3.193952609E-3
1.441915006E1;1.064650831E-3;5.323254038E-3;2.129301662E-3
1.443106100E1;2.129301662E-3;8.517206647E-3;0.000000000E0
1.444297350E1;1.064650831E-3;0.000000000E0;-1.064650831E-3
1.445488444E1;0.000000000E0;-1.064650831E-3;-5.323254038E-3
1.446679850E1;0.000000000E0;2.129301662E-3;-3.193952609E-3
1.447870631E1;2.129301662E-3;4.258603323E-3;-5.323254038E-3
1.449061881E1;0.000000000E0;1.064650831E-3;-2.129301662E-3
1.450253131E1;-3.193952609E-3;-1.064650831E-3;0.000000000E0
1.451444225E1;-7.452555932E-3;-3.193952609E-3;-1.064650831E-3
1.452635475E1;-9.581857361E-3;-7.452555932E-3;-2.129301662E-3
1.453826569E1;-5.323254038E-3;-2.129301662E-3;-1.064650831E-3
1.455017819E1;3.193952609E-3;4.258603323E-3;0.000000000E0
1.456209538E1;6.387905218E-3;3.193952609E-3;2.129301662E-3
1.457400319E1;5.323254038E-3;-6.387905218E-3;2.129301662E-3
1.458591256E1;4.258603323E-3;-7.452555932E-3;1.064650831E-3
1.459782350E1;2.129301662E-3;2.129301662E-3;1.064650831E-3
1.460973600E1;-1.064650831E-3;5.323254038E-3;-1.064650831E-3
1.462164694E1;0.000000000E0;3.193952609E-3;0.000000000E0
1.463355944E1;-1.064650831E-3;1.064650831E-3;0.000000000E0
1.464547038E1;1.064650831E-3;0.000000000E0;-1.064650831E-3
1.465738288E1;-2.129301662E-3;3.193952609E-3;-1.064650831E-3
1.466929381E1;-3.193952609E-3;6.387905218E-3;-1.064650831E-3
1.468120475E1;-2.129301662E-3;1.064650831E-3;0.000000000E0
1.469311725E1;-1.064650831E-3;3.193952609E-3;-1.064650831E-3
1.470502819E1;0.000000000E0;2.129301662E-3;-1.064650831E-3
1.471694069E1;0.000000000E0;-4.258603323E-3;-3.193952609E-3
1.472885162E1;1.064650831E-3;-4.258603323E-3;-4.258603323E-3
1.474076412E1;0.000000000E0;-2.129301662E-3;-1.064650831E-3
1.475267506E1;1.064650831E-3;-2.129301662E-3;0.000000000E0
1.476458600E1;2.129301662E-3;0.000000000E0;0.000000000E0
1.477649850E1;2.129301662E-3;1.064650831E-3;2.129301662E-3
1.478840944E1;-1.064650831E-3;4.258603323E-3;2.129301662E-3
1.480032038E1;-1.064650831E-3;7.452555932E-3;2.129301662E-3
1.481223288E1;-2.129301662E-3;6.387905218E-3;1.064650831E-3
1.482414381E1;-1.064650831E-3;3.193952609E-3;5.323254038E-3
1.483605631E1;0.000000000E0;2.129301662E-3;4.258603323E-3
1.484796725E1;1.064650831E-3;3.193952609E-3;3.193952609E-3
1.485987975E1;0.000000000E0;4.258603323E-3;4.258603323E-3
1.487179225E1;-1.064650831E-3;3.193952609E-3;3.193952609E-3
1.488370162E1;0.000000000E0;0.000000000E0;0.000000000E0
1.489561413E1;-2.129301662E-3;1.064650831E-3;-3.193952609E-3
1.490752506E1;2.129301662E-3;0.000000000E0;-1.064650831E-3
1.491943756E1;3.193952609E-3;-2.129301662E-3;0.000000000E0
1.493134850E1;1.064650831E-3;-4.258603323E-3;-2.129301662E-3
1.494325944E1;-1.064650831E-3;-1.064650831E-3;-1.064650831E-3
1.495517194E1;2.129301662E-3;5.323254038E-3;-2.129301662E-3
1.496708288E1;-1.064650831E-3;4.258603323E-3;-1.064650831E-3
1.497900006E1;0.000000000E0;7.452555932E-3;-2.129301662E-3
1.499090631E1;-2.129301662E-3;5.323254038E-3;-2.129301662E-3
1.500282350E1;-3.193952609E-3;4.258603323E-3;-1.064650831E-3
1.501472819E1;0.000000000E0;1.064650831E-3;3.193952609E-3
1.502664069E1;0.000000000E0;-2.129301662E-3;2.129301662E-3
1.503855319E1;1.064650831E-3;0.000000000E0;1.064650831E-3
1.505046413E1;-1.064650831E-3;1.064650831E-3;0.000000000E0
1.506237506E1;2.129301662E-3;6.387905218E-3;0.000000000E0
1.507428756E1;1.064650831E-3;2.129301662E-3;0.000000000E0
1.508619850E1;1.064650831E-3;2.129301662E-3;1.064650831E-3
1.509812038E1;0.000000000E0;2.129301662E-3;-1.064650831E-3
1.511002194E1;2.129301662E-3;5.323254038E-3;-2.129301662E-3
1.512193444E1;1.064650831E-3;7.452555932E-3;-4.258603323E-3
1.513384538E1;-2.129301662E-3;7.452555932E-3;-6.387905218E-3
1.514575788E1;-1.064650831E-3;3.193952609E-3;-5.323254038E-3
1.515767350E1;0.000000000E0;1.064650831E-3;-1.064650831E-3
1.516957975E1;-1.064650831E-3;-1.064650831E-3;-2.129301662E-3
1.518149225E1;0.000000000E0;1.064650831E-3;0.000000000E0
1.519340319E1;0.000000000E0;1.064650831E-3;1.064650831E-3
1.520531569E1;0.000000000E0;1.064650831E-3;1.064650831E-3
1.521723288E1;-1.064650831E-3;1.064650831E-3;2.129301662E-3
1.522913756E1;1.064650831E-3;1.064650831E-3;5.323254038E-3
1.524105006E1;0.000000000E0;1.064650831E-3;5.323254038E-3
1.525296100E1;-2.129301662E-3;0.000000000E0;4.258603323E-3
1.526487350E1;-2.129301662E-3;-2.129301662E-3;1.064650831E-3
1.527678444E1;-1.064650831E-3;-1.064650831E-3;-4.258603323E-3
1.528869538E1;0.000000000E0;-3.193952609E-3;-2.129301662E-3
1.530060788E1;2.129301662E-3;-1.064650831E-3;0.000000000E0
1.531251881E1;2.129301662E-3;-1.064650831E-3;1.064650831E-3
1.532443131E1;2.129301662E-3;2.129301662E-3;0.000000000E0
1.533634538E1;-1.064650831E-3;9.581857361E-3;-1.064650831E-3
1.534825319E1;0.000000000E0;5.323254038E-3;2.129301662E-3
1.536016725E1;-1.064650831E-3;4.258603323E-3;2.129301662E-3
1.537207663E1;0.000000000E0;2.129301662E-3;3.193952609E-3
1.538398913E1;2.129301662E-3;2.129301662E-3;2.129301662E-3
1.539590475E1;-1.064650831E-3;1.064650831E-3;4.258603323E-3
1.540782662E1;-1.064650831E-3;2.129301662E-3;3.193952609E-3
1.541972350E1;-1.064650831E-3;1.064650831E-3;2.129301662E-3
1.543163444E1;0.000000000E0;3.193952609E-3;0.000000000E0
1.544354694E1;-1.064650831E-3;2.129301662E-3;0.000000000E0
1.545546412E1;1.064650831E-3;-1.064650831E-3;0.000000000E0
1.546736881E1;0.000000000E0;3.193952609E-3;-2.129301662E-3
1.547928288E1;0.000000000E0;2.129301662E-3;1.064650831E-3
1.549119225E1;2.129301662E-3;-1.064650831E-3;2.129301662E-3
1.550310475E1;-1.064650831E-3;2.129301662E-3;1.064650831E-3
1.551501569E1;0.000000000E0;2.129301662E-3;2.129301662E-3
1.552692663E1;-1.064650831E-3;2.129301662E-3;2.129301662E-3
1.553883912E1;-2.129301662E-3;1.064650831E-3;1.064650831E-3
1.555075162E1;-1.064650831E-3;1.064650831E-3;3.193952609E-3
1.556266256E1;-3.193952609E-3;2.129301662E-3;3.193952609E-3
1.557458288E1;-2.129301662E-3;3.193952609E-3;4.258603323E-3
1.558648756E1;-1.064650831E-3;1.064650831E-3;3.193952609E-3
1.559839694E1;-3.193952609E-3;1.064650831E-3;2.129301662E-3
1.561030944E1;0.000000000E0;0.000000000E0;1.064650831E-3
1.562222038E1;0.000000000E0;1.064650831E-3;1.064650831E-3
1.563413288E1;0.000000000E0;0.000000000E0;0.000000000E0
1.564604381E1;0.000000000E0;1.064650831E-3;0.000000000E0
1.565795475E1;-1.064650831E-3;3.193952609E-3;0.000000000E0
1.566986725E1;1.064650831E-3;5.323254038E-3;1.064650831E-3
1.568177819E1;0.000000000E0;4.258603323E-3;3.193952609E-3
1.569369069E1;1.064650831E-3;6.387905218E-3;5.323254038E-3
1.570560163E1;-2.129301662E-3;3.193952609E-3;5.323254038E-3
1.571751256E1;-3.193952609E-3;4.258603323E-3;6.387905218E-3
1.572942506E1;-3.193952609E-3;4.258603323E-3;4.258603323E-3
1.574133600E1;2.129301662E-3;1.064650831E-3;3.193952609E-3
1.575328131E1;5.323254038E-3;0.000000000E0;7.452555932E-3
1.576515944E1;4.258603323E-3;0.000000000E0;9.581857361E-3
1.577707038E1;5.323254038E-3;0.000000000E0;5.323254038E-3
1.578898131E1;0.000000000E0;-1.064650831E-3;4.258603323E-3
1.580089381E1;0.000000000E0;1.171115879E-2;3.193952609E-3
1.581280788E1;-1.064650831E-3;2.129301615E-2;0.000000000E0
1.582471725E1;0.000000000E0;1.703441329E-2;-1.064650831E-3
1.583662819E1;0.000000000E0;1.596976258E-2;-3.193952609E-3
1.584854069E1;-4.258603323E-3;8.517206647E-3;0.000000000E0
1.586045163E1;-2.129301662E-3;0.000000000E0;0.000000000E0
1.587236412E1;-1.064650831E-3;-1.064650831E-3;1.064650831E-3
1.588427506E1;-2.129301662E-3;-3.193952609E-3;0.000000000E0
1.589618600E1;0.000000000E0;-1.064650831E-3;0.000000000E0
1.590809850E1;-1.064650831E-3;-2.129301662E-3;-1.064650831E-3
1.592000944E1;0.000000000E0;-3.193952609E-3;2.129301662E-3
1.593192038E1;1.064650831E-3;-4.258603323E-3;1.064650831E-3
1.594384225E1;2.129301662E-3;-2.129301662E-3;1.064650831E-3
1.595574381E1;-2.129301662E-3;0.000000000E0;-2.129301662E-3
1.596765631E1;-3.193952609E-3;3.193952609E-3;-4.258603323E-3
1.597956725E1;-2.129301662E-3;2.129301662E-3;-1.064650831E-3
1.599148600E1;2.129301662E-3;1.064650831E-3;-2.129301662E-3
1.600339069E1;-1.064650831E-3;0.000000000E0;-1.064650831E-3
1.601530162E1;-2.129301662E-3;0.000000000E0;-3.193952609E-3
1.602721412E1;-2.129301662E-3;2.129301662E-3;-3.193952609E-3
1.603912662E1;-1.064650831E-3;0.000000000E0;-3.193952609E-3
1.605104381E1;1.064650831E-3;-1.064650831E-3;-1.064650831E-3
1.606295631E1;2.129301662E-3;-1.064650831E-3;-1.064650831E-3
1.607486100E1;-1.064650831E-3;-3.193952609E-3;-1.064650831E-3
1.608677194E1;-2.129301662E-3;-1.064650831E-3;0.000000000E0
1.609868444E1;-2.129301662E-3;-1.064650831E-3;-3.193952609E-3
1.611060006E1;-2.129301662E-3;1.064650831E-3;-1.064650831E-3
1.612250631E1;-2.129301662E-3;2.129301662E-3;-2.129301662E-3
1.613441881E1;-1.064650831E-3;-1.064650831E-3;-3.193952609E-3
1.614632975E1;0.000000000E0;-2.129301662E-3;-1.064650831E-3
1.615824225E1;0.000000000E0;-6.387905218E-3;-1.064650831E-3
1.617015475E1;-2.129301662E-3;-5.323254038E-3;-2.129301662E-3
1.618206569E1;2.129301662E-3;-5.323254038E-3;-4.258603323E-3
1.619397662E1;0.000000000E0;-5.323254038E-3;-3.193952609E-3
1.620588756E1;1.064650831E-3;-2.129301662E-3;-2.129301662E-3
1.621780006E1;0.000000000E0;-2.129301662E-3;-2.129301662E-3
1.622971256E1;-1.064650831E-3;1.064650831E-3;-3.193952609E-3
1.624162194E1;-1.064650831E-3;2.129301662E-3;1.064650831E-3
1.625353444E1;-2.129301662E-3;3.193952609E-3;1.064650831E-3
1.626544538E1;-3.193952609E-3;6.387905218E-3;1.064650831E-3
1.627735788E1;0.000000000E0;1.064650831E-3;0.000000000E0
1.628926881E1;-1.064650831E-3;2.129301662E-3;-4.258603323E-3
1.630117975E1;1.064650831E-3;-2.129301662E-3;1.064650831E-3
1.631309225E1;-1.064650831E-3;-5.323254038E-3;-1.064650831E-3
1.632500319E1;1.064650831E-3;-6.387905218E-3;-5.323254038E-3
1.633692194E1;-2.129301662E-3;-5.323254038E-3;-6.387905218E-3
1.634883288E1;1.064650831E-3;-7.452555932E-3;-4.258603323E-3
1.636073913E1;1.064650831E-3;-5.323254038E-3;-3.193952609E-3
1.637265006E1;-1.064650831E-3;-2.129301662E-3;-2.129301662E-3
1.638456100E1;-3.193952609E-3;0.000000000E0;-3.193952609E-3
1.639647350E1;-3.193952609E-3;1.064650831E-3;-2.129301662E-3
1.640839069E1;-4.258603323E-3;-2.129301662E-3;-3.193952609E-3
1.642029694E1;-2.129301662E-3;-2.129301662E-3;0.000000000E0
1.643220788E1;2.129301662E-3;1.064650831E-3;5.323254038E-3
1.644411881E1;3.193952609E-3;-3.193952609E-3;7.452555932E-3
1.645603131E1;2.129301662E-3;-2.129301662E-3;7.452555932E-3
1.646794225E1;-4.258603323E-3;6.387905218E-3;4.258603323E-3
1.647985319E1;-4.258603323E-3;9.581857361E-3;1.064650831E-3
1.649176569E1;-2.129301662E-3;8.517206647E-3;-2.129301662E-3
1.650367662E1;1.064650831E-3;5.323254038E-3;0.000000000E0
1.651558912E1;4.258603323E-3;0.000000000E0;-1.064650831E-3
1.652750162E1;1.064650831E-3;-7.452555932E-3;-1.064650831E-3
1.653941412E1;0.000000000E0;-2.129301662E-3;-3.193952609E-3
1.655132350E1;-1.064650831E-3;0.000000000E0;-4.258603323E-3
1.656323600E1;-1.064650831E-3;0.000000000E0;-5.323254038E-3
1.657514694E1;1.064650831E-3;0.000000000E0;-3.193952609E-3
1.658705944E1;0.000000000E0;-2.129301662E-3;-2.129301662E-3
1.659897038E1;-1.064650831E-3;-3.193952609E-3;0.000000000E0
1.661088131E1;-1.064650831E-3;-4.258603323E-3;0.000000000E0
1.662279381E1;0.000000000E0;-2.129301662E-3;3.193952609E-3
1.663470475E1;2.129301662E-3;0.000000000E0;3.193952609E-3
1.664662662E1;0.000000000E0;0.000000000E0;2.129301662E-3
1.665852819E1;-2.129301662E-3;4.258603323E-3;1.064650831E-3
1.667044069E1;-1.064650831E-3;3.193952609E-3;0.000000000E0
1.668235163E1;0.000000000E0;2.129301662E-3;0.000000000E0
1.669426412E1;-2.129301662E-3;3.193952609E-3;0.000000000E0
1.670617506E1;-1.064650831E-3;-1.064650831E-3;-2.129301662E-3
1.671808756E1;1.064650831E-3;2.129301662E-3;-3.193952609E-3
1.672999694E1;3.193952609E-3;0.000000000E0;-1.064650831E-3
1.674190944E1;2.129301662E-3;-1.064650831E-3;-2.129301662E-3
1.675382194E1;-1.064650831E-3;1.064650831E-3;-2.129301662E-3
1.676573288E1;-3.193952609E-3;4.258603323E-3;-3.193952609E-3
1.677765006E1;2.129301662E-3;2.129301662E-3;-4.258603323E-3
1.678955631E1;1.064650831E-3;-2.129301662E-3;0.000000000E0
1.680146725E1;0.000000000E0;-4.258603323E-3;2.129301662E-3
1.681337819E1;0.000000000E0;-3.193952609E-3;4.258603323E-3
1.682529069E1;0.000000000E0;0.000000000E0;4.258603323E-3
1.683720163E1;-1.064650831E-3;2.129301662E-3;3.193952609E-3
1.684911412E1;-1.064650831E-3;5.323254038E-3;6.387905218E-3
1.686102506E1;-1.064650831E-3;4.258603323E-3;5.323254038E-3
1.687293600E1;-1.064650831E-3;1.064650831E-3;3.193952609E-3
1.688484850E1;-1.064650831E-3;-1.064650831E-3;3.193952609E-3
1.689675944E1;-2.129301662E-3;-3.193952609E-3;1.064650831E-3
1.690867194E1;1.064650831E-3;-2.129301662E-3;-3.193952609E-3
1.692058288E1;0.000000000E0;-6.387905218E-3;-2.129301662E-3
1.693249381E1;1.064650831E-3;-3.193952609E-3;-3.193952609E-3
1.694441256E1;0.000000000E0;-1.064650831E-3;-3.193952609E-3
1.695631725E1;0.000000000E0;-1.064650831E-3;-1.064650831E-3
1.696822975E1;0.000000000E0;1.064650831E-3;-2.129301662E-3
1.698014069E1;-2.129301662E-3;1.064650831E-3;-1.064650831E-3
1.699205163E1;-2.129301662E-3;6.387905218E-3;-3.193952609E-3
1.700396881E1;0.000000000E0;3.193952609E-3;1.064650831E-3
1.701587506E1;0.000000000E0;3.193952609E-3;2.129301662E-3
1.702778756E1;1.064650831E-3;3.193952609E-3;1.064650831E-3
1.703969850E1;1.064650831E-3;2.129301662E-3;2.129301662E-3
1.705161100E1;-1.064650831E-3;0.000000000E0;0.000000000E0
1.706352350E1;-2.129301662E-3;1.064650831E-3;-2.129301662E-3
1.707543444E1;0.000000000E0;7.452555932E-3;-2.129301662E-3
1.708734538E1;1.064650831E-3;-1.064650831E-3;1.064650831E-3
1.709925631E1;1.064650831E-3;-5.323254038E-3;2.129301662E-3
1.711116881E1;-2.129301662E-3;-1.064650831E-3;1.064650831E-3
1.712307975E1;-1.064650831E-3;0.000000000E0;0.000000000E0
1.713499225E1;-1.064650831E-3;-2.129301662E-3;1.064650831E-3
1.714690319E1;-1.064650831E-3;-4.258603323E-3;2.129301662E-3
1.715881569E1;0.000000000E0;-2.129301662E-3;0.000000000E0
1.717072662E1;0.000000000E0;3.193952609E-3;0.000000000E0
1.718263912E1;-2.129301662E-3;6.387905218E-3;2.129301662E-3
1.719455006E1;2.129301662E-3;2.129301662E-3;3.193952609E-3
1.720646100E1;1.064650831E-3;3.193952609E-3;4.258603323E-3
1.721837975E1;1.064650831E-3;8.517206647E-3;3.193952609E-3
1.723028444E1;2.129301662E-3;1.064650808E-2;3.193952609E-3
1.724219694E1;2.129301662E-3;7.452555932E-3;3.193952609E-3
1.725410788E1;-2.129301662E-3;2.129301662E-3;1.064650831E-3
1.726601881E1;-3.193952609E-3;3.193952609E-3;-2.129301662E-3
1.727792975E1;-4.258603323E-3;3.193952609E-3;-5.323254038E-3
1.728984225E1;0.000000000E0;0.000000000E0;-2.129301662E-3
1.730175475E1;2.129301662E-3;-7.452555932E-3;0.000000000E0
1.731366725E1;2.129301662E-3;-9.581857361E-3;1.064650831E-3
1.732557662E1;-1.064650831E-3;-8.517206647E-3;-1.064650831E-3
1.733748912E1;0.000000000E0;-6.387905218E-3;3.193952609E-3
1.734940006E1;1.064650831E-3;0.000000000E0;0.000000000E0
1.736131100E1;1.064650831E-3;-4.258603323E-3;-1.064650831E-3
1.737322350E1;0.000000000E0;-1.064650831E-3;0.000000000E0
1.738513444E1;0.000000000E0;1.064650831E-3;-2.129301662E-3
1.739704694E1;-1.064650831E-3;4.258603323E-3;1.064650831E-3
1.740895788E1;0.000000000E0;4.258603323E-3;2.129301662E-3
1.742087194E1;-2.129301662E-3;1.064650831E-3;0.000000000E0
1.743278131E1;-2.129301662E-3;4.258603323E-3;-2.129301662E-3
1.744469225E1;0.000000000E0;3.193952609E-3;-3.193952609E-3
1.745660475E1;-1.064650831E-3;5.323254038E-3;-1.064650831E-3
1.746851569E1;0.000000000E0;2.129301662E-3;0.000000000E0
1.748042662E1;1.064650831E-3;-2.129301662E-3;-1.064650831E-3
1.749233756E1;0.000000000E0;-2.129301662E-3;-2.129301662E-3
1.750425006E1;0.000000000E0;-1.064650831E-3;-4.258603323E-3
1.751616100E1;-1.064650831E-3;-2.129301662E-3;-3.193952609E-3
1.752807350E1;-3.193952609E-3;3.193952609E-3;-5.323254038E-3
1.753998912E1;-1.064650831E-3;2.129301662E-3;-4.258603323E-3
1.755189694E1;0.000000000E0;5.323254038E-3;-3.193952609E-3
1.756380944E1;0.000000000E0;4.258603323E-3;1.064650831E-3
1.757572038E1;0.000000000E0;3.193952609E-3;5.323254038E-3
1.758763131E1;-1.064650831E-3;5.323254038E-3;6.387905218E-3
1.759954381E1;-1.064650831E-3;4.258603323E-3;7.452555932E-3
1.761145475E1;-1.064650831E-3;1.171115879E-2;6.387905218E-3
1.762336569E1;-2.129301662E-3;5.323254038E-3;4.258603323E-3
1.763527819E1;-3.193952609E-3;0.000000000E0;5.323254038E-3
1.764719069E1;-2.129301662E-3;-2.129301662E-3;2.129301662E-3
1.765910788E1;1.064650831E-3;-4.258603323E-3;2.129301662E-3
1.767101256E1;-1.064650831E-3;-3.193952609E-3;2.129301662E-3
1.768292506E1;0.000000000E0;-1.064650831E-3;0.000000000E0
1.769483600E1;0.000000000E0;2.129301662E-3;1.064650831E-3
1.770674850E1;6.387905218E-3;-1.064650831E-3;2.129301662E-3
1.771865944E1;0.000000000E0;0.000000000E0;2.129301662E-3
1.773057038E1;-4.258603323E-3;4.258603323E-3;-2.129301662E-3
1.774248288E1;-5.323254038E-3;6.387905218E-3;-3.193952609E-3
1.775439381E1;-3.193952609E-3;5.323254038E-3;-3.193952609E-3
1.776630631E1;0.000000000E0;2.129301662E-3;-1.064650831E-3
1.777821725E1;1.064650831E-3;-1.064650831E-3;0.000000000E0
1.779012819E1;3.193952609E-3;-1.064650831E-3;2.129301662E-3
1.780204069E1;2.129301662E-3;1.064650831E-3;4.258603323E-3
1.781395162E1;-2.129301662E-3;4.258603323E-3;4.258603323E-3
1.782586413E1;-4.258603323E-3;5.323254038E-3;1.064650831E-3
1.783777506E1;-3.193952609E-3;8.517206647E-3;1.064650831E-3
1.784968756E1;2.129301662E-3;2.129301662E-3;7.452555932E-3
1.786159850E1;3.193952609E-3;-4.258603323E-3;1.064650808E-2
1.787350944E1;-2.129301662E-3;-8.517206647E-3;7.452555932E-3
1.788542194E1;-3.193952609E-3;-2.129301662E-3;2.129301662E-3
1.789733288E1;0.000000000E0;6.387905218E-3;0.000000000E0
1.790924538E1;-3.193952609E-3;7.452555932E-3;-2.129301662E-3
1.792115631E1;1.064650831E-3;2.129301662E-3;-6.387905218E-3
1.793306725E1;-1.064650831E-3;-2.129301662E-3;-3.193952609E-3
1.794497975E1;2.129301662E-3;1.064650831E-3;-4.258603323E-3
1.795689850E1;3.193952609E-3;3.193952609E-3;-2.129301662E-3
1.796880162E1;3.193952609E-3;0.000000000E0;1.064650831E-3
1.798071413E1;1.064650831E-3;2.129301662E-3;1.064650831E-3
1.799262506E1;-3.193952609E-3;7.452555932E-3;4.258603323E-3
1.800453756E1;-3.193952609E-3;1.064650808E-2;1.064650831E-3
1.801645006E1;-4.258603323E-3;8.517206647E-3;1.064650831E-3
1.802836100E1;-3.193952609E-3;4.258603323E-3;2.129301662E-3
1.804027194E1;0.000000000E0;2.129301662E-3;4.258603323E-3
1.805218444E1;1.064650831E-3;-6.387905218E-3;5.323254038E-3
1.806409538E1;0.000000000E0;-3.193952609E-3;7.452555932E-3
1.807601256E1;3.193952609E-3;-2.129301662E-3;8.517206647E-3
1.808791881E1;4.258603323E-3;-2.129301662E-3;7.452555932E-3
1.809982975E1;-1.064650831E-3;0.000000000E0;3.193952609E-3
1.811174225E1;-3.193952609E-3;3.193952609E-3;-1.064650831E-3
1.812365319E1;-2.129301662E-3;2.129301662E-3;-2.129301662E-3
1.813556569E1;-2.129301662E-3;2.129301662E-3;-6.387905218E-3
1.814747662E1;-4.258603323E-3;0.000000000E0;-5.323254038E-3
1.815940006E1;-2.129301662E-3;3.193952609E-3;-2.129301662E-3
1.817130006E1;3.193952609E-3;-2.129301662E-3;2.129301662E-3
1.818321100E1;2.129301662E-3;-7.452555932E-3;5.323254038E-3
1.819512975E1;-1.064650831E-3;-1.064650831E-3;5.323254038E-3
1.820703444E1;-1.064650831E-3;4.258603323E-3;1.064650831E-3
1.821894538E1;-1.064650831E-3;8.517206647E-3;3.193952609E-3
1.823085788E1;0.000000000E0;8.517206647E-3;3.193952609E-3
1.824276881E1;0.000000000E0;2.129301662E-3;2.129301662E-3
1.825468131E1;-6.387905218E-3;2.129301662E-3;2.129301662E-3
1.826659225E1;-3.193952609E-3;4.258603323E-3;1.064650831E-3
1.827850631E1;-5.323254038E-3;3.193952609E-3;0.000000000E0
1.829041569E1;-2.129301662E-3;9.581857361E-3;-2.129301662E-3
1.830232663E1;0.000000000E0;3.193952609E-3;3.193952609E-3
1.831423912E1;0.000000000E0;1.064650831E-3;3.193952609E-3
1.832615006E1;4.258603323E-3;-1.064650831E-3;7.452555932E-3
1.833806100E1;4.258603323E-3;-9.581857361E-3;8.517206647E-3
1.834997350E1;0.000000000E0;-1.171115879E-2;5.323254038E-3
1.836188444E1;-1.064650831E-3;-6.387905218E-3;2.129301662E-3
1.837379694E1;0.000000000E0;0.000000000E0;-3.193952609E-3
1.838571100E1;1.064650831E-3;-3.193952609E-3;-6.387905218E-3
1.839762038E1;-3.193952609E-3;2.129301662E-3;-9.581857361E-3
1.840953131E1;0.000000000E0;9.581857361E-3;-9.581857361E-3
1.842144225E1;2.129301662E-3;1.064650808E-2;-3.193952609E-3
1.843335475E1;1.064650831E-3;8.517206647E-3;-2.129301662E-3
1.844526569E1;-1.064650831E-3;6.387905218E-3;-2.129301662E-3
1.845717819E1;-2.129301662E-3;1.384046115E-2;-3.193952609E-3
1.846908912E1;0.000000000E0;2.555162087E-2;0.000000000E0
1.848100631E1;0.000000000E0;1.490511186E-2;3.193952609E-3
1.849291256E1;-2.129301662E-3;0.000000000E0;4.258603323E-3
1.850482350E1;1.064650831E-3;-7.452555932E-3;1.064650808E-2
1.851673444E1;4.258603323E-3;-7.452555932E-3;1.277581044E-2
1.852864694E1;-2.129301662E-3;-8.517206647E-3;8.517206647E-3
1.854055944E1;-3.193952609E-3;-2.129301662E-3;4.258603323E-3
1.855247350E1;-5.323254038E-3;6.387905218E-3;1.064650831E-3
1.856438131E1;-3.193952609E-3;2.129301662E-3;-2.129301662E-3
1.857629381E1;0.000000000E0;-6.387905218E-3;-3.193952609E-3
1.858820475E1;-2.129301662E-3;-1.064650808E-2;-5.323254038E-3
1.860011725E1;1.064650831E-3;-6.387905218E-3;-4.258603323E-3
1.861202819E1;4.258603323E-3;-4.258603323E-3;1.064650831E-3
1.862394069E1;4.258603323E-3;-4.258603323E-3;4.258603323E-3
1.863585162E1;0.000000000E0;0.000000000E0;4.258603323E-3
1.864776256E1;-5.323254038E-3;1.171115879E-2;1.064650831E-3
1.865967506E1;-7.452555932E-3;1.703441329E-2;2.129301662E-3
1.867158600E1;0.000000000E0;1.384046115E-2;4.258603323E-3
1.868350475E1;1.064650831E-3;5.323254038E-3;6.387905218E-3
1.869540944E1;2.129301662E-3;3.193952609E-3;4.258603323E-3
1.870732038E1;-1.064650831E-3;4.258603323E-3;2.129301662E-3
1.871923288E1;0.000000000E0;6.387905218E-3;0.000000000E0
1.873115006E1;-1.064650831E-3;5.323254038E-3;-1.064650831E-3
1.874305788E1;0.000000000E0;2.129301662E-3;-2.129301662E-3
1.875496725E1;-2.129301662E-3;1.064650831E-3;-1.064650831E-3
1.876687819E1;-1.064650831E-3;-3.193952609E-3;-5.323254038E-3
1.877879069E1;1.064650831E-3;-3.193952609E-3;-4.258603323E-3
1.879070788E1;2.129301662E-3;0.000000000E0;-2.129301662E-3
1.880261412E1;2.129301662E-3;3.193952609E-3;1.064650831E-3
1.881452506E1;1.064650831E-3;5.323254038E-3;0.000000000E0
1.882643600E1;-1.064650831E-3;1.277581044E-2;-3.193952609E-3
1.883834850E1;-1.064650831E-3;2.235766686E-2;-4.258603323E-3
1.885025944E1;2.129301662E-3;2.448697016E-2;-3.193952609E-3
1.886217194E1;2.129301662E-3;2.448697016E-2;-2.129301662E-3
1.887408288E1;1.064650831E-3;1.596976258E-2;-2.129301662E-3
1.888599381E1;3.193952609E-3;1.384046115E-2;-3.193952609E-3
1.889790631E1;1.064650831E-3;1.596976258E-2;-1.064650831E-3
1.890982662E1;4.258603323E-3;1.916371472E-2;-2.129301662E-3
1.892173600E1;4.258603323E-3;2.129301615E-2;0.000000000E0
1.893364069E1;6.387905218E-3;1.916371472E-2;0.000000000E0
1.894555319E1;7.452555932E-3;2.342231758E-2;4.258603323E-3
1.895746412E1;6.387905218E-3;2.661627159E-2;6.387905218E-3
1.896937506E1;3.193952609E-3;3.193952516E-2;1.064650831E-3
1.898128600E1;-1.064650831E-3;4.045673087E-2;-2.129301662E-3
1.899319850E1;-1.064650831E-3;4.365068302E-2;-6.387905218E-3
1.900510944E1;0.000000000E0;4.365068302E-2;-9.581857361E-3
1.901702194E1;1.064650831E-3;3.939208016E-2;-8.517206647E-3
1.902893912E1;7.452555932E-3;4.045673087E-2;-2.129301662E-3
1.904084538E1;9.581857361E-3;4.258603230E-2;3.193952609E-3
1.905275631E1;4.258603323E-3;3.726277873E-2;5.323254038E-3
1.906466881E1;0.000000000E0;3.513347730E-2;5.323254038E-3
1.907657975E1;-3.193952609E-3;3.300417587E-2;0.000000000E0
1.908849694E1;-4.258603323E-3;1.916371472E-2;-3.193952609E-3
1.910040475E1;-1.064650831E-3;1.384046115E-2;-1.064650831E-3
1.911231569E1;5.323254038E-3;4.258603323E-3;5.323254038E-3
1.912422663E1;1.171115879E-2;-3.193952609E-3;8.517206647E-3
1.913613912E1;6.387905218E-3;-6.387905218E-3;8.517206647E-3
1.914805631E1;0.000000000E0;-6.387905218E-3;3.193952609E-3
1.915996256E1;-2.129301662E-3;1.064650831E-3;-2.129301662E-3
1.917187350E1;-4.258603323E-3;4.258603323E-3;-3.193952609E-3
1.918378444E1;-2.129301662E-3;1.064650831E-3;-5.323254038E-3
1.919569694E1;-5.323254038E-3;-4.258603323E-3;-9.581857361E-3
1.920760788E1;-7.452555932E-3;-1.171115879E-2;-1.277581044E-2
1.921951881E1;-1.064650831E-3;-1.809906401E-2;-1.064650808E-2
1.923143131E1;2.129301662E-3;-2.342231758E-2;-4.258603323E-3
1.924334225E1;3.193952609E-3;-1.490511186E-2;4.258603323E-3
1.925525475E1;4.258603323E-3;-8.517206647E-3;7.452555932E-3
1.926716569E1;-1.064650831E-3;-9.581857361E-3;1.064650808E-2
1.927907663E1;-5.323254038E-3;-6.387905218E-3;1.064650808E-2
1.929098913E1;-1.064650808E-2;-2.129301662E-3;6.387905218E-3
1.930290162E1;-7.452555932E-3;1.171115879E-2;1.064650831E-3
1.931481256E1;-4.258603323E-3;-7.452555932E-3;3.193952609E-3
1.932672663E1;1.064650831E-3;-2.022836544E-2;6.387905218E-3
1.933863600E1;2.129301662E-3;-3.193952516E-2;0.000000000E0
1.935054694E1;4.258603323E-3;-3.406882659E-2;-2.129301662E-3
1.936245788E1;4.258603323E-3;-3.513347730E-2;-2.129301662E-3
1.937437038E1;3.193952609E-3;-2.555162087E-2;-6.387905218E-3
1.938628131E1;2.129301662E-3;-1.171115879E-2;-7.452555932E-3
1.939819225E1;-3.193952609E-3;-6.387905218E-3;-7.452555932E-3
1.941010475E1;-4.258603323E-3;-5.323254038E-3;-9.581857361E-3
1.942201569E1;-3.193952609E-3;-8.517206647E-3;0.000000000E0
1.943392819E1;3.193952609E-3;-1.064650808E-2;5.323254038E-3
1.944583913E1;2.129301662E-3;-1.277581044E-2;1.277581044E-2
1.945775006E1;0.000000000E0;-1.064650808E-2;1.277581044E-2
1.946966256E1;-6.387905218E-3;1.064650831E-3;9.581857361E-3
1.948157350E1;-6.387905218E-3;-1.703441329E-2;1.064650808E-2
1.949348600E1;3.193952609E-3;-4.790928960E-2;2.768092230E-2
1.950540162E1;5.323254038E-3;-4.577998444E-2;5.110324174E-2
1.951730788E1;-1.171115879E-2;-1.277581006E-1;6.174974889E-2
1.952922038E1;2.129301662E-3;-4.897394031E-2;2.981022373E-2
1.954113288E1;1.171115879E-2;-8.517206647E-3;2.022836544E-2
1.955304381E1;2.129301615E-2;4.045673087E-2;1.384046115E-2
1.956495475E1;1.171115879E-2;3.726277873E-2;3.619812801E-2
1.957686725E1;-1.064650808E-2;-4.258603323E-3;5.110324174E-2
1.958877819E1;-2.874557301E-2;-5.323254038E-3;3.939208016E-2
1.960068913E1;-3.193952516E-2;2.448697016E-2;1.703441329E-2
1.961260162E1;-2.661627159E-2;3.939208016E-2;1.809906401E-2
1.962451256E1;-2.768092230E-2;4.684463516E-2;2.768092230E-2
1.963642506E1;-2.874557301E-2;2.981022373E-2;2.129301615E-2
1.964833600E1;-2.448697016E-2;3.193952516E-2;1.490511186E-2
1.966024850E1;-1.277581044E-2;4.897394031E-2;1.064650831E-3
1.967215944E1;-6.387905218E-3;4.897394031E-2;3.193952609E-3
1.968407350E1;-1.277581044E-2;4.045673087E-2;9.581857361E-3
1.969598288E1;-2.661627159E-2;4.152138159E-2;2.661627159E-2
1.970789381E1;-5.216789246E-2;6.281439960E-2;5.323254317E-2
1.971980631E1;-7.984881103E-2;1.149822921E-1;7.878416032E-2
1.973171725E1;-6.813765317E-2;1.149822921E-1;5.962044746E-2
1.974362819E1;-3.513347730E-2;1.192408949E-1;3.087487444E-2
1.975554069E1;-1.064650831E-3;1.054004356E-1;1.277581044E-2
1.976745162E1;1.490511186E-2;9.475392103E-2;1.490511186E-2
1.977936412E1;-1.064650831E-3;8.091346174E-2;1.916371472E-2
1.979127506E1;-2.981022373E-2;8.836601675E-2;1.596976258E-2
1.980318600E1;-4.152138159E-2;9.794788063E-2;7.452555932E-3
1.981509850E1;-3.300417587E-2;1.149822921E-1;-4.258603323E-3
1.982700944E1;-1.916371472E-2;1.511804163E-1;-1.490511186E-2
1.983892194E1;-7.452555932E-3;1.841845959E-1;-2.022836544E-2
1.985083288E1;-4.258603323E-3;1.724734306E-1;-3.406882659E-2
1.986274538E1;0.000000000E0;1.511804163E-1;-3.193952516E-2
1.987465631E1;3.193952609E-3;1.309520602E-1;-2.874557301E-2
1.988656725E1;3.193952609E-3;1.128529906E-1;-3.087487444E-2
1.989847975E1;3.193952609E-3;1.022064835E-1;-3.513347730E-2
1.991039069E1;-2.129301662E-3;6.494370103E-2;-4.045673087E-2
1.992230788E1;0.000000000E0;3.513347730E-2;-4.471533373E-2
1.993421412E1;6.387905218E-3;1.916371472E-2;-3.832742944E-2
1.994612506E1;8.517206647E-3;1.064650831E-3;-2.448697016E-2
1.995803600E1;3.193952609E-3;-1.064650808E-2;-2.342231758E-2
1.996994850E1;6.387905218E-3;-1.703441329E-2;-2.555162087E-2
1.998186100E1;5.323254038E-3;-3.513347730E-2;-2.448697016E-2
1.999377194E1;-1.064650831E-3;-5.642649531E-2;-2.555162087E-2
2.000568288E1;3.193952609E-3;-7.133160532E-2;-3.300417587E-2
2.001759381E1;2.022836544E-2;-7.346090674E-2;-3.300417587E-2
2.002950631E1;4.365068302E-2;-5.536184460E-2;-2.555162087E-2
2.004142194E1;5.110324174E-2;-4.577998444E-2;-1.384046115E-2
2.005333131E1;4.152138159E-2;-6.387905031E-2;-6.387905218E-3
2.006524225E1;2.981022373E-2;-8.304276317E-2;-5.323254038E-3
2.007715319E1;2.555162087E-2;-9.262461960E-2;-7.452555932E-3
2.008906412E1;2.661627159E-2;-7.878416032E-2;-9.581857361E-3
2.010097662E1;2.661627159E-2;-5.962044746E-2;-1.384046115E-2
2.011288756E1;2.342231758E-2;-4.152138159E-2;-1.064650808E-2
2.012480006E1;1.703441329E-2;-2.981022373E-2;-9.581857361E-3
2.013671100E1;1.384046115E-2;-1.384046115E-2;-6.387905218E-3
2.014862194E1;1.809906401E-2;3.193952609E-3;-9.581857361E-3
2.016056569E1;1.916371472E-2;2.129301615E-2;-1.277581044E-2
2.017244538E1;1.384046115E-2;2.342231758E-2;-1.171115879E-2
2.018435788E1;9.581857361E-3;3.726277873E-2;-1.171115879E-2
2.019626881E1;4.258603323E-3;4.577998444E-2;-1.171115879E-2
2.020818131E1;1.064650831E-3;6.174974889E-2;-1.490511186E-2
2.022009850E1;-3.193952609E-3;7.133160532E-2;-1.277581044E-2
2.023200319E1;-2.129301662E-3;7.239625603E-2;-1.171115879E-2
2.024391569E1;-3.193952609E-3;6.494370103E-2;-7.452555932E-3
2.025582662E1;0.000000000E0;5.536184460E-2;-4.258603323E-3
2.026773913E1;4.258603323E-3;3.300417587E-2;0.000000000E0
2.027965319E1;3.193952609E-3;1.277581044E-2;1.064650831E-3
2.029156412E1;3.193952609E-3;-4.258603323E-3;5.323254038E-3
2.030347350E1;0.000000000E0;-1.703441329E-2;4.258603323E-3
2.031538444E1;-4.258603323E-3;-2.874557301E-2;3.193952609E-3
2.032729694E1;-4.258603323E-3;-3.193952516E-2;2.129301662E-3
2.033921256E1;-1.064650831E-3;-3.087487444E-2;6.387905218E-3
2.035111881E1;2.129301662E-3;-3.193952516E-2;5.323254038E-3
2.036303131E1;3.193952609E-3;-2.981022373E-2;5.323254038E-3
2.037494225E1;3.193952609E-3;-2.874557301E-2;3.193952609E-3
2.038685475E1;1.064650831E-3;-2.342231758E-2;2.129301662E-3
2.039876569E1;0.000000000E0;-1.809906401E-2;1.064650831E-3
2.041067662E1;-1.064650831E-3;-1.384046115E-2;1.064650831E-3
2.042258913E1;-3.193952609E-3;-5.323254038E-3;0.000000000E0
2.043450006E1;-3.193952609E-3;-1.064650831E-3;2.129301662E-3
2.044641256E1;-3.193952609E-3;2.129301662E-3;1.064650831E-3
2.045832350E1;-2.129301662E-3;5.323254038E-3;0.000000000E0
2.047023600E1;0.000000000E0;7.452555932E-3;-1.064650831E-3
2.048214694E1;2.129301662E-3;3.193952609E-3;0.000000000E0
2.049405788E1;2.129301662E-3;1.064650831E-3;1.064650831E-3
2.050597038E1;0.000000000E0;-1.064650831E-3;1.064650831E-3
2.051788600E1;0.000000000E0;-1.064650831E-3;-3.193952609E-3
2.052979538E1;-1.064650831E-3;-2.129301662E-3;2.129301662E-3
2.054170475E1;-1.064650831E-3;0.000000000E0;-1.064650831E-3
2.055361725E1;-1.064650831E-3;-1.064650831E-3;1.064650831E-3
2.056552819E1;0.000000000E0;1.064650831E-3;-1.064650831E-3
2.057744850E1;2.129301662E-3;-2.129301662E-3;-2.129301662E-3
2.058935163E1;2.129301662E-3;-2.129301662E-3;1.064650831E-3
2.060126256E1;1.064650831E-3;-3.193952609E-3;0.000000000E0
2.061317350E1;1.064650831E-3;-8.517206647E-3;0.000000000E0
2.062508600E1;-1.064650831E-3;-4.258603323E-3;-1.064650831E-3
2.063699850E1;-2.129301662E-3;-1.064650831E-3;1.064650831E-3
2.064891569E1;-1.064650831E-3;0.000000000E0;2.129301662E-3
2.066082194E1;-1.064650831E-3;-1.064650831E-3;-1.064650831E-3
2.067273288E1;-3.193952609E-3;-3.193952609E-3;-1.064650831E-3
2.068464381E1;-2.129301662E-3;-2.129301662E-3;2.129301662E-3
2.069655631E1;0.000000000E0;-5.323254038E-3;1.064650831E-3
2.070846725E1;1.064650831E-3;-6.387905218E-3;1.064650831E-3
2.072038444E1;1.064650831E-3;-5.323254038E-3;1.064650831E-3
2.073229069E1;2.129301662E-3;1.064650831E-3;2.129301662E-3
2.074420319E1;3.193952609E-3;3.193952609E-3;5.323254038E-3
2.075611725E1;1.064650831E-3;2.129301662E-3;4.258603323E-3
2.076802662E1;-1.064650831E-3;2.129301662E-3;4.258603323E-3
2.077993600E1;1.064650831E-3;4.258603323E-3;3.193952609E-3
2.079184850E1;-1.064650831E-3;4.258603323E-3;2.129301662E-3
2.080375944E1;-1.064650831E-3;2.129301662E-3;2.129301662E-3
2.081567663E1;-1.064650831E-3;4.258603323E-3;2.129301662E-3
2.082758288E1;-1.064650831E-3;1.064650831E-3;2.129301662E-3
2.083949381E1;-2.129301662E-3;1.064650831E-3;2.129301662E-3
2.085140631E1;-2.129301662E-3;0.000000000E0;4.258603323E-3
2.086332350E1;-1.064650831E-3;-1.064650831E-3;4.258603323E-3
2.087522975E1;-2.129301662E-3;-2.129301662E-3;4.258603323E-3
2.088714069E1;0.000000000E0;-1.064650831E-3;5.323254038E-3
2.089905163E1;-2.129301662E-3;-3.193952609E-3;3.193952609E-3
2.091096256E1;-1.064650831E-3;-4.258603323E-3;4.258603323E-3
2.092287506E1;0.000000000E0;-4.258603323E-3;3.193952609E-3
2.093478756E1;-1.064650831E-3;-3.193952609E-3;1.064650831E-3
2.094669850E1;0.000000000E0;-2.129301662E-3;1.064650831E-3
2.095861100E1;-2.129301662E-3;-3.193952609E-3;-1.064650831E-3
2.097052194E1;3.193952609E-3;-2.129301662E-3;0.000000000E0
2.098243288E1;-1.064650831E-3;1.064650831E-3;2.129301662E-3
2.099434538E1;1.064650831E-3;3.193952609E-3;3.193952609E-3
2.100625631E1;-4.258603323E-3;0.000000000E0;3.193952609E-3
2.101816881E1;-4.258603323E-3;1.064650831E-3;2.129301662E-3
2.103007975E1;0.000000000E0;1.064650831E-3;3.193952609E-3
2.104199225E1;-2.129301662E-3;1.064650831E-3;2.129301662E-3
2.105390475E1;0.000000000E0;0.000000000E0;1.064650831E-3
2.106581413E1;-3.193952609E-3;-3.193952609E-3;2.129301662E-3
2.107772662E1;-1.064650831E-3;0.000000000E0;3.193952609E-3
2.108963756E1;-2.129301662E-3;-1.064650831E-3;3.193952609E-3
2.110155006E1;-2.129301662E-3;0.000000000E0;0.000000000E0
2.111346412E1;-1.064650831E-3;0.000000000E0;3.193952609E-3
2.112537194E1;1.064650831E-3;1.064650831E-3;2.129301662E-3
2.113728444E1;0.000000000E0;-1.064650831E-3;1.064650831E-3
2.114919538E1;-1.064650831E-3;-2.129301662E-3;2.129301662E-3
2.116110788E1;0.000000000E0;0.000000000E0;2.129301662E-3
2.117301881E1;2.129301662E-3;-2.129301662E-3;4.258603323E-3
2.118493131E1;0.000000000E0;-2.129301662E-3;4.258603323E-3
2.119684225E1;-1.064650831E-3;0.000000000E0;6.387905218E-3
2.120875319E1;0.000000000E0;3.193952609E-3;3.193952609E-3
2.122066569E1;0.000000000E0;2.129301662E-3;5.323254038E-3
2.123257819E1;1.064650831E-3;3.193952609E-3;3.193952609E-3
2.124448756E1;1.064650831E-3;3.193952609E-3;3.193952609E-3
2.125640006E1;0.000000000E0;1.064650831E-3;4.258603323E-3
2.126831256E1;2.129301662E-3;2.129301662E-3;4.258603323E-3
2.128022350E1;0.000000000E0;0.000000000E0;3.193952609E-3
2.129213444E1;0.000000000E0;2.129301662E-3;3.193952609E-3
2.130404694E1;-1.064650831E-3;1.064650831E-3;3.193952609E-3
2.131595944E1;-1.064650831E-3;1.064650831E-3;4.258603323E-3
2.132786881E1;1.064650831E-3;1.064650831E-3;3.193952609E-3
2.133978131E1;0.000000000E0;3.193952609E-3;2.129301662E-3
2.135169225E1;0.000000000E0;-1.064650831E-3;0.000000000E0
2.136360319E1;-1.064650831E-3;1.064650831E-3;1.064650831E-3
2.137551569E1;1.064650831E-3;3.193952609E-3;0.000000000E0
2.138742662E1;0.000000000E0;3.193952609E-3;2.129301662E-3
2.139933912E1;0.000000000E0;2.129301662E-3;2.129301662E-3
2.141125788E1;1.064650831E-3;5.323254038E-3;3.193952609E-3
2.142316256E1;3.193952609E-3;9.581857361E-3;6.387905218E-3
2.143507350E1;1.064650831E-3;5.323254038E-3;5.323254038E-3
2.144698444E1;-2.129301662E-3;4.258603323E-3;7.452555932E-3
2.145889694E1;-2.129301662E-3;2.129301662E-3;6.387905218E-3
2.147080788E1;2.129301662E-3;0.000000000E0;4.258603323E-3
2.148272038E1;4.258603323E-3;3.193952609E-3;7.452555932E-3
2.149463131E1;2.129301662E-3;4.258603323E-3;7.452555932E-3
2.150654381E1;-1.064650831E-3;7.452555932E-3;6.387905218E-3
2.151845475E1;-1.064650831E-3;4.258603323E-3;3.193952609E-3
2.153036725E1;-4.258603323E-3;7.452555932E-3;2.129301662E-3
2.154228600E1;0.000000000E0;5.323254038E-3;1.064650831E-3
2.155418912E1;2.129301662E-3;1.064650831E-3;1.064650831E-3
2.156610162E1;-1.064650831E-3;-1.064650831E-3;2.129301662E-3
2.157801256E1;-1.064650831E-3;0.000000000E0;1.064650831E-3
2.158992506E1;-1.064650831E-3;6.387905218E-3;0.000000000E0
2.160183600E1;1.064650831E-3;2.129301662E-3;-2.129301662E-3
2.161374850E1;1.064650831E-3;-1.064650831E-3;-2.129301662E-3
2.162565944E1;-1.064650831E-3;-1.064650831E-3;-2.129301662E-3
2.163757194E1;-1.064650831E-3;-1.064650831E-3;-6.387905218E-3
2.164948288E1;-3.193952609E-3;0.000000000E0;-9.581857361E-3
2.166139381E1;-3.193952609E-3;-2.129301662E-3;-1.171115879E-2
2.167331100E1;0.000000000E0;0.000000000E0;-1.171115879E-2
2.168521725E1;-1.064650831E-3;-3.193952609E-3;-1.277581044E-2
2.169712975E1;-1.064650831E-3;-6.387905218E-3;-1.171115879E-2
2.170905006E1;2.129301662E-3;-8.517206647E-3;-7.452555932E-3
2.172095319E1;-2.129301662E-3;-6.387905218E-3;-3.193952609E-3
2.173286413E1;0.000000000E0;-4.258603323E-3;0.000000000E0
2.174477506E1;-2.129301662E-3;4.258603323E-3;4.258603323E-3
2.175668756E1;-1.064650831E-3;4.258603323E-3;3.193952609E-3
2.176859850E1;-1.064650831E-3;4.258603323E-3;2.129301662E-3
2.178050944E1;-1.064650831E-3;1.064650831E-3;3.193952609E-3
2.179242194E1;0.000000000E0;-8.517206647E-3;2.129301662E-3
2.180433288E1;1.064650831E-3;-1.384046115E-2;4.258603323E-3
2.181624381E1;-1.064650831E-3;-1.064650808E-2;0.000000000E0
2.182815631E1;-2.129301662E-3;-1.064650831E-3;-4.258603323E-3
2.184006725E1;-4.258603323E-3;6.387905218E-3;-6.387905218E-3
2.185197975E1;1.064650831E-3;8.517206647E-3;-5.323254038E-3
2.186389069E1;3.193952609E-3;1.064650831E-3;-5.323254038E-3
2.187580319E1;5.323254038E-3;-7.452555932E-3;-3.193952609E-3
2.188771413E1;5.323254038E-3;-1.064650808E-2;1.064650831E-3
2.189962506E1;4.258603323E-3;-9.581857361E-3;1.064650831E-3
2.191153756E1;3.193952609E-3;-5.323254038E-3;1.064650831E-3
2.192344850E1;1.064650831E-3;0.000000000E0;-1.064650831E-3
2.193536100E1;-1.064650831E-3;1.064650831E-3;0.000000000E0
2.194727194E1;0.000000000E0;1.064650831E-3;-1.064650831E-3
2.195918444E1;-2.129301662E-3;1.064650831E-3;0.000000000E0
2.197109538E1;-4.258603323E-3;2.129301662E-3;-3.193952609E-3
2.198300788E1;-2.129301662E-3;4.258603323E-3;-2.129301662E-3
2.199491881E1;-3.193952609E-3;9.581857361E-3;-3.193952609E-3
2.200683600E1;-4.258603323E-3;1.064650808E-2;-5.323254038E-3
2.201874225E1;-7.452555932E-3;8.517206647E-3;-7.452555932E-3
2.203065319E1;-6.387905218E-3;-1.064650831E-3;-4.258603323E-3
2.204256569E1;-4.258603323E-3;-8.517206647E-3;-4.258603323E-3
2.205447663E1;-4.258603323E-3;-9.581857361E-3;-8.517206647E-3
2.206638756E1;-6.387905218E-3;2.129301662E-3;-9.581857361E-3
2.207830006E1;-4.258603323E-3;9.581857361E-3;-9.581857361E-3
2.209021100E1;1.064650831E-3;1.384046115E-2;-8.517206647E-3
2.210212350E1;5.323254038E-3;4.258603323E-3;-8.517206647E-3
2.211403444E1;5.323254038E-3;-3.193952609E-3;-2.129301662E-3
2.212594538E1;7.452555932E-3;-5.323254038E-3;4.258603323E-3
2.213785788E1;7.452555932E-3;-6.387905218E-3;3.193952609E-3
2.214976881E1;0.000000000E0;-6.387905218E-3;4.258603323E-3
2.216168131E1;-2.129301662E-3;-2.129301662E-3;2.129301662E-3
2.217359225E1;-5.323254038E-3;1.064650831E-3;-1.064650831E-3
2.218550319E1;-2.129301662E-3;3.193952609E-3;2.129301662E-3
2.219741569E1;-2.129301662E-3;4.258603323E-3;3.193952609E-3
2.220932663E1;0.000000000E0;5.323254038E-3;3.193952609E-3
2.222123912E1;1.064650831E-3;2.129301662E-3;3.193952609E-3
2.223315006E1;0.000000000E0;0.000000000E0;5.323254038E-3
2.224506256E1;0.000000000E0;-4.258603323E-3;4.258603323E-3
2.225697350E1;2.129301662E-3;-2.129301662E-3;3.193952609E-3
2.226888444E1;1.064650831E-3;2.129301662E-3;2.129301662E-3
2.228079694E1;0.000000000E0;6.387905218E-3;-1.064650831E-3
2.229270788E1;2.129301662E-3;6.387905218E-3;-5.323254038E-3
2.230462506E1;1.064650831E-3;2.129301662E-3;-3.193952609E-3
2.231653131E1;5.323254038E-3;-5.323254038E-3;-4.258603323E-3
2.232844225E1;4.258603323E-3;-6.387905218E-3;-2.129301662E-3
2.234035475E1;3.193952609E-3;-9.581857361E-3;-1.064650831E-3
2.235226569E1;-2.129301662E-3;-4.258603323E-3;-1.064650831E-3
2.236417819E1;-3.193952609E-3;2.129301662E-3;-4.258603323E-3
2.237609069E1;-3.193952609E-3;5.323254038E-3;-6.387905218E-3
2.238800006E1;-4.258603323E-3;6.387905218E-3;-6.387905218E-3
2.239991256E1;-2.129301662E-3;5.323254038E-3;-6.387905218E-3
2.241182350E1;-1.064650831E-3;0.000000000E0;-5.323254038E-3
2.242373912E1;-2.129301662E-3;-1.064650831E-3;-4.258603323E-3
2.243564694E1;-5.323254038E-3;-3.193952609E-3;-4.258603323E-3
2.244755788E1;-5.323254038E-3;1.064650831E-3;-4.258603323E-3
2.245947038E1;-3.193952609E-3;0.000000000E0;-4.258603323E-3
2.247138131E1;-3.193952609E-3;5.323254038E-3;-3.193952609E-3
2.248329538E1;-2.129301662E-3;9.581857361E-3;-4.258603323E-3
2.249520475E1;1.064650831E-3;8.517206647E-3;-2.129301662E-3
2.250711569E1;2.129301662E-3;5.323254038E-3;-2.129301662E-3
2.251902819E1;2.129301662E-3;1.064650831E-3;-2.129301662E-3
2.253093912E1;1.064650831E-3;-2.129301662E-3;-5.323254038E-3
2.254285162E1;0.000000000E0;-3.193952609E-3;1.064650831E-3
2.255476256E1;-2.129301662E-3;-1.064650831E-3;-3.193952609E-3
2.256667506E1;-1.064650831E-3;0.000000000E0;-3.193952609E-3
2.257858600E1;-3.193952609E-3;1.064650831E-3;-4.258603323E-3
2.259049850E1;-4.258603323E-3;2.129301662E-3;-5.323254038E-3
2.260240944E1;-2.129301662E-3;1.064650831E-3;-1.064650831E-3
2.261432194E1;0.000000000E0;0.000000000E0;-1.064650831E-3
2.262623288E1;0.000000000E0;-4.258603323E-3;3.193952609E-3
2.263814381E1;0.000000000E0;-4.258603323E-3;4.258603323E-3
2.265005631E1;1.064650831E-3;-5.323254038E-3;8.517206647E-3
2.266199381E1;0.000000000E0;-3.193952609E-3;7.452555932E-3
2.267387819E1;1.064650831E-3;-3.193952609E-3;8.517206647E-3
2.268579069E1;3.193952609E-3;-2.129301662E-3;5.323254038E-3
2.269770162E1;2.129301662E-3;-1.064650831E-3;5.323254038E-3
2.270961412E1;1.064650831E-3;-5.323254038E-3;4.258603323E-3
2.272152506E1;2.129301662E-3;-3.193952609E-3;3.193952609E-3
2.273343600E1;1.064650831E-3;-2.129301662E-3;2.129301662E-3
2.274534850E1;1.064650831E-3;0.000000000E0;3.193952609E-3
2.275725944E1;0.000000000E0;0.000000000E0;0.000000000E0
2.276917194E1;2.129301662E-3;1.064650831E-3;0.000000000E0
2.278108600E1;0.000000000E0;-2.129301662E-3;0.000000000E0
2.279299538E1;1.064650831E-3;-1.064650831E-3;0.000000000E0
2.280490631E1;1.064650831E-3;-2.129301662E-3;-1.064650831E-3
2.281681725E1;0.000000000E0;2.129301662E-3;-1.064650831E-3
2.282872975E1;-2.129301662E-3;8.517206647E-3;-5.323254038E-3
2.284065788E1;0.000000000E0;1.064650808E-2;-4.258603323E-3
2.285255162E1;-2.129301662E-3;4.258603323E-3;-3.193952609E-3
2.286446412E1;0.000000000E0;0.000000000E0;-4.258603323E-3
2.287637506E1;-3.193952609E-3;2.129301662E-3;-8.517206647E-3
2.288828600E1;-4.258603323E-3;6.387905218E-3;-5.323254038E-3
2.290020631E1;-1.064650831E-3;7.452555932E-3;-8.517206647E-3
2.291210944E1;2.129301662E-3;1.064650831E-3;-4.258603323E-3
2.292402194E1;2.129301662E-3;2.129301662E-3;-1.064650831E-3
2.293593288E1;0.000000000E0;0.000000000E0;-2.129301662E-3
2.294784538E1;0.000000000E0;-4.258603323E-3;2.129301662E-3
2.295975631E1;1.064650831E-3;-6.387905218E-3;6.387905218E-3
2.297166725E1;1.064650831E-3;-1.171115879E-2;4.258603323E-3
2.298357975E1;3.193952609E-3;-5.323254038E-3;3.193952609E-3
2.299549069E1;2.129301662E-3;1.064650831E-3;5.323254038E-3
2.300740319E1;-2.129301662E-3;0.000000000E0;5.323254038E-3
2.301931412E1;-1.064650831E-3;-3.193952609E-3;6.387905218E-3
2.303122663E1;0.000000000E0;0.000000000E0;5.323254038E-3
2.304313756E1;2.129301662E-3;3.193952609E-3;7.452555932E-3
2.305505006E1;0.000000000E0;6.387905218E-3;3.193952609E-3
2.306696100E1;1.064650831E-3;1.064650831E-3;3.193952609E-3
2.307887194E1;-1.064650831E-3;2.129301662E-3;4.258603323E-3
2.309078444E1;0.000000000E0;-3.193952609E-3;3.193952609E-3
2.310269538E1;-1.064650831E-3;-4.258603323E-3;3.193952609E-3
2.311460788E1;-1.064650831E-3;-8.517206647E-3;3.193952609E-3
2.312651881E1;0.000000000E0;-6.387905218E-3;2.129301662E-3
2.313843131E1;-1.064650831E-3;-6.387905218E-3;1.064650831E-3
2.315034225E1;0.000000000E0;-3.193952609E-3;1.064650831E-3
2.316225475E1;0.000000000E0;-1.064650831E-3;1.064650831E-3
2.317416569E1;1.064650831E-3;1.064650831E-3;-1.064650831E-3
2.318607663E1;-1.064650831E-3;-1.064650831E-3;1.064650831E-3
2.319798913E1;-1.064650831E-3;0.000000000E0;4.258603323E-3
2.320990006E1;-1.064650831E-3;4.258603323E-3;-4.258603323E-3
2.322181100E1;-4.258603323E-3;6.387905218E-3;-9.581857361E-3
2.323372350E1;-5.323254038E-3;3.193952609E-3;-1.171115879E-2
2.324564225E1;0.000000000E0;-2.129301662E-3;-8.517206647E-3
2.325754694E1;-2.129301662E-3;-4.258603323E-3;-7.452555932E-3
2.326945944E1;-5.323254038E-3;3.193952609E-3;-8.517206647E-3
2.328137038E1;-5.323254038E-3;1.064650808E-2;-8.517206647E-3
2.329328131E1;-4.258603323E-3;1.171115879E-2;-6.387905218E-3
2.330519538E1;0.000000000E0;9.581857361E-3;0.000000000E0
2.331710475E1;4.258603323E-3;3.193952609E-3;1.064650831E-3
2.332901569E1;-2.129301662E-3;-4.258603323E-3;6.387905218E-3
2.334092819E1;0.000000000E0;-4.258603323E-3;7.452555932E-3
2.335283913E1;2.129301662E-3;1.064650831E-3;6.387905218E-3
2.336475006E1;2.129301662E-3;6.387905218E-3;6.387905218E-3
2.337666256E1;3.193952609E-3;1.064650808E-2;5.323254038E-3
2.338857506E1;1.064650831E-3;1.171115879E-2;7.452555932E-3
2.340048600E1;-2.129301662E-3;3.193952609E-3;6.387905218E-3
2.341239694E1;0.000000000E0;-6.387905218E-3;5.323254038E-3
2.342430788E1;-2.129301662E-3;-1.064650808E-2;4.258603323E-3
2.343622038E1;-2.129301662E-3;-1.490511186E-2;5.323254038E-3
2.344813131E1;-2.129301662E-3;-1.277581044E-2;6.387905218E-3
2.346004225E1;0.000000000E0;-7.452555932E-3;4.258603323E-3
2.347195475E1;0.000000000E0;-3.193952609E-3;5.323254038E-3
2.348386569E1;5.323254038E-3;-4.258603323E-3;8.517206647E-3
2.349577819E1;4.258603323E-3;-6.387905218E-3;1.064650808E-2
2.350768913E1;0.000000000E0;-8.517206647E-3;1.064650808E-2
2.351960162E1;1.064650831E-3;-6.387905218E-3;9.581857361E-3
2.353151256E1;1.064650831E-3;-1.064650831E-3;6.387905218E-3
2.354342506E1;-1.064650831E-3;2.129301662E-3;4.258603323E-3
2.355533912E1;-2.129301662E-3;4.258603323E-3;2.129301662E-3
2.356724850E1;0.000000000E0;3.193952609E-3;3.193952609E-3
2.357915944E1;0.000000000E0;0.000000000E0;1.064650831E-3
2.359107038E1;1.064650831E-3;2.129301662E-3;1.064650831E-3
2.360298288E1;3.193952609E-3;-1.064650831E-3;-1.064650831E-3
2.361489850E1;1.064650831E-3;0.000000000E0;-1.064650831E-3
2.362680475E1;0.000000000E0;-1.064650831E-3;-4.258603323E-3
2.363871725E1;-1.064650831E-3;0.000000000E0;-2.129301662E-3
2.365062819E1;-3.193952609E-3;3.193952609E-3;2.129301662E-3
2.366254069E1;-2.129301662E-3;6.387905218E-3;-1.064650831E-3
2.367445788E1;-1.064650831E-3;6.387905218E-3;0.000000000E0
2.368636412E1;0.000000000E0;6.387905218E-3;-2.129301662E-3
2.369827506E1;-2.129301662E-3;-1.064650831E-3;-3.193952609E-3
2.371018600E1;-3.193952609E-3;-1.064650831E-3;-5.323254038E-3
2.372209850E1;-2.129301662E-3;0.000000000E0;-4.258603323E-3
2.373401256E1;-3.193952609E-3;-1.064650831E-3;-7.452555932E-3
