"Time (s)";"Linear Acceleration x (m/s^2)";"Linear Acceleration y (m/s^2)";"Linear Acceleration z (m/s^2)"
2.580781300E-2;1.190999970E-1;9.959999472E-2;-2.496999949E-1
4.566093800E-2;-3.109999932E-2;-6.469999999E-2;1.310000010E-2
6.551406300E-2;-1.836999953E-1;-1.255999953E-1;-1.398999989E-1
8.536562500E-2;-1.999999862E-3;1.110999957E-1;7.999999449E-3
1.052187500E-1;9.160000086E-2;-8.769999444E-2;2.511000037E-1
1.250703130E-1;2.606000006E-1;2.065999955E-1;1.860000007E-2
1.449234380E-1;3.185999990E-1;1.617999971E-1;1.500999928E-1
1.647765630E-1;4.768999815E-1;4.908999801E-1;6.359999627E-2
1.846296880E-1;-3.299999982E-3;-1.728999913E-1;2.294999957E-1
2.044812500E-1;-4.829999804E-2;-9.409999847E-2;5.436999798E-1
2.243343750E-1;2.161999941E-1;1.421999931E-1;-1.399999950E-2
2.441875000E-1;1.218999997E-1;1.137999967E-1;-3.163999915E-1
2.640390630E-1;2.665999830E-1;3.727999926E-1;-2.359999903E-2
2.838921880E-1;1.296999902E-1;2.312999964E-1;8.760000020E-2
3.037453130E-1;3.249000013E-1;5.309000015E-1;1.310999990E-1
3.236109380E-1;4.378999770E-1;4.004999995E-1;1.724999994E-1
3.434500000E-1;5.812999606E-1;6.749999523E-2;-1.975999922E-1
3.633031250E-1;1.016099930E0;-2.976999879E-1;4.531999826E-1
3.831562500E-1;8.291999698E-1;3.109000027E-1;1.560000032E-1
4.030078130E-1;7.026999593E-1;3.533999920E-1;3.644999862E-1
4.228609380E-1;5.331999660E-1;-1.110999957E-1;3.000000026E-3
4.427140630E-1;4.217000008E-1;-1.900999993E-1;-4.684999883E-1
4.625718750E-1;1.049999967E-1;-6.039999723E-1;-9.101999998E-1
4.824187500E-1;3.966999948E-1;-4.760999978E-1;-1.205699921E0
5.022718750E-1;1.101099968E0;5.649999976E-1;-1.163100004E0
5.221250000E-1;9.013999701E-1;5.590000153E-1;-7.337999940E-1
5.419765630E-1;1.000999957E-1;-3.152999878E-1;-4.639999866E-1
5.618296880E-1;-1.237900019E0;-1.380499959E0;-9.388999939E-1
5.816828130E-1;-1.585000008E-1;-5.869999900E-2;-1.598299980E0
6.015343750E-1;8.305000067E-1;9.246999621E-1;-5.194000006E-1
6.213921880E-1;3.958999813E-1;1.159999967E-1;-1.675300002E0
6.412406250E-1;-4.138999879E-1;-1.017999947E-1;-1.042099953E0
6.610921880E-1;-1.066699982E0;-1.180599928E0;3.770000041E-1
6.809453130E-1;1.282999963E-1;-9.631999731E-1;-8.837999701E-1
7.007984380E-1;4.883999825E-1;-6.844999790E-1;2.307999879E-1
7.206515630E-1;2.258999944E-1;-1.020599961E0;-1.138000011E0
7.405031250E-1;3.390000015E-2;-1.042299986E0;-2.115399837E0
7.603562500E-1;2.997999787E-1;-1.540699959E0;-5.081999898E-1
7.802093750E-1;7.450000048E-1;-6.498000026E-1;-1.944299936E0
8.000609380E-1;-1.789999902E-1;-1.188199997E0;-7.782999873E-1
8.199156250E-1;7.319999933E-1;-1.031399965E0;6.116999984E-1
8.397671880E-1;1.763999909E-1;-8.278999925E-1;7.613999844E-1
8.596187500E-1;-4.055999815E-1;-6.100000143E-1;-5.234000087E-1
8.794718750E-1;-2.997999787E-1;1.667999923E-1;-1.172999963E-1
8.993250000E-1;-8.351999521E-1;-6.204000115E-1;7.884999514E-1
9.191765630E-1;-1.263399959E0;-9.030999541E-1;1.705999970E-1
9.390296880E-1;-8.701999784E-1;-6.345999837E-1;5.169999972E-2
9.588828130E-1;-1.181499958E0;-3.326999843E-1;3.053999841E-1
9.787390630E-1;-1.386299968E0;-1.005499959E0;7.513999939E-1
9.985875000E-1;-1.322799921E0;-1.263599992E0;1.568300009E0
1.018440625E0;-5.426999927E-1;-3.098999858E-1;1.624799967E0
1.038293750E0;5.269999802E-2;3.249000013E-1;9.258999825E-1
1.058145313E0;-2.137999982E-1;1.823000014E-1;-4.824000001E-1
1.077998438E0;-1.094300032E0;-2.743999958E-1;-1.506999969E0
1.097851563E0;-1.698399901E0;-6.653999686E-1;-1.069800019E0
1.117703125E0;-2.268800020E0;-8.865999579E-1;1.305999905E-1
1.137556250E0;-1.149699926E0;-5.629999638E-1;1.156399965E0
1.157409375E0;-9.883999825E-1;-6.958000064E-1;-9.849999845E-2
1.177262500E0;-2.111199856E0;-6.613000035E-1;-1.979099989E0
1.197114063E0;-2.800499916E0;-4.988999963E-1;-2.461599827E0
1.216967188E0;-1.886099935E0;-4.597999752E-1;-6.543999910E-1
1.236820313E0;-6.008999944E-1;1.064999998E-1;1.394699931E0
1.256671875E0;-4.739999771E-2;-9.499999881E-2;2.651099920E0
1.276525000E0;3.035999835E-1;5.148999691E-1;2.891000032E0
1.296378125E0;3.484999835E-1;1.035400033E0;2.035799980E0
1.316229688E0;5.751000047E-1;1.231799960E0;1.392599940E0
1.336081250E0;1.033999994E-1;8.218999505E-1;2.139899969E0
1.355934375E0;1.381399989E0;1.172500014E0;3.475299835E0
1.375787500E0;1.199000001E0;1.327399969E0;1.924699903E0
1.395640625E0;4.158999920E-1;1.277599931E0;1.558699965E0
1.415492188E0;1.445799947E0;1.963899970E0;1.275799990E0
1.435345313E0;9.147999883E-1;1.741099954E0;-4.299999680E-3
1.455198438E0;9.125999808E-1;1.028999925E0;1.674699903E0
1.475056250E0;3.523899794E0;2.566999912E0;1.363099933E0
1.494903125E0;5.850100040E0;4.754300117E0;-3.369099855E0
1.514764063E0;3.734200001E0;3.844099998E0;-2.070999891E-1
1.534607813E0;4.142099857E0;2.908900023E0;1.276700020E0
1.554462500E0;3.017499924E0;2.432999849E0;1.615999937E-1
1.574317188E0;1.453000009E-1;1.127099991E0;-1.514099956E0
1.594167188E0;1.285899997E0;9.810999632E-1;-8.884999752E-1
1.614020313E0;2.667599916E0;4.449999928E-1;1.061999947E-1
1.633873438E0;3.255299807E0;4.738999903E-1;-1.938999891E-1
1.653726563E0;-3.058999777E-1;-3.486999869E-1;-1.491799951E0
1.673578125E0;-4.166199684E0;-1.486499906E0;-9.504999518E-1
1.693439063E0;-4.402199745E0;-1.416800022E0;1.569599986E0
1.713284375E0;-3.335199833E0;-4.869999886E-1;-8.488000035E-1
1.733135938E0;-5.100800037E0;4.742999971E-1;-2.521899939E0
1.752989063E0;-5.282099724E0;7.181999683E-1;-3.059700012E0
1.772842188E0;-6.669499874E0;-2.608000040E-1;-7.100999951E-1
1.792693750E0;-2.695600033E0;-5.245399952E0;3.749799967E0
1.812546875E0;2.400499821E0;-5.313999653E0;3.012399912E0
1.832400000E0;5.027499676E0;4.530999959E-1;3.748699903E0
1.852253125E0;2.883599997E0;6.353899956E0;-1.251199961E0
1.872103125E0;1.183699965E0;2.293299913E0;1.471399903E0
1.891956250E0;-2.686699867E0;-2.658599854E0;1.152699947E0
1.911809375E0;-6.274299622E0;-4.283499718E0;2.169499874E0
1.931662500E0;-7.361299992E0;-2.529299974E0;1.998999953E0
1.951521875E0;-4.539599895E0;7.800000161E-2;-1.791099906E0
1.971368750E0;3.212699890E0;1.257499933E0;-7.313399792E0
1.991221875E0;6.220699787E0;-6.831699848E0;-1.938099980E0
2.011073438E0;5.094599724E0;-1.213109970E1;6.673099995E0
2.030926563E0;3.653699875E0;-4.257400036E0;5.950999737E0
2.050779688E0;-6.345999837E-1;8.784999847E-1;7.371500015E0
2.070632813E0;1.677299976E0;2.537999868E0;-1.551000029E-1
2.090482813E0;4.535799980E0;2.834999859E-1;-1.852619934E1
2.110335938E0;4.037899971E0;-1.861699939E0;-5.684099674E0
2.130189063E0;7.893999815E-1;-1.077299953E0;-1.487800002E0
2.150042188E0;-8.970999718E-1;7.204999924E-1;1.507200003E0
2.169893750E0;2.188499928E0;4.725199699E0;9.858599663E0
2.189746875E0;5.816899776E0;3.251999915E-1;8.652299881E0
2.209600000E0;2.095399857E0;-1.341499925E0;2.120399952E0
2.229451563E0;-2.609999895E0;-2.115000010E0;-3.188199997E0
2.249304688E0;-3.006799936E0;-1.704999924E0;-4.322599888E0
2.269157813E0;-1.267799973E0;-9.409999847E-2;-6.064300060E0
2.289009375E0;-4.499000013E-1;1.085699916E0;-1.706399918E0
2.308862500E0;-1.818999946E-1;2.502000034E-1;-7.134000063E-1
2.328715625E0;2.390399933E0;-4.499999881E-1;-1.089399934E0
2.348567188E0;4.288499832E0;1.728399992E0;3.844999969E-1
2.368420313E0;2.028399944E0;1.149399996E0;2.006999969E0
2.388273438E0;5.625000000E-1;1.023699999E0;1.447299957E0
2.408125000E0;1.118000001E-1;1.109799981E0;2.410699844E0
2.427978125E0;1.687299967E0;1.431100011E0;3.263999820E-1
2.447831250E0;2.443599939E0;1.384299994E0;-7.296999693E-1
2.467684375E0;2.388799906E0;1.362399936E0;-1.547500014E0
2.487535938E0;7.511000037E-1;6.232999563E-1;2.035999894E-1
2.507389063E0;-8.812999725E-1;-2.047299862E0;-5.511999726E-1
2.527242188E0;2.802999914E-1;-3.643699884E0;-2.113999873E-1
2.547093750E0;3.384000063E-1;-2.879599810E0;-9.519999474E-2
2.566946875E0;-3.001999855E-1;1.205899954E0;-2.760499954E0
2.586800000E0;-8.819999546E-2;1.396899939E0;-2.226899862E0
2.606651563E0;1.994999945E-1;3.032000065E-1;-1.029600024E0
2.626504688E0;8.927999735E-1;-6.987000108E-1;-1.030699968E0
2.646357813E0;1.006399989E0;2.285999954E-1;-2.536999881E-1
2.666210938E0;-9.083999991E-1;-7.389999926E-2;2.613199949E0
2.686062500E0;-6.109999865E-2;1.947499990E0;2.858700037E0
2.705915625E0;3.137699842E0;1.376699924E0;-2.181799889E0
2.725768750E0;6.092499733E0;3.419499874E0;-7.587499619E0
2.745620313E0;6.759299755E0;1.215299964E0;-2.851300001E0
2.765473438E0;9.661999941E-1;-5.139499664E0;2.988899946E0
2.785325000E0;-1.983899951E0;-2.238899946E0;3.189299822E0
2.805178125E0;-2.466999888E-1;2.618000031E0;7.453999519E-1
2.825031250E0;2.758100033E0;2.112900019E0;-3.076900005E0
2.844884375E0;3.935099840E0;-1.578599930E0;-3.539599895E0
2.864735938E0;4.477200031E0;-3.009899855E0;-2.951099873E0
2.884589063E0;5.285099983E0;-2.113800049E0;-2.125299931E0
2.904443750E0;3.958599806E0;-1.428499937E0;-1.597199917E0
2.924293750E0;2.451599836E0;-3.428599834E0;-3.650999963E-1
2.944146875E0;1.714699984E0;-6.241600037E0;-2.585899830E0
2.963998438E0;4.298500061E0;-1.274099946E0;-7.174999714E0
2.983853125E0;2.839499950E0;-1.540199995E0;-5.607299805E0
3.003704688E0;6.778699875E0;4.127299786E0;-5.682799816E0
3.023556250E0;7.597299576E0;1.562299967E0;-3.391599894E0
3.043410938E0;5.014499664E0;-7.235099792E0;1.482699990E0
3.063262500E0;2.529899836E0;-8.147099495E0;6.113199711E0
3.083115625E0;3.357399940E0;-1.439999975E-2;6.501800060E0
3.102978125E0;4.622399807E0;2.293099880E0;-1.407999992E0
3.122820313E0;2.835099936E0;-1.626299977E0;-5.684599876E0
3.142673438E0;9.057999849E-1;-4.002900124E0;2.690299988E0
3.162525000E0;-1.390100002E0;-5.658400059E0;9.353699684E0
3.182378125E0;1.177600026E0;-4.404299736E0;5.024300098E0
3.202231250E0;1.079699993E0;-4.005799770E0;-1.977699995E0
3.222084375E0;-1.266199946E0;-2.150699854E0;-1.544299960E0
3.241935938E0;-2.604899883E0;1.156299949E0;8.410999775E-1
3.261789063E0;-3.015599966E0;5.043600082E0;1.774299979E0
3.281642188E0;-3.753999949E0;7.467199802E0;1.895699978E0
3.301493750E0;-4.653999805E0;7.835000038E0;3.088899851E0
3.321346875E0;-5.292099953E0;8.410399437E0;2.244899988E0
3.341200000E0;-4.739900112E0;9.440799713E0;-1.651999950E-1
3.361051563E0;-9.716999531E-1;1.063630009E1;-6.123799801E0
3.380904688E0;8.803099632E0;5.839299679E0;-2.045179939E1
3.400757813E0;-2.254600048E0;3.779999912E-2;1.989649963E1
3.420610938E0;-7.523900032E0;2.060600042E0;7.489399910E0
3.440462500E0;-6.482999802E0;1.763999909E-1;6.298999786E-1
3.460315625E0;-9.873399734E0;-8.018099785E0;1.895999908E0
3.480168750E0;-9.255899429E0;-1.188219929E1;6.449199677E0
3.500026563E0;-2.560999870E0;-1.116510010E1;8.120699883E0
3.519873438E0;-1.059199929E0;-1.398209953E1;8.230999947E0
3.539726563E0;1.247699976E0;-1.417779922E1;7.193899632E0
3.559592188E0;6.312699795E0;-1.840959930E1;1.077269936E1
3.579431250E0;1.616989899E1;-1.222429943E1;-2.734849930E1
3.599284375E0;1.437099934E1;-4.050199986E0;-1.809370041E1
3.619135938E0;9.059100151E0;-1.255900025E0;-5.419199944E0
3.638989063E0;5.835999966E0;2.124699831E0;-1.825999916E-1
3.658842188E0;6.805599689E0;6.774399757E0;-7.819999754E-2
3.678695313E0;7.360199928E0;9.642899513E0;-6.247999668E-1
3.698546875E0;8.775099754E0;1.299379921E1;-1.511739922E1
3.718400000E0;7.060199738E0;1.537589931E1;-1.928859901E1
3.738253125E0;2.633399963E0;1.193849945E1;-2.909199953E0
3.758104688E0;2.402799845E0;9.852399826E0;-1.693099976E0
3.777957813E0;5.188699722E0;7.328499794E0;-1.159999967E-1
3.797810938E0;7.263899803E0;5.288000107E-1;2.900699854E0
3.817667188E0;8.022999763E0;-1.393019962E1;3.610299826E0
3.837515625E0;2.343199968E0;-3.290760040E1;4.464799881E0
3.857368750E0;-1.498199940E0;-4.602379990E1;5.828700066E0
3.877220313E0;8.078499794E0;-1.885089874E1;-1.763879967E1
3.897073438E0;7.574800014E0;-6.941499710E0;-4.681699753E0
3.916926563E0;3.123299837E0;-4.669799805E0;4.093800068E0
3.936778125E0;-4.784299850E0;-1.500299931E0;6.343599796E0
3.956632813E0;-8.274299622E0;4.445399761E0;4.640999794E0
3.976484375E0;-1.053020000E1;8.681900024E0;4.545199871E0
3.996337500E0;-1.112510014E1;1.039099979E1;7.680199623E0
4.016189063E0;-1.056839943E1;1.188469982E1;8.519999504E0
4.036042188E0;-9.125100136E0;1.337629986E1;7.255799770E0
4.055895313E0;-8.427999496E0;1.384899998E1;2.953399897E0
4.075746875E0;-6.064599991E0;1.261819935E1;-7.380999923E-1
4.095600000E0;-1.668399930E0;8.078100204E0;-6.554999948E-1
4.115453125E0;1.717700005E0;6.593100071E0;1.957199931E0
4.135306250E0;3.257499933E0;7.202099800E0;1.222599983E0
4.155157813E0;9.685999751E-1;1.302699924E0;-1.239899993E0
4.175009375E0;2.461599827E0;-7.489500046E0;-3.954199791E0
4.194871875E0;-7.437500000E0;-2.164799881E1;-6.911000013E-1
4.214717188E0;-6.907199860E0;-9.978399277E0;6.673999786E0
4.234570313E0;-2.241499901E0;-5.493199825E0;6.058599949E0
4.254420313E0;-6.571999788E-1;-7.686999798E0;5.638400078E0
4.274275000E0;-8.805999756E-1;-1.204869938E1;4.567999840E0
4.294128125E0;9.018999934E-1;-1.503819942E1;7.014699936E0
4.313979688E0;4.627799988E0;-1.694739914E1;6.851199627E0
4.333831250E0;7.148299694E0;-1.447949982E1;4.910999775E0
4.353687500E0;9.977600098E0;-9.327799797E0;-1.441419983E1
4.373537500E0;1.414540005E1;1.540799975E0;-2.984729958E1
4.393390625E0;1.017439938E1;4.840199947E0;2.368999869E-1
4.413243750E0;9.090199471E0;9.907799721E0;-1.796999931E0
4.433095313E0;1.191289997E1;1.527119923E1;-1.564699936E1
4.452948438E0;7.047799587E0;1.378699970E1;-4.212599754E0
4.472801563E0;4.895899773E0;1.348349953E1;-2.505100012E0
4.492653125E0;4.757499695E0;1.258259964E1;-1.344699979E0
4.512506250E0;6.611299992E0;1.125010014E1;-1.289999962E0
4.532357813E0;7.694999695E0;7.628599644E0;-7.679999620E-2
4.552212500E0;8.337900162E0;-8.319000006E-1;2.769799948E0
4.572064063E0;8.819700241E0;-2.372329903E1;-5.411999702E0
4.591917188E0;-3.251699924E0;-6.626509857E1;1.542000026E-1
4.611770313E0;7.560499668E0;-4.378630066E1;-1.180249977E1
4.631621875E0;6.226799965E0;-1.148269939E1;-1.192409992E1
4.651475000E0;3.990799904E0;-8.278999925E-1;-4.642199993E0
4.671328125E0;-5.650399685E0;2.171599865E0;3.810499907E0
4.691179688E0;-8.453899384E0;5.711299896E0;9.336699486E0
4.711040625E0;-9.062999725E0;9.142000198E0;1.504819965E1
4.730885938E0;-9.181799889E0;1.223709965E1;1.537369919E1
4.750737500E0;-9.368899345E0;1.480599976E1;1.459029961E1
4.770590625E0;-1.121199989E1;1.583920002E1;1.041720009E1
4.790442188E0;-1.408119965E1;1.275259972E1;-1.101699948E0
4.810295313E0;-1.220589924E1;1.084459972E1;-3.082700014E0
4.830148438E0;-7.288799763E0;6.967399597E0;-2.780400038E0
4.850006250E0;3.549999893E-1;4.514299870E0;-4.606899738E0
4.869853125E0;-1.669899940E0;4.340199947E0;1.297989941E1
4.889706250E0;-5.056200027E0;2.916899920E0;6.516599655E0
4.909559375E0;-7.712399960E0;-9.840499878E0;2.647599936E0
4.929410938E0;-9.338199615E0;-2.407009888E1;2.849999964E-1
4.949264063E0;-7.582299709E0;-2.438459969E1;-1.771999896E-1
4.969117188E0;-1.898999929E0;-1.365009975E1;4.140500069E0
4.988968750E0;4.753699780E0;-8.731699944E0;7.763199806E0
5.008823438E0;1.162069988E1;-1.190619946E1;1.481369972E1
5.028675000E0;1.668630028E1;-1.549589920E1;-5.903999805E-1
5.048534375E0;2.098880005E1;-1.678489876E1;1.759999990E0
5.068379688E0;1.922539902E1;-7.028800011E0;-3.203139877E1
5.088232813E0;1.405469990E1;3.788100004E0;-2.679019928E1
5.108084375E0;7.259099960E0;5.888899803E0;2.253299952E0
5.127937500E0;5.796499729E0;1.083489990E1;-4.512399673E0
5.147793750E0;6.598700047E0;1.305169964E1;-4.849699974E0
5.167643750E0;4.917699814E0;1.388319969E1;-5.241399765E0
5.187495313E0;3.901399851E0;1.307129955E1;-2.519999981E0
5.207348438E0;4.384799957E0;1.210299969E1;-1.404899955E0
5.227201563E0;6.972599983E0;1.135739994E1;-4.043999910E-1
5.247053125E0;9.659799576E0;7.961799622E0;-3.152000010E-1
5.266906250E0;1.314680004E1;-5.688799858E0;4.468800068E0
5.286759375E0;1.142079926E1;-3.628619766E1;3.629499912E0
5.306612500E0;-2.505199909E0;-6.889929962E1;7.940199852E0
5.326464063E0;-2.800899982E0;-3.247699738E1;-9.387800217E0
5.346317188E0;2.092099905E0;-7.274299622E0;-1.544649982E1
5.366168750E0;-1.242699981E0;-1.957999915E-1;-7.115200043E0
5.386023438E0;-7.917199612E0;4.981999993E-1;3.550099850E0
5.405875000E0;-1.020339966E1;4.302099705E0;1.232949924E1
5.425728125E0;-1.003759956E1;1.022009945E1;1.382109928E1
5.445579688E0;-9.640399933E0;1.413959980E1;1.312099934E1
5.465432813E0;-1.087469959E1;1.527579975E1;9.634300232E0
5.485284375E0;-1.358599949E1;1.591939926E1;7.637499809E0
5.505137500E0;-1.284809971E1;1.473740005E1;6.383000016E-1
5.524990625E0;-9.251199722E0;1.304619980E1;-4.176399708E0
5.544842188E0;-4.163899899E0;6.900799751E0;-9.084699631E0
5.564696875E0;7.787699699E0;4.377000034E-1;-2.953109932E1
5.584548438E0;1.211569977E1;3.655999899E0;3.092309952E1
5.604400000E0;2.742100000E0;4.583199978E0;7.372999668E0
5.624253125E0;-4.698800087E0;2.694000006E-1;6.395499706E0
5.644106250E0;-7.673199654E0;-5.731299877E0;8.327199936E0
5.663959375E0;-1.159980011E1;-1.851749992E1;5.136799812E0
5.683812500E0;-1.189299965E1;-2.132869911E1;4.124000072E0
5.703665625E0;-6.863899708E0;-1.723040009E1;2.962599993E0
5.723517188E0;-2.304399967E0;-1.336149979E1;1.937199950E0
5.743370313E0;4.280099869E0;-1.449059963E1;2.427000046E0
5.763221875E0;1.216829967E1;-1.833580017E1;6.078099728E0
5.783075000E0;1.713430023E1;-1.449179935E1;2.907899857E0
5.802926563E0;1.518909931E1;-7.366999626E0;-1.915200043E1
5.822779688E0;1.390509987E1;2.736099958E0;-3.021899986E1
5.842634375E0;9.115099907E0;7.693199635E0;-4.816999733E-1
5.862484375E0;9.198900223E0;9.716699600E0;-2.980799913E0
5.882337500E0;9.099999428E0;1.152979946E1;-4.265399933E0
5.902190625E0;8.375199318E0;1.380299950E1;-4.395699978E0
5.922043750E0;6.332799911E0;1.505219936E1;-3.110399961E0
5.941895313E0;5.632199764E0;1.413169956E1;-2.974400043E0
5.961757813E0;6.625999928E0;1.322550011E1;-3.003199816E0
5.981607813E0;7.911999702E0;1.208199978E1;-1.722799897E0
6.001453125E0;8.598799706E0;8.961899757E0;-1.316999912E0
6.021306250E0;8.000900269E0;2.329699993E0;2.721499920E0
6.041159375E0;1.130389977E1;-1.489209938E1;2.485999823E0
6.061012500E0;1.413800001E0;-5.770609665E1;7.997999668E0
6.080864063E0;-2.180599928E0;-6.531129456E1;4.352999926E-1
6.100717188E0;8.544099808E0;-2.110109901E1;-2.055220032E1
6.120570313E0;3.195199966E0;-2.569299936E0;-1.873189926E1
6.140421875E0;-2.318300009E0;1.606499910E0;-4.451099873E0
6.160275000E0;-6.244799614E0;4.329899788E0;5.213099957E0
6.180128125E0;-7.305999756E0;7.991799831E0;1.151169968E1
6.199979688E0;-7.141799927E0;1.269619942E1;1.114050007E1
6.219832813E0;-6.926799774E0;1.485879993E1;8.461199760E0
6.239685938E0;-7.323999882E0;1.562019920E1;9.388299942E0
6.259537500E0;-8.555999756E0;1.525099945E1;8.884099960E0
6.279390625E0;-9.832799911E0;1.324370003E1;1.140599966E0
6.299243750E0;-8.391499519E0;1.183720016E1;-4.739500046E0
6.319095313E0;-2.552999973E0;5.375599861E0;-1.776020050E1
6.338957813E0;1.246949959E1;3.082000017E-1;3.012929916E1
6.358801563E0;3.829999864E-1;-2.356400013E0;2.069639969E1
6.378654688E0;-1.042119980E1;-2.206199884E0;6.061500072E0
6.398506250E0;-1.238119984E1;-9.639999866E-1;5.781300068E0
6.418359375E0;-1.189599991E1;-6.735499859E0;1.016790009E1
6.438212500E0;-9.097799301E0;-2.301689911E1;6.327300072E0
6.458064063E0;-7.858399868E0;-3.253239822E1;7.031199932E0
6.477917188E0;-1.662999988E0;-2.569999886E1;5.684499741E0
6.497770313E0;3.903999805E0;-1.908250046E1;1.135800004E0
6.517621875E0;5.721399784E0;-2.037159920E1;1.267719936E1
6.537475000E0;2.694969940E1;-1.664899945E0;-5.342009735E1
6.557328125E0;1.551859951E1;1.292199969E0;-8.397199631E0
6.577181250E0;1.022649956E1;5.504099846E0;-3.666199923E0
6.597034375E0;5.902400017E0;1.062669945E1;1.981899977E0
6.616885938E0;3.152899981E0;1.577659988E1;5.088799953E0
6.636737500E0;6.494299889E0;1.583279991E1;-4.127699852E0
6.656590625E0;1.039779949E1;1.548139954E1;-2.396759987E1
6.676443750E0;1.016599941E1;1.330259991E1;-9.133799553E0
6.696296875E0;1.198670006E1;1.046299934E1;-1.066189957E1
6.716148438E0;8.953299522E0;8.469699860E0;-3.094799995E0
6.736001563E0;5.913199902E0;6.313600063E0;-2.727599859E0
6.755853125E0;1.379869938E1;-6.398999691E-1;-1.971599936E0
6.775706250E0;2.459359932E1;-2.906799889E1;1.473359966E1
6.795560938E0;8.609799385E0;-6.779519653E1;-1.775200009E0
6.815412500E0;-6.127899647E0;-5.701639938E1;-1.205799937E0
6.835264063E0;-4.561399937E0;-1.976099968E1;-2.133899879E1
6.855120313E0;-7.095900059E0;-5.476899624E0;-1.080529976E1
6.874970313E0;-7.855199814E0;-1.466999948E-1;-2.675499916E0
6.894821875E0;-7.818499565E0;4.223599911E0;5.921799660E0
6.914675000E0;-9.385000229E0;8.431300163E0;1.160799980E1
6.934528125E0;-9.501399994E0;1.097970009E1;1.282319927E1
6.954379688E0;-9.770500183E0;1.251909924E1;1.181499958E1
6.974234375E0;-7.918799877E0;1.492369938E1;8.593299866E0
6.994085938E0;-8.565999985E0;1.565709972E1;-1.467599988E0
7.013937500E0;-6.260799885E0;1.513679981E1;-6.983699799E0
7.033790625E0;1.605499983E0;1.246409988E1;-1.058189964E1
7.053643750E0;9.462299347E0;6.327300072E0;-1.565639973E1
7.073496875E0;8.524799347E0;1.975899935E0;8.940599442E0
7.093348438E0;6.442499638E0;3.616899967E0;9.980199814E0
7.113201563E0;1.570999920E-1;1.655599952E0;2.279599905E0
7.133054688E0;-2.460299969E0;-1.601070023E1;2.791199923E0
7.152906250E0;-1.369329929E1;-2.058860016E1;-1.937399983E0
7.172759375E0;-1.440849972E1;-6.526199818E0;-3.918099880E0
7.192612500E0;-1.158309937E1;-7.708699703E0;1.051399946E0
7.212465625E0;-7.381099701E0;-1.231899929E1;8.609700203E0
7.232317188E0;-3.743399858E0;-1.583539963E1;8.057499886E0
7.252170313E0;1.636699915E0;-1.989399910E1;5.466000080E0
7.272023438E0;7.189799786E0;-2.310949898E1;1.514989948E1
7.291875000E0;1.239929962E1;-1.963799858E1;-3.046999931E0
7.311728125E0;1.493869972E1;-4.728899956E0;-4.641460037E1
7.331581250E0;1.402289963E1;2.535199881E0;-2.228030014E1
7.351432813E0;1.179679966E1;5.547899723E0;-2.667699814E0
7.371285938E0;1.294649982E1;7.660699844E0;1.295699954E0
7.391139063E0;1.222270012E1;1.161689949E1;-2.610999942E-1
7.410990625E0;7.520199776E0;1.393389988E1;-2.976000011E-1
7.430843750E0;6.748999596E0;1.354479980E1;-3.836299896E0
7.450696875E0;6.626899719E0;1.205799961E1;-4.191299915E0
7.470550000E0;7.624599934E0;1.186880016E1;-4.018399715E0
7.490401563E0;8.862199783E0;1.194110012E1;-2.936499834E0
7.510254688E0;9.441599846E0;1.144069958E1;-1.239599943E0
7.530107813E0;8.291399956E0;8.552399635E0;-3.718000054E-1
7.549960938E0;1.156969929E1;4.710499763E0;2.920500040E0
7.569814063E0;1.721789932E1;-2.392440033E1;-1.779099941E0
7.589665625E0;7.766599655E0;-5.587919998E1;-8.107099533E0
7.609517188E0;-1.522789955E1;-6.899929810E1;2.960799932E0
7.629370313E0;-5.670899868E0;-2.515259933E1;-5.600800037E0
7.649223438E0;-3.169399977E0;-2.763299942E0;-9.895599365E0
7.669076563E0;-9.348999858E-1;5.518799782E0;-3.524099827E0
7.688928125E0;-3.163399935E0;8.088500023E0;2.123299837E0
7.708781250E0;-6.512699604E0;9.808400154E0;7.820399761E0
7.728634375E0;-6.757299900E0;1.265899944E1;7.949499607E0
7.748485938E0;-5.658999920E0;1.481299973E1;7.669199944E0
7.768339063E0;-4.592299938E0;1.501690006E1;8.784099579E0
7.788192188E0;-5.074800014E0;1.496389961E1;9.440799713E0
7.808045313E0;-5.949699879E0;1.390419960E1;6.411999702E0
7.827903125E0;-4.120399952E0;1.316889954E1;-6.277999878E0
7.847750000E0;5.381999612E-1;3.058399916E0;-3.207830048E1
7.867603125E0;5.061899662E0;3.748699903E0;6.989199638E0
7.887454688E0;3.249999881E-1;5.114399910E0;1.859809875E1
7.907307813E0;-5.166999817E0;4.488999844E-1;1.244869995E1
7.927160938E0;-7.325699806E0;-6.224400043E0;1.257389927E1
7.947014063E0;-8.218500137E0;-2.043770027E1;9.474999428E0
7.966865625E0;-8.500899315E0;-2.830389977E1;9.436200142E0
7.986718750E0;-3.011099815E0;-2.619669914E1;6.143499851E0
8.006570313E0;1.315199971E0;-2.341979980E1;4.995699883E0
8.026423438E0;6.393199921E0;-1.917869949E1;5.256099701E0
8.046276563E0;1.254839993E1;-1.379799938E1;-2.125969887E1
8.066128125E0;1.153259945E1;-5.906199932E0;-3.062879944E1
8.085981250E0;1.080060005E1;6.128000021E-1;-7.720899582E0
8.105834375E0;9.329099655E0;6.881199837E0;-2.208699942E0
8.125687500E0;9.582699776E0;9.449699402E0;-4.060400009E0
8.145540625E0;7.833899975E0;1.167420006E1;-3.026899815E0
8.165390625E0;4.560699940E0;1.444289970E1;-7.512999773E-1
8.185245313E0;7.475499630E0;1.443820000E1;-3.381399870E0
8.205098438E0;1.028279972E1;1.370679951E1;-1.822299957E0
8.224950000E0;1.357520008E1;1.356269932E1;-6.360999942E-1
8.244803125E0;1.608619881E1;1.396319962E1;-1.524599910E0
8.264654688E0;1.427239990E1;1.097620010E1;-3.975099802E0
8.284509375E0;1.298709965E1;6.414499760E0;-2.349900007E0
8.304360938E0;1.751809883E1;-5.522899628E0;4.739999771E0
8.324214063E0;2.112469864E1;-3.627849960E1;1.124999970E-1
8.344065625E0;-3.503599882E0;-6.915950012E1;-8.512700081E0
8.363918750E0;-1.283609962E1;-5.593639755E1;-2.227399826E0
8.383770313E0;-3.628999949E0;-1.347410011E1;-1.683740044E1
8.403625000E0;-6.238999844E0;-2.880100012E0;-8.276499748E0
8.423476563E0;-6.123499870E0;-2.428999990E-1;5.490999818E-1
8.443328125E0;-8.061699867E0;4.801799774E0;8.284299850E0
8.463181250E0;-8.398499489E0;1.033589935E1;1.019099998E1
8.483034375E0;-7.012699604E0;1.376699924E1;1.405219936E1
8.502885938E0;-5.807199955E0;1.677869987E1;1.656040001E1
8.522739063E0;-5.829799652E0;1.977359962E1;1.195109940E1
8.542592188E0;-6.811899662E0;1.596129990E1;4.444999695E0
8.562445313E0;-4.378600121E0;1.497329998E1;-1.532380009E1
8.582298438E0;3.770000041E-1;7.108799934E0;-1.069509983E1
8.602150000E0;4.834399700E0;1.610599995E0;-6.306799889E0
8.622003125E0;7.473199844E0;5.289400101E0;1.985770035E1
8.641856250E0;-1.583599925E0;6.205499649E0;1.078409958E1
8.661707813E0;-5.130199909E0;4.357299805E0;1.014060020E1
8.681560938E0;-9.394700050E0;9.451999664E-1;1.088779926E1
8.701414063E0;-1.305089951E1;-8.788599968E0;1.577579975E1
8.721265625E0;-1.143769932E1;-1.832099915E1;8.968400002E0
8.741118750E0;-8.494599342E0;-2.924109840E1;3.481400013E0
8.760971875E0;-4.060999870E0;-3.243370056E1;2.795899868E0
8.780823438E0;4.385099888E0;-2.742449951E1;4.651700020E0
8.800676563E0;1.089079952E1;-2.210099983E1;1.561669922E1
8.820529688E0;2.189830017E1;-1.499599934E1;-9.107699394E0
8.840381250E0;2.114839935E1;-3.758599997E0;-5.193589783E1
8.860234375E0;1.220389938E1;1.693699956E0;-1.401789951E1
8.880087500E0;9.946700096E0;7.121099949E0;-1.362399936E0
8.899939063E0;1.048489952E1;9.821299553E0;1.147999987E-1
8.919792188E0;8.666299820E0;1.267840004E1;-9.649999738E-1
8.939645313E0;7.267199993E0;1.689690018E1;3.952099800E0
8.959498438E0;1.054229927E1;1.725709915E1;-3.469299793E0
8.979350000E0;1.177579975E1;1.464909935E1;-5.537799835E0
8.999201563E0;1.358309937E1;1.257049942E1;-5.356999874E0
9.019054688E0;1.262129974E1;9.411399841E0;-5.034899712E0
9.038907813E0;1.362069988E1;9.095000029E-1;-2.542899847E0
9.058760938E0;1.748959923E1;-2.403359985E1;-3.674099922E0
9.078614063E0;-4.713999927E-1;-6.616970062E1;-5.923099995E0
9.098465625E0;-2.042049980E1;-6.900090027E1;1.150449944E1
9.118318750E0;-1.755100012E0;-1.792420006E1;-9.659699440E0
9.138171875E0;-1.157899976E0;1.312199950E0;-1.250889969E1
9.158025000E0;2.979999967E-2;7.484699726E0;-4.963699818E0
9.177876563E0;-2.956300020E0;8.952400208E0;7.826900005E0
9.197729688E0;-5.531099796E0;1.118499947E1;1.753839874E1
9.217581250E0;-5.799499989E0;1.433129978E1;2.045089912E1
9.237434375E0;-5.551099777E0;1.807900047E1;2.448369980E1
9.257285938E0;-7.676799774E0;2.126269913E1;1.311240005E1
9.277140625E0;-9.861499786E0;1.628859901E1;6.899899960E0
9.296993750E0;-1.087570000E1;1.213840008E1;-1.448289967E1
9.316845313E0;-4.114999771E0;3.528299809E0;-2.397599983E1
9.336698438E0;-3.447599888E0;-7.705799580E0;-2.404559898E1
9.356550000E0;6.301599979E0;7.593699932E0;4.217899704E1
9.376403125E0;-1.000599980E0;6.719999790E0;1.554589939E1
9.396256250E0;-7.154799938E0;-1.045300007E0;1.202670002E1
9.416107813E0;-1.052899933E1;-1.017829990E1;1.725359917E1
9.435960938E0;-9.998499870E0;-1.472459984E1;1.552539921E1
9.455812500E0;-7.209099770E0;-2.013640022E1;1.150939941E1
9.475665625E0;-2.403199911E0;-2.763969994E1;3.784799814E0
9.495520313E0;3.005399942E0;-3.188869858E1;7.481999993E-1
9.515371875E0;9.403399467E0;-3.009719849E1;2.239439964E1
9.535234375E0;2.710519981E1;-1.722159958E1;-1.318820000E1
9.555078125E0;2.095209885E1;-4.766299725E0;-3.176039886E1
9.574929688E0;1.557909966E1;3.144500017E0;-1.469159985E1
9.594781250E0;1.377449989E1;1.024049950E1;1.208199978E0
9.614634375E0;1.405699921E1;1.361949921E1;8.312000036E-1
9.634487500E0;1.018919945E1;1.403949928E1;-6.157999635E-1
9.654346875E0;7.291899681E0;1.458679962E1;-2.624599934E0
9.674192188E0;9.154500008E0;1.467819977E1;-5.224999905E0
9.694045313E0;1.137779999E1;1.458049965E1;-3.539799929E0
9.713898438E0;1.348729992E1;1.309689999E1;-2.707099915E0
9.733751563E0;1.376259995E1;1.058699989E1;-2.687700033E0
9.753603125E0;1.268379974E1;5.319200039E0;-1.967700005E0
9.773456250E0;1.893659973E1;-9.208199501E0;2.056799889E0
9.793309375E0;2.123900032E1;-3.509169769E1;-1.104300022E0
9.813160938E0;-7.019399643E0;-6.888939667E1;1.593299985E0
9.833014063E0;-1.289149952E1;-5.627729797E1;2.767199993E0
9.852865625E0;-7.378699780E0;-1.156489944E1;-1.028749943E1
9.872718750E0;-1.026099920E0;5.328000069E0;-1.611089897E1
9.892571875E0;-6.090999842E-1;8.616700172E0;-3.710299969E0
9.912425000E0;-5.981800079E0;9.017099380E0;7.398599625E0
9.932276563E0;-8.481800079E0;1.060219955E1;1.208269978E1
9.952129688E0;-7.297299862E0;1.301159954E1;1.462039948E1
9.971982813E0;-6.612099648E0;1.548880005E1;1.724939919E1
9.991834375E0;-7.745499611E0;1.800319862E1;1.031569958E1
1.001168750E1;-1.113709927E1;1.667199898E1;6.678000093E-1
1.003154062E1;-9.582399368E0;1.421159935E1;-7.534299850E0
1.005139219E1;-3.784499884E0;5.119299889E0;-8.632200241E0
1.007124531E1;3.301899910E0;-2.041499853E0;-2.469969940E1
1.009109844E1;7.771899700E0;7.985199928E0;3.259919739E1
1.011095156E1;-5.848700047E0;7.242799759E0;1.494399929E1
1.013080312E1;-7.272699833E0;8.215999603E-1;1.133279991E1
1.015065625E1;-1.301659966E1;-2.004829979E1;2.198029900E1
1.017050938E1;-1.472189999E1;-3.617020035E1;3.208400011E0
1.019036094E1;-8.375100136E0;-2.301459885E1;9.984999895E-1
1.021021406E1;-1.669299960E0;-2.302639961E1;7.331399918E0
1.023006719E1;6.749199867E0;-2.062139893E1;7.326399803E0
1.024991875E1;1.111839962E1;-1.604629898E1;-7.239399910E0
1.026977188E1;1.483850002E1;-4.674999714E0;-1.416359997E1
1.028962500E1;1.032999992E1;1.439399958E0;-1.044379997E1
1.030947656E1;6.806200027E0;4.135699749E0;-6.441699982E0
1.032932969E1;9.677999496E0;7.759599686E0;-1.025139999E1
1.034918281E1;1.198869991E1;8.992899895E0;-3.980799913E0
1.036903438E1;9.406199455E0;1.302869987E1;-3.291999817E0
1.038888750E1;7.822299957E0;1.348180008E1;-3.678900003E0
1.040873906E1;7.307699680E0;1.306320000E1;-2.526099920E0
1.042859219E1;8.128199577E0;1.363319969E1;-1.806299925E0
1.044844531E1;9.740099907E0;1.339559937E1;-5.525999665E-1
1.046829844E1;1.391769981E1;1.288779926E1;-1.129699945E0
1.048815000E1;1.391629982E1;8.701499939E0;-1.598099947E0
1.050800312E1;1.599309921E1;1.490700006E0;4.764999747E-1
1.052785625E1;2.155949974E1;-2.170889854E1;-1.502299905E0
1.054770938E1;9.662099838E0;-5.417219925E1;-1.302729988E1
1.056756094E1;-2.094709969E1;-6.933930206E1;-1.093799949E0
1.058741406E1;-1.088949966E1;-2.750089836E1;-4.320999980E-1
1.060726562E1;-3.070799828E0;-1.626899958E0;-9.123399734E0
1.062712656E1;-1.455399990E0;5.667699814E0;-5.506899834E0
1.064697188E1;-4.513799667E0;6.633399963E0;3.546199799E0
1.066682500E1;-6.994499683E0;9.068900108E0;7.349400043E0
1.068667812E1;-6.290599823E0;1.219519997E1;8.784500122E0
1.070652969E1;-4.306099892E0;1.429169941E1;8.948999405E0
1.072638281E1;-3.842000008E0;1.489059925E1;9.884999275E0
1.074623594E1;-4.410200119E0;1.641199875E1;1.427069950E1
1.076608750E1;-3.989099979E0;1.564039993E1;1.116779995E1
1.078594062E1;-1.723699927E0;1.442389965E1;-1.211199999E0
1.080579219E1;-7.366999984E-1;3.635399818E0;-3.665969849E1
1.082564688E1;4.806799889E0;-2.883999944E-1;-1.640239906E1
1.084549844E1;5.938699722E0;5.105000019E0;2.897259903E1
1.086535156E1;-1.825299978E0;-6.146999598E-1;1.545510006E1
1.088520312E1;-9.648099899E0;-7.576099873E0;1.490599918E1
1.090505625E1;-1.222469997E1;-1.331190014E1;1.257929993E1
1.092490938E1;-1.403129959E1;-2.178119850E1;6.038699627E0
1.094477031E1;-6.810899734E0;-2.749839973E1;5.378799915E0
1.096461562E1;-7.140000165E-2;-2.530069923E1;6.456599712E0
1.098446719E1;5.448999882E0;-2.515129852E1;1.221729946E1
1.100431875E1;1.692119980E1;-2.122389984E1;-5.915199757E0
1.102417188E1;2.047089958E1;-6.320199966E0;-2.084759903E1
1.104402500E1;9.231999397E0;-3.125000000E-1;-2.689099884E1
1.106387812E1;3.638299942E0;3.253199816E0;-8.451000214E0
1.108372969E1;9.888799667E0;8.121899605E0;-4.717099667E0
1.110358281E1;9.861999512E0;8.978199959E0;-1.073099971E0
1.112343594E1;6.395400047E0;1.269099998E1;-2.225800037E0
1.114328750E1;7.071199894E0;1.412789917E1;-2.058699846E0
1.116314062E1;8.900699615E0;1.481759930E1;-2.997999787E-1
1.118299375E1;1.114179993E1;1.444679928E1;1.194700003E0
1.120284531E1;1.475369930E1;1.385719967E1;2.542999983E-1
1.122269844E1;1.566439915E1;1.250879955E1;-2.360100031E0
1.124255156E1;1.178639984E1;8.419400215E0;-3.242100000E0
1.126240469E1;1.271149921E1;3.799799919E0;-2.054199934E0
1.128225625E1;1.472419930E1;-1.610490036E1;1.299000025E0
1.130211562E1;7.233299732E0;-5.081119919E1;-5.662499905E0
1.132196250E1;-2.034140015E1;-6.928489685E1;-3.462699890E0
1.134181406E1;-9.585100174E0;-2.956129837E1;-2.183099985E0
1.136166719E1;-1.625699997E0;-3.418699980E0;-6.621899605E0
1.138152031E1;1.361999959E-1;3.198099852E0;-5.416599751E0
1.140137188E1;-1.900599957E0;6.170000076E0;2.569499969E0
1.142122500E1;-5.450599670E0;8.353799820E0;7.871899605E0
1.144107812E1;-6.890799999E0;1.038619995E1;9.024700165E0
1.146093125E1;-5.224199772E0;1.363579941E1;1.018349934E1
1.148078281E1;-3.157199860E0;1.603120041E1;1.045919991E1
1.150063594E1;-3.592799902E0;1.602879906E1;8.801300049E0
1.152048906E1;-4.327699661E0;1.506089973E1;3.938499928E0
1.154034062E1;-2.970000029E0;1.321539974E1;-6.764899731E0
1.156019375E1;1.357999921E0;2.781299829E0;-2.171869850E1
1.158004531E1;7.596799850E0;3.067600012E0;9.831099510E0
1.159989844E1;3.851799965E0;2.051499844E0;1.413319969E1
1.161975156E1;-6.771800041E0;-3.940899849E0;1.492459965E1
1.163960469E1;-1.184219933E1;-7.220899582E0;1.143739986E1
1.165945625E1;-1.702939987E1;-1.267459965E1;8.520500183E0
1.167930938E1;-1.076849937E1;-2.479920006E1;7.594899654E0
1.169916094E1;-5.664199829E0;-2.993109894E1;7.352399826E0
1.171901406E1;3.865000010E-1;-2.585339928E1;6.266999722E0
1.173886875E1;5.839399815E0;-2.607740021E1;1.507099915E1
1.175872031E1;1.750359917E1;-1.858709908E1;-1.427219963E1
1.177857344E1;1.803820038E1;-3.786299944E0;-4.495639801E1
1.179842500E1;8.767499924E0;1.499300003E0;-1.660899925E1
1.181827812E1;1.063099957E1;7.031599998E0;2.658999860E-1
1.183812969E1;1.003919983E1;9.049799919E0;8.626999855E-1
1.185798281E1;5.823699951E0;1.372389984E1;5.169999972E-2
1.187783594E1;6.677599907E0;1.542289925E1;3.269999921E-1
1.189768906E1;9.135799408E0;1.639920044E1;1.081399918E0
1.191754219E1;1.070829964E1;1.502259922E1;-9.559999704E-1
1.193739531E1;1.221319962E1;1.322029972E1;-2.876499891E0
1.195724688E1;1.455989933E1;1.190789986E1;-4.201600075E0
1.197710000E1;1.388709927E1;9.002200127E0;-2.779199839E0
1.199695156E1;1.214449978E1;4.711299896E0;-1.768000007E0
1.201680469E1;1.608689880E1;-6.990900040E0;5.299999937E-2
1.203665781E1;1.478539944E1;-3.750009918E1;3.556099892E0
1.205650938E1;-1.562749958E1;-6.905039978E1;-4.537099838E0
1.207636250E1;-1.174819946E1;-4.451399994E1;-4.559799671E0
1.209621406E1;-4.472300053E0;-7.018199921E0;-1.113529968E1
1.211606719E1;-2.350899935E0;3.735399961E0;-6.023699760E0
1.213592031E1;-3.372799873E0;6.479699612E0;-1.051900029E0
1.215577188E1;-6.440299988E0;7.769699574E0;7.707599640E0
1.217562656E1;-8.158900261E0;9.159599304E0;9.667799950E0
1.219547813E1;-6.222499847E0;1.211310005E1;1.090689945E1
1.221533125E1;-4.422899723E0;1.441239929E1;1.306820011E1
1.223518281E1;-4.935899734E0;1.686759949E1;1.124129963E1
1.225503594E1;-5.382400036E0;1.523159981E1;7.031199932E0
1.227488906E1;-2.318399906E0;1.476389980E1;-7.110699654E0
1.229474063E1;2.544199944E0;2.514199972E0;-3.568790054E1
1.231459375E1;5.167399883E0;-1.601999998E-1;-3.262499809E0
1.233444688E1;5.272699833E0;5.702099800E0;1.649259949E1
1.235430000E1;-1.685699940E0;3.751099825E0;7.359699726E0
1.237415156E1;-9.258199692E0;-4.092999935E0;1.405559921E1
1.239400469E1;-1.270729923E1;-1.968359947E1;1.348899937E1
1.241385781E1;-1.524860001E1;-2.338959885E1;8.802100182E0
1.243370938E1;-9.958999634E0;-2.134840012E1;5.119599819E0
1.245356250E1;-4.966799736E0;-1.900449944E1;2.700799942E0
1.247341563E1;1.473500013E0;-1.991609955E1;6.167999744E0
1.249326719E1;1.296679974E1;-2.121369934E1;-2.783099890E0
1.251312031E1;1.779109955E1;-1.051509953E1;-1.617160034E1
1.253297344E1;1.341809940E1;-3.308699846E0;-1.899239922E1
1.255282500E1;9.286799431E0;1.825399995E0;-1.323269939E1
1.257267813E1;1.020259953E1;8.343400002E0;-6.821199894E0
1.259253125E1;9.789400101E0;9.570199966E0;-2.254499912E0
1.261238438E1;7.012099743E0;1.298759937E1;2.316999882E-1
1.263223594E1;5.838399887E0;1.425149918E1;-2.467299938E0
1.265208906E1;7.344699860E0;1.450399971E1;-2.451999903E0
1.267194219E1;1.020100021E1;1.438729954E1;-1.281799912E0
1.269179375E1;1.395769978E1;1.410879993E1;-7.127000093E-1
1.271164688E1;1.746089935E1;1.281759930E1;-1.975499988E0
1.273150000E1;1.242609978E1;8.323900223E0;-3.076799870E0
1.275135156E1;1.225979996E1;3.694899797E0;-3.162499905E0
1.277120469E1;1.935299873E1;-1.592770004E1;1.940999925E-1
1.279105781E1;9.848199844E0;-6.640290070E1;5.288999677E-1
1.281091094E1;-2.278669930E1;-6.940019989E1;1.177099943E0
1.283076250E1;-1.029290009E1;-2.075849915E1;-1.352869987E1
1.285061563E1;-6.013199806E0;8.332999945E-1;-1.271339989E1
1.287046875E1;-4.950999737E0;5.068999767E0;-8.007900238E0
1.289032812E1;-6.212699890E0;5.555099964E0;2.491699934E0
1.291017344E1;-6.561500072E0;8.469200134E0;9.270099640E0
1.293002656E1;-4.711400032E0;1.156559944E1;1.082199955E1
1.294987969E1;-3.098099947E0;1.373069954E1;1.156260014E1
1.296973125E1;-2.033200026E0;1.539890003E1;1.121379948E1
1.298958438E1;-2.936899900E0;1.653929901E1;9.253399849E0
1.300943594E1;-1.331099987E0;1.578829956E1;3.341999948E-1
1.302928906E1;8.759999871E-1;9.323499680E0;-1.201959991E1
1.304914219E1;6.251899719E0;4.473499775E0;-9.507399559E0
1.306899375E1;8.953000069E0;5.105400085E0;1.324389935E1
1.308884688E1;2.662600040E0;6.611499786E0;5.550699711E0
1.310870000E1;-2.623800039E0;6.056999683E0;8.150300026E0
1.312855156E1;-4.451900005E0;2.548300028E0;1.441440010E1
1.314840469E1;-1.108839989E1;-1.437859917E1;1.010389996E1
1.316825781E1;-1.554539967E1;-2.819709969E1;1.236099958E0
1.318810938E1;-1.196000004E1;-2.813220024E1;1.201799989E0
1.320796406E1;-5.821300030E0;-2.111429977E1;8.525300026E0
1.322781563E1;-6.753999591E-1;-1.575059986E1;6.952199936E0
1.324766875E1;5.586400032E0;-1.830900002E1;1.739739990E1
1.326752188E1;1.868989944E1;-1.574729919E1;-1.365669918E1
1.328737344E1;1.929549980E1;-4.838799953E0;-2.687549973E1
1.330723125E1;1.286819935E1;-9.196999669E-1;-1.962870026E1
1.332707813E1;7.549699783E0;4.574399948E0;-3.493599892E0
1.334693125E1;8.034600258E0;1.004099941E1;-2.019899845E0
1.336678438E1;8.208499908E0;1.263819981E1;-1.061299920E0
1.338663750E1;7.868700027E0;1.466309929E1;-2.597599983E0
1.340648906E1;8.696399689E0;1.476599979E1;-2.843799829E0
1.342634219E1;1.188989925E1;1.517449951E1;-2.107899904E0
1.344619375E1;1.686859894E1;1.493750000E1;-3.406699896E0
1.346604688E1;1.570099926E1;1.210050011E1;-3.753599882E0
1.348590000E1;1.279199982E1;6.552499771E0;-2.496399879E0
1.350575156E1;1.269889927E1;-4.659499645E0;8.359000087E-1
1.352560469E1;1.486809921E1;-3.139079857E1;-1.146399975E0
1.354545781E1;-1.208699989E1;-6.859899902E1;-5.796599865E0
1.356531094E1;-1.249239922E1;-5.592630005E1;9.489999712E-2
1.358516250E1;-2.840899944E0;-1.304619980E1;-8.041099548E0
1.360502500E1;-1.189899921E0;2.278899908E0;-7.544999599E0
1.362487031E1;-6.021999717E-1;7.392999649E0;-1.859599948E0
1.364472031E1;-4.416399956E0;9.606299400E0;6.202799797E0
1.366457344E1;-5.835700035E0;1.144189930E1;9.917699814E0
1.368442656E1;-5.336299896E0;1.267799950E1;1.293269920E1
1.370427812E1;-5.153399944E0;1.368579960E1;1.695120049E1
1.372413125E1;-3.325199842E0;1.881569862E1;1.098789978E1
1.374398438E1;-5.878599644E0;1.566049957E1;4.644099712E0
1.376383750E1;-4.033100128E0;1.481110001E1;-9.462299347E0
1.378368906E1;1.257499933E0;5.687099934E0;-2.875169945E1
1.380354219E1;3.595799923E0;-1.570299983E0;-7.362799644E0
1.382339531E1;8.001399994E0;5.495500088E0;2.907909966E1
1.384324688E1;1.930999905E-1;4.533999920E0;1.229019928E1
1.386310000E1;-5.568199635E0;2.008800030E0;1.116219997E1
1.388295312E1;-1.204039955E1;-4.822299957E0;1.228629971E1
1.390280469E1;-1.345949936E1;-1.186679935E1;1.272149944E1
1.392265781E1;-1.123460007E1;-2.249069977E1;7.229499817E0
1.394251094E1;-4.984899998E0;-3.016899872E1;1.314800024E0
1.396236406E1;1.356299996E0;-3.103429985E1;1.567899942E0
1.398221562E1;8.882699966E0;-2.584729958E1;1.157809925E1
1.400206875E1;1.888619995E1;-1.821069908E1;-2.642699957E0
1.402192188E1;1.703529930E1;-6.150099754E0;-3.297470093E1
1.404177500E1;1.271920013E1;1.688300014E0;-2.825879860E1
1.406162656E1;9.456600189E0;7.341399670E0;-2.889600039E0
1.408147969E1;1.005439949E1;9.356100082E0;1.058300018E0
1.410133281E1;8.772799492E0;1.258769989E1;1.111299992E0
1.412118438E1;6.138499737E0;1.568039989E1;1.602800012E0
1.414103750E1;7.322099686E0;1.521000004E1;-4.361299992E0
1.416088906E1;9.601099968E0;1.531649971E1;-3.092000008E0
1.418074219E1;1.270799923E1;1.439389992E1;-8.886999488E-1
1.420059531E1;1.632799911E1;1.291979980E1;-3.866999865E0
1.422044844E1;1.516650009E1;8.760999680E0;-3.184499979E0
1.424030000E1;1.408859921E1;3.726300001E0;-1.663199902E0
1.426015312E1;1.732369995E1;-1.251789951E1;-3.343999982E-1
1.428000625E1;1.593729973E1;-4.068759918E1;-6.970999718E0
1.429985781E1;-1.210389996E1;-6.901359558E1;-1.329589939E1
1.431971094E1;-1.739449883E1;-4.984510040E1;5.095999837E-1
1.433956875E1;-8.008199692E0;-1.052519989E1;-5.752899647E0
1.435941562E1;-4.153999805E0;2.432399988E0;-2.435799837E0
1.437926875E1;-2.603499889E0;6.861199856E0;1.855999947E0
1.439912031E1;-4.127599716E0;9.483499527E0;9.303599358E0
1.441897344E1;-6.844299793E0;1.047869968E1;1.156359959E1
1.443882656E1;-5.767099857E0;1.272340012E1;1.296959972E1
1.445867969E1;-5.197700024E0;1.441599941E1;1.444309998E1
1.447853125E1;-5.032599926E0;1.869239998E1;1.044569969E1
1.449838438E1;-7.865699768E0;1.570589924E1;5.886199951E0
1.451824375E1;-3.757499933E0;1.476519966E1;-6.931599617E0
1.453808906E1;1.057299972E0;6.519000053E0;-2.275179863E1
1.455794375E1;1.724499941E0;1.306199908E0;-5.848799706E0
1.457779531E1;5.300600052E0;5.685199738E0;2.213269997E1
1.459764688E1;3.220999837E-1;7.023599625E0;9.507800102E0
1.461750000E1;-3.636699915E0;4.095600128E0;1.029440022E1
1.463735312E1;-1.099450016E1;-7.059399605E0;1.782049942E1
1.465720469E1;-1.256649971E1;-2.023089981E1;2.032259941E1
1.467705781E1;-1.561829948E1;-2.371430016E1;1.272599936E0
1.469691094E1;-6.897500038E0;-2.095509911E1;1.745000005E0
1.471676406E1;2.272399902E0;-1.774279976E1;7.010099888E0
1.473661719E1;9.471300125E0;-1.780469894E1;4.015599728E0
1.475646875E1;1.552390003E1;-1.523129940E1;-3.876000047E-1
1.477632188E1;1.907110023E1;-1.307149982E1;-1.471399903E0
1.479617344E1;1.110969925E1;-9.906899452E0;-1.500479984E1
1.481602812E1;1.382429981E1;8.386999965E-1;-1.889649963E1
1.483587969E1;1.175979996E1;7.230599880E0;-1.319000006E0
1.485573281E1;1.110709953E1;1.277359962E1;-1.259009933E1
1.487558438E1;1.048929977E1;1.249769974E1;-1.597599983E0
1.489544219E1;7.420599937E0;1.414789963E1;-1.584899902E0
1.491529062E1;5.189799786E0;1.429769993E1;-1.845799923E0
1.493514219E1;6.616299629E0;1.422620010E1;-2.351599932E0
1.495499531E1;9.421400070E0;1.435629940E1;-1.209200025E0
1.497485000E1;1.416459942E1;1.381839943E1;-1.141499996E0
1.499470000E1;1.421649933E1;9.165299416E0;-1.385100007E0
1.501455312E1;1.386699963E1;3.470000029E-1;1.134899974E0
1.503440625E1;1.291160011E1;-2.614179993E1;1.747099996E0
1.505425781E1;-8.329899788E0;-6.783580017E1;-6.204000115E-1
1.507411094E1;-1.249849987E1;-5.996399689E1;3.874000013E-1
1.509396406E1;-1.457899928E0;-1.313049984E1;-1.809269905E1
1.511381719E1;-1.748399973E0;9.304999709E-1;-1.630699921E1
1.513366875E1;-3.777999878E-1;3.284799814E0;-7.667999744E0
1.515352188E1;-2.698199987E0;4.977499962E0;7.958899975E0
1.517337500E1;-4.675899982E0;8.274999619E0;1.367329979E1
1.519322813E1;-3.475399971E0;1.181239986E1;1.567679977E1
1.521307969E1;-2.375200033E0;1.466559982E1;1.410229969E1
1.523293281E1;-1.636199951E0;1.853820038E1;1.070249939E1
1.525278438E1;-2.853899956E0;1.744499969E1;7.495599747E0
1.527263750E1;-2.141999960E0;1.483069992E1;1.576299906E0
1.529249063E1;-2.583099842E0;1.224739933E1;-2.010210037E1
1.531234375E1;-1.217999980E-1;3.978199959E0;-4.479399681E0
1.533219531E1;2.856799841E0;2.559200048E0;6.861999631E-1
1.535204844E1;3.252799988E0;5.779299736E0;1.333799934E1
1.537190156E1;-1.389799953E0;5.492499828E0;1.063770008E1
1.539175313E1;-4.520999908E0;1.248700023E0;1.602179909E1
1.541160625E1;-1.489799976E1;-1.638559914E1;1.080229950E1
1.543145938E1;-1.655389977E1;-2.905119896E1;9.123899460E0
1.545131250E1;-1.252509975E1;-3.321960068E1;1.751099944E0
1.547116406E1;-4.647200108E0;-2.398600006E1;6.062699795E0
1.549101719E1;1.665699959E0;-1.367899990E1;6.700699806E0
1.551087031E1;1.240469933E1;-1.380089951E1;1.297439957E1
1.553072500E1;2.438379860E1;-1.079019928E1;-7.587999821E0
1.555057500E1;2.140569878E1;-4.199599743E0;-1.327519989E1
1.557043438E1;8.837999344E0;-4.435899734E0;-1.884519958E1
1.559027969E1;1.444779968E1;5.639299870E0;-8.670899391E0
1.561013281E1;1.472069931E1;8.526000023E0;-4.733500004E0
1.562998594E1;1.117969990E1;1.139369965E1;-2.760900021E0
1.564983750E1;7.009699821E0;1.419039917E1;-3.679899931E0
1.566969063E1;5.343699932E0;1.315769958E1;-2.448600054E0
1.568955000E1;5.252899647E0;1.220020008E1;-2.061199903E0
1.570939531E1;6.674599648E0;1.256689930E1;-9.853999615E-1
1.572924844E1;8.879699707E0;1.317759991E1;5.913999677E-1
1.574910000E1;1.222900009E1;1.325399971E1;1.985999942E-1
1.576895938E1;1.450599957E1;9.564899445E0;-1.559099913E0
1.578880625E1;1.564989948E1;3.231699944E0;-1.380199909E0
1.580865781E1;1.233049965E1;-1.965219879E1;1.161100030E0
1.582851250E1;-2.392999887E0;-6.336819839E1;4.251299858E0
1.584836406E1;-2.208499908E1;-6.910289764E1;-1.135529995E1
1.586821719E1;-8.557199478E0;-1.828579903E1;-1.901829910E1
1.588807031E1;-4.269299984E0;-6.638000011E-1;-1.009630013E1
1.590792188E1;-3.266799927E0;4.317999780E-1;-2.957399845E0
1.592777500E1;-1.424799919E0;3.877899885E0;8.224599838E0
1.594762656E1;-3.968299866E0;8.357399940E0;1.089089966E1
1.596748125E1;-2.481600046E0;1.146689987E1;1.059799957E1
1.598733281E1;-9.679999948E-1;1.350159931E1;1.198320007E1
1.600718594E1;-2.928999960E-1;1.547509956E1;1.457069969E1
1.602703750E1;-1.284299970E0;1.830799866E1;1.660569954E1
1.604689062E1;-8.341000080E-1;1.624729919E1;6.756399632E0
1.606674375E1;-2.439499855E0;1.535719967E1;-1.415139961E1
1.608660156E1;-1.354200006E0;5.206699848E0;-1.501169968E1
1.610644844E1;5.968299866E0;2.486099958E0;-3.908099890E0
1.612630156E1;9.215299606E0;4.149799824E0;9.341300011E0
1.614615312E1;3.756599903E0;5.229099751E0;6.547699928E0
1.616600625E1;-3.202999830E-1;9.127999544E-1;9.962399483E0
1.618585938E1;-1.267819977E1;-9.234999657E0;5.721899986E0
1.620571250E1;-1.688159943E1;-9.584699631E0;1.776420021E1
1.622556406E1;-1.335339928E1;-1.817049980E1;3.554799795E0
1.624541719E1;-9.864699364E0;-2.909269905E1;4.849100113E0
1.626527031E1;-2.387599945E0;-2.409829903E1;7.624699593E0
1.628512188E1;3.500599861E0;-1.864929962E1;7.398099899E0
1.630497969E1;1.396089935E1;-2.069029999E1;4.245699883E0
1.632482812E1;1.857289886E1;-1.225929928E1;-1.061999989E1
1.634467969E1;1.456279945E1;-4.555999756E0;-2.021979904E1
1.636453281E1;8.873199463E0;-2.420199871E0;-1.804089928E1
1.638438594E1;8.186599731E0;3.853799820E0;-3.806399822E0
1.640423906E1;1.118799973E1;1.061229992E1;-4.916699886E0
1.642409062E1;1.024499989E1;1.184669971E1;-1.726599932E0
1.644394375E1;8.345099449E0;1.408439922E1;-2.699800014E0
1.646379688E1;7.932199955E0;1.351219940E1;-1.088099957E0
1.648364844E1;8.526199341E0;1.372429943E1;-1.316599965E0
1.650350156E1;1.104139996E1;1.456589985E1;-5.070999861E-1
1.652335469E1;1.334869957E1;1.417339993E1;-2.940299988E0
1.654320781E1;1.494459915E1;1.259889984E1;-3.009999990E0
1.656305938E1;1.460029984E1;7.601999760E0;-2.684299946E0
1.658291250E1;1.640060043E1;-4.099199772E0;-8.891999722E-1
1.660276562E1;1.790189934E1;-3.103389931E1;2.536999881E-1
1.662261719E1;-9.409399986E0;-6.830569458E1;-7.672799587E0
1.664247031E1;-1.926009941E1;-5.876539993E1;-2.629600048E0
1.666232188E1;-7.111899853E0;-1.487189960E1;-8.764900208E0
1.668217500E1;-3.811399937E0;5.758999586E-1;-7.580199718E0
1.670202813E1;-2.467299938E0;3.884699821E0;-2.117999941E-1
1.672188125E1;-4.544600010E0;6.493799686E0;5.833299637E0
1.674173281E1;-5.989500046E0;9.912399292E0;1.048320007E1
1.676158594E1;-4.743099689E0;1.273789978E1;1.042070007E1
1.678143906E1;-4.121599674E0;1.392989922E1;1.168779945E1
1.680129219E1;-3.673699856E0;1.487789917E1;1.128849983E1
1.682114531E1;-3.855700016E0;1.655719948E1;7.870299816E0
1.684099531E1;-3.017999887E0;1.586240005E1;-2.772599936E0
1.686084844E1;2.576299906E0;1.410179996E1;-2.110859871E1
1.688070156E1;4.100699902E0;4.897799969E0;-1.130620003E1
1.690055469E1;7.273799896E0;3.013799906E0;6.166100025E0
1.692040781E1;4.273200035E0;6.540799618E0;1.127639961E1
1.694026094E1;-3.570999861E0;5.319499969E0;9.648799896E0
1.696012344E1;-6.066599846E0;3.224999905E-1;1.853750038E1
1.697996406E1;-1.257989979E1;-6.715999603E0;1.631579971E1
1.699981875E1;-1.250259972E1;-2.422839928E1;8.835800171E0
1.701967031E1;-1.062339973E1;-3.532989883E1;3.403999805E0
1.703952344E1;-6.903999805E0;-3.336079788E1;4.691299915E0
1.705937500E1;1.116599917E0;-2.049689865E1;3.171700001E0
1.707922812E1;1.015059948E1;-1.278069973E1;-6.271100044E0
1.709908125E1;1.626560020E1;-6.032700062E0;-1.774419975E1
1.711893438E1;9.913599968E0;-1.215600014E0;-5.737699986E0
1.713878750E1;8.219099998E0;-4.282999933E-1;6.859999895E-1
1.715863750E1;1.169799995E1;5.417599678E0;-8.761599541E0
1.717849219E1;1.653619957E1;1.140279961E1;-9.767000198E0
1.719834375E1;1.088989925E1;1.125419998E1;-1.207299948E0
1.721819688E1;9.741999626E0;1.598349953E1;-4.121299744E0
1.723804844E1;8.769399643E0;1.484029961E1;-2.599999905E0
1.725790156E1;9.699299812E0;1.477329922E1;-3.728099823E0
1.727775469E1;1.312679958E1;1.448509979E1;-6.377099991E0
1.729760781E1;1.282229996E1;1.256519985E1;-3.071899891E0
1.731745938E1;1.141720009E1;9.131299973E0;-2.562299967E0
1.733731250E1;1.381599998E1;2.020599842E0;-1.330099940E0
1.735716562E1;2.090499878E1;-2.604949951E1;5.400599957E0
1.737701719E1;2.096000016E-1;-6.814699554E1;-6.413999796E-1
1.739687031E1;-1.367819977E1;-6.493119812E1;-2.996299982E0
1.741672344E1;-4.425600052E0;-1.495599937E1;-1.161600018E1
1.743657969E1;-2.075000048E0;4.610999823E-1;-1.091079998E1
1.745642813E1;-2.163599968E0;4.245800018E0;-3.823099852E0
1.747628125E1;-5.870100021E0;5.619800091E0;8.170599937E0
1.749613438E1;-8.237099648E0;8.471699715E0;1.248119926E1
1.751598594E1;-7.044699669E0;1.169499969E1;1.294479942E1
1.753584844E1;-5.578099728E0;1.464540005E1;1.263919926E1
1.755569219E1;-6.503399849E0;1.660560036E1;1.402320004E1
1.757554375E1;-7.202099800E0;1.760929871E1;1.194909954E1
1.759539688E1;-4.502900124E0;1.614119911E1;3.051299810E0
1.761525000E1;1.064299941E0;1.427390003E1;-3.516449738E1
1.763510156E1;1.782499909E0;2.236999989E0;-1.249520016E1
1.765495469E1;3.641499996E0;2.796999812E-1;2.895999908E0
1.767480781E1;6.352699757E0;5.347099781E0;2.006469917E1
1.769466094E1;5.388000011E-1;7.330899715E0;1.208249950E1
1.771452188E1;-4.072700024E0;2.710799932E0;1.417129993E1
1.773436563E1;-1.121990013E1;-8.731200218E0;1.781480026E1
1.775421875E1;-1.235299969E1;-2.490859985E1;7.002599716E0
1.777407031E1;-1.308479977E1;-2.898709869E1;-5.692499638E0
1.779392344E1;-7.324299812E0;-2.937069893E1;4.635399818E0
1.781377656E1;1.606099963E0;-1.915219879E1;9.306699753E0
1.783364688E1;6.735499859E0;-1.734539986E1;1.675899887E1
1.785348125E1;1.747290039E1;-1.618490028E1;-3.717199802E0
1.787333438E1;2.000629997E1;-5.825500011E0;-1.140380001E1
1.789318906E1;1.167859936E1;3.965999782E-1;-2.026840019E1
1.791303906E1;4.022799969E0;1.178699970E0;-1.656669998E1
1.793289219E1;1.128090000E1;7.998399734E0;-2.227099895E0
1.795274375E1;1.379159927E1;1.042509937E1;-3.827999830E-1
1.797259688E1;1.163809967E1;1.325780010E1;1.674999893E-1
1.799245000E1;9.014499664E0;1.489009953E1;-2.513200045E0
1.801230156E1;8.476300240E0;1.411730003E1;-1.261999965E0
1.803215469E1;9.884200096E0;1.447029972E1;-1.210199952E0
1.805200625E1;1.116529942E1;1.385359955E1;-6.130999923E-1
1.807186094E1;1.159140015E1;1.196329975E1;-3.123800039E0
1.809171250E1;1.108069992E1;9.695300102E0;-2.306900024E0
1.811156562E1;1.164059925E1;4.966499805E0;-1.903800011E0
1.813141875E1;1.809560013E1;-1.426089954E1;6.407999992E-1
1.815127031E1;1.130569935E1;-5.835709763E1;-4.569499969E0
1.817112344E1;-2.035899925E1;-6.940219879E1;-2.600100040E0
1.819097656E1;-1.236959934E1;-3.130659866E1;-5.105999708E-1
1.821082813E1;-5.057499886E0;-5.787699699E0;-2.638099909E0
1.823068125E1;-4.729000092E0;1.854200006E0;-1.839100003E0
1.825053906E1;-5.333600044E0;5.083199978E0;1.180199981E0
1.827038594E1;-6.900300026E0;8.280300140E0;1.375599980E0
1.829023906E1;-7.512799740E0;1.116529942E1;4.284599781E0
1.831009062E1;-5.762199879E0;1.277299976E1;6.316699982E0
1.832994375E1;-4.222300053E0;1.319299984E1;6.819799900E0
1.834979844E1;-3.541299820E0;1.405739975E1;5.899699688E0
1.836965000E1;-4.448299885E0;1.599199963E1;1.254099965E0
1.838950312E1;-1.454100013E0;1.546770000E1;7.033999562E-1
1.840935469E1;3.071099997E0;8.527899742E0;-3.459399939E0
1.842921875E1;6.518599987E0;3.631500006E0;-1.162020016E1
1.844906094E1;8.717100143E0;3.486099958E0;1.143270016E1
1.846891406E1;4.954999924E0;5.612799644E0;5.776999950E0
1.848876719E1;-1.299499989E0;3.072000027E0;1.112199974E1
1.850861875E1;-6.944599628E0;-9.304800034E0;1.224989986E1
1.852847031E1;-1.981469917E1;-3.000089836E1;1.128170013E1
1.854832344E1;-1.367619991E1;-2.190919876E1;2.881299973E0
1.856817656E1;-7.029699802E0;-2.047920036E1;-5.982999802E-1
1.858802812E1;-3.190699816E0;-1.282719994E1;4.157099724E0
1.860788281E1;2.892799854E0;-1.110169983E1;7.913699627E0
1.862773438E1;1.100850010E1;-1.482380009E1;-1.159999967E-1
1.864758750E1;1.451789951E1;-1.218190002E1;-5.410399914E0
1.866743906E1;1.238249969E1;-6.546999931E0;-7.119199753E0
1.868729219E1;1.028380013E1;8.409999609E-1;-2.133969879E1
1.870714531E1;9.846799850E0;6.738699913E0;-1.278520012E1
1.872699688E1;8.796500206E0;9.435899734E0;-9.409999847E-1
1.874685000E1;8.474100113E0;9.988999367E0;5.468999743E-1
1.876671094E1;6.168200016E0;1.252040005E1;1.726799965E0
1.878655625E1;6.697199821E0;1.287909985E1;-9.519000053E-1
1.880640938E1;9.390899658E0;1.369499969E1;-9.592999816E-1
1.882626094E1;1.221739960E1;1.376209927E1;-5.943999887E-1
1.884611406E1;1.519039917E1;1.366989994E1;-4.391999841E-1
1.886596562E1;1.381549931E1;1.035680008E1;-2.816200018E0
1.888581875E1;1.016079998E1;6.792500019E0;-2.098799944E0
1.890567188E1;1.179959965E1;1.278499961E0;-1.857399940E0
1.892552344E1;1.413089943E1;-1.970969963E1;5.464399815E0
1.894537656E1;5.120999813E-1;-5.890929794E1;-5.104000092E0
1.896522969E1;-2.125829887E1;-6.439709473E1;-5.064399719E0
1.898508125E1;-9.234099388E0;-1.969400024E1;-9.284099579E0
1.900493438E1;-2.197299957E0;-2.526299953E0;6.354999542E-1
1.902478750E1;-1.710500002E0;9.797999859E-1;2.345599890E0
1.904463906E1;-3.823699951E0;2.837899923E0;7.138099670E0
1.906449219E1;-6.444299698E0;5.886399746E0;4.094900131E0
1.908434531E1;-6.422100067E0;9.621799469E0;2.436300039E0
1.910419844E1;-4.798099995E0;1.261389923E1;3.066200018E0
1.912405156E1;-3.052699804E0;1.442700005E1;3.001399994E0
1.914391094E1;-2.936699867E0;1.462889957E1;4.521299839E0
1.916375625E1;-3.718699932E0;1.436399937E1;7.038799763E0
1.918360781E1;3.132999837E-1;1.369789982E1;2.887399912E0
1.920346094E1;8.121799469E0;6.296000004E0;-1.166059971E1
1.922331406E1;1.045699978E1;4.870699883E0;3.347499847E0
1.924316562E1;5.979499817E0;7.063999653E0;4.967499733E0
1.926301875E1;-1.226899981E0;5.906799793E0;3.756599903E0
1.928287188E1;-1.271700025E0;2.199899912E0;1.446889973E1
1.930272344E1;-5.964299679E0;-2.854399872E1;1.088779926E1
1.932257656E1;-1.658889961E1;-2.062989998E1;-6.369999647E-1
1.934242969E1;-1.032539940E1;-9.656599998E0;-4.711899757E0
1.936228125E1;-1.036149979E1;-1.371329975E1;1.439499974E0
1.938213594E1;-6.809000015E0;-1.316909981E1;7.368899822E0
1.940198750E1;-8.890999556E-1;-1.191699982E1;6.453000069E0
1.942184062E1;2.807999849E0;-1.586359978E1;1.468829918E1
1.944169219E1;1.063319969E1;-1.498129940E1;-4.597599983E0
1.946154531E1;1.202409935E1;-8.724900246E0;-2.066099882E0
1.948139688E1;1.232269955E1;-2.119099855E0;-1.307629967E1
1.950125781E1;1.341650009E1;5.629199982E0;-2.788189888E1
1.952110312E1;1.291829967E1;7.970099926E0;-3.569700003E0
1.954095469E1;1.242529964E1;1.023009968E1;1.825500011E0
1.956080781E1;8.751999855E0;1.262500000E1;1.967999935E-1
1.958066094E1;7.546099663E0;1.324749947E1;-9.355999827E-1
1.960051250E1;9.847399712E0;1.388039970E1;-1.058499932E0
1.962036719E1;1.309469986E1;1.408150005E1;-1.485999972E-1
1.964021875E1;1.599720001E1;1.387409973E1;5.460000038E-1
1.966007188E1;1.462539959E1;9.573200226E0;-1.176100016E0
1.967992344E1;1.269829941E1;4.820499897E0;-1.618199944E0
1.969977656E1;1.329459953E1;-6.964900017E0;-2.189499855E0
1.971962969E1;7.956599712E0;-3.478649902E1;4.001399994E0
1.973948125E1;-1.238350010E1;-6.732609558E1;-3.164999962E0
1.975933594E1;-1.769750023E1;-4.499869919E1;-1.389309978E1
1.977918750E1;-9.300600052E0;-9.975299835E0;-9.821499825E0
1.979904062E1;-3.711299896E0;-1.245800018E0;-3.837299824E0
1.981889219E1;-3.238499880E0;1.087899923E0;2.486199856E0
1.983874844E1;-4.635699749E0;4.016099930E0;5.524099827E0
1.985859844E1;-5.287199974E0;7.991999626E0;3.671599865E0
1.987845156E1;-4.412499905E0;1.122979927E1;4.742399693E0
1.989830312E1;-2.646699905E0;1.317799950E1;5.546299934E0
1.991815625E1;-9.542999864E-1;1.428219986E1;6.996799946E0
1.993800781E1;-8.579999804E-1;1.547229958E1;1.008169937E1
1.995786094E1;1.918599963E0;1.573719978E1;3.903499842E0
1.997771406E1;7.062500000E0;1.231339931E1;-8.353599548E0
1.999756719E1;9.413399696E0;5.082200050E0;-8.222700119E0
2.001741875E1;8.942399979E0;4.271899700E0;1.971899986E0
2.003727812E1;5.631399632E0;6.913699627E0;5.101399899E0
2.005712500E1;-7.906999588E-1;5.754099846E0;5.631700039E0
2.007697656E1;-1.244099975E0;1.812999964E0;1.348659992E1
2.009682969E1;-1.211829948E1;-2.286499977E1;9.036899567E0
2.011668281E1;-2.356519890E1;-2.674069977E1;2.025699854E0
2.013653438E1;-1.657989883E1;-2.140639877E1;1.498799920E0
2.015638750E1;-9.468099594E0;-1.451749992E1;3.121299982E0
2.017624063E1;-3.494599819E0;-9.981399536E0;5.605799675E0
2.019609219E1;3.068199873E0;-1.154959965E1;8.802000046E0
2.021594531E1;1.017780018E1;-1.465719986E1;-3.579999924E0
2.023579844E1;1.071700001E1;-1.158069992E1;-4.791199684E0
2.025565156E1;9.446599960E0;-6.646499634E0;-3.335599899E0
2.027550312E1;9.828899384E0;-9.614999890E-1;-1.024549961E1
2.029535625E1;1.104209995E1;5.588599682E0;-1.390539932E1
2.031520938E1;1.380559921E1;1.036899948E1;-9.879300117E0
2.033506094E1;1.177299976E1;9.923299789E0;-1.076900005E0
2.035491406E1;9.918199539E0;1.215869999E1;3.854999840E-1
2.037476719E1;6.569799900E0;1.358649921E1;-1.581399918E0
2.039462031E1;8.725399971E0;1.303609943E1;-6.780999899E-1
2.041447188E1;1.125129986E1;1.270499992E1;-8.840000033E-1
2.043432500E1;1.376559925E1;1.250909996E1;-1.051399946E0
2.045417813E1;1.307909966E1;9.333700180E0;-2.404700041E0
2.047402969E1;1.369709969E1;3.810199976E0;-2.371199846E0
2.049388281E1;1.499109936E1;-1.163459969E1;-9.160999656E-1
2.051373594E1;8.371299744E0;-3.784769821E1;1.353999972E0
2.053358750E1;-1.840219879E1;-6.635859680E1;-8.055399895E0
2.055344062E1;-1.479309940E1;-3.192859840E1;-1.348229980E1
2.057329531E1;-5.395400047E0;-6.339200020E0;-4.967099667E0
2.059314688E1;-2.471899986E0;-2.712999880E-1;1.517300010E0
2.061299844E1;-2.137799978E0;1.077000022E0;2.664299965E0
2.063285156E1;-2.770200014E0;3.336999893E0;6.917699814E0
2.065270313E1;-5.762700081E0;7.214099884E0;5.012499809E0
2.067255625E1;-4.293999672E0;1.100269985E1;4.305999756E0
2.069240938E1;-2.530599833E0;1.320819950E1;3.637699842E0
2.071226094E1;-2.119299889E0;1.430299950E1;5.206799984E0
2.073211406E1;-2.684599876E0;1.584619999E1;7.401099682E0
2.075196719E1;-9.777999520E-1;1.492789936E1;3.179999813E-2
2.077182031E1;3.170599937E0;6.285799980E0;-1.954220009E1
2.079167188E1;1.173849964E1;1.345099926E0;-3.668299913E0
2.081152500E1;1.041790009E1;5.003900051E0;1.672200012E1
2.083137656E1;3.404999971E-1;3.591199875E0;7.582499981E0
2.085123125E1;-3.444899797E0;1.385999918E0;1.039559937E1
2.087108281E1;-7.784799576E0;-3.919199944E0;7.580099583E0
2.089093594E1;-1.691289902E1;-1.655419922E1;1.398299932E0
2.091078906E1;-1.546009922E1;-2.228459930E1;3.319000006E-1
2.093064063E1;-9.989199638E0;-2.341209984E1;3.700000001E-3
2.095049375E1;-2.856199980E0;-1.486349964E1;2.273299932E0
2.097034688E1;4.289000034E0;-1.228439999E1;4.957999706E0
2.099019844E1;1.284459972E1;-1.342350006E1;4.494599819E0
2.101005156E1;1.468379974E1;-1.043949986E1;-4.269199848E0
2.102990312E1;9.796500206E0;-4.387099743E0;-9.381799698E0
2.104975625E1;7.241699696E0;9.833999872E-1;-1.158119965E1
2.106960938E1;6.797599792E0;6.480299950E0;-1.094979954E1
2.108946250E1;9.552000046E0;1.027649975E1;-1.057019997E1
2.110931406E1;1.037349987E1;1.086129951E1;-1.231299996E0
2.112916719E1;7.840999603E0;1.244919968E1;-2.967599869E0
2.114903438E1;6.317899704E0;1.230620003E1;-1.722499967E0
2.116887344E1;7.247699738E0;1.241989994E1;-7.642999887E-1
2.118872500E1;9.932799339E0;1.288999939E1;-9.483999610E-1
2.120857813E1;1.416419983E1;1.330270004E1;-2.822999954E0
2.122843125E1;1.545959949E1;1.170819950E1;-1.794399977E0
2.124828906E1;1.319569969E1;5.460299969E0;-1.411199927E0
2.126813594E1;1.323379993E1;-1.078899956E1;8.156999946E-1
2.128799063E1;6.704199791E0;-4.410820007E1;-4.657099724E0
2.130784062E1;-2.089929962E1;-6.915269470E1;-1.445119953E1
2.132769375E1;-1.522789955E1;-3.312450027E1;-9.767600060E0
2.134754688E1;-6.985099792E0;-6.235599995E0;9.727999568E-1
2.136739844E1;-3.072099924E0;2.319900036E0;1.694799900E0
2.138725156E1;-4.177099705E0;2.810400009E0;3.043799877E0
2.140710469E1;-5.565199852E0;5.738299847E0;6.635299683E0
2.142695625E1;-5.219699860E0;9.233699799E0;5.495999813E0
2.144680938E1;-3.855599880E0;1.233949947E1;4.975699902E0
2.146666250E1;-2.133100033E0;1.386489964E1;4.170499802E0
2.148651406E1;-1.177399993E0;1.435890007E1;6.309299946E0
2.150636719E1;-4.630999863E-1;1.465999985E1;8.971399307E0
2.152622031E1;2.635599852E0;1.458959961E1;1.834199905E0
2.154607188E1;8.554499626E0;8.092899323E0;-1.203079987E1
2.156592500E1;9.479100227E0;3.899799824E0;-8.725600243E0
2.158577812E1;8.679699898E0;5.332299709E0;7.318500042E0
2.160563125E1;5.674900055E0;4.862999916E0;6.684099674E0
2.162548281E1;-4.991999865E-1;3.274199963E0;1.076209927E1
2.164533594E1;-9.084400177E0;-1.079279995E1;5.632599831E0
2.166518906E1;-1.954539871E1;-1.923089981E1;6.332099915E0
2.168504219E1;-1.571199989E1;-2.417569923E1;2.294199944E0
2.170489375E1;-9.750999451E0;-2.047309875E1;2.006199837E0
2.172474688E1;-5.186699867E0;-1.125309944E1;5.811199665E0
2.174460000E1;-1.682500005E0;-1.060779953E1;5.303499699E0
2.176445156E1;3.019599915E0;-1.254789925E1;7.383399963E0
2.178430469E1;7.052099705E0;-2.095730019E1;2.230000019E0
2.180415781E1;1.312319946E1;-1.087239933E1;-1.480729961E1
2.182401719E1;1.337529945E1;-7.713999748E-1;-3.392210007E1
2.184386250E1;1.163210011E1;3.946499825E0;-1.518809986E1
2.186371562E1;1.177229977E1;6.782199860E0;2.846299887E0
2.188356719E1;1.177509975E1;1.051420021E1;4.844799995E0
2.190342031E1;1.025010014E1;1.091239929E1;8.154000044E-1
2.192327344E1;8.193699837E0;1.058909988E1;-1.491599917E0
2.194312500E1;8.511899948E0;1.248919964E1;-2.742799997E0
2.196297656E1;1.172459984E1;1.462529945E1;-1.592999935E0
2.198282969E1;1.791320038E1;1.598369980E1;-2.465699911E0
2.200268281E1;1.515719986E1;1.066069984E1;-2.615299940E0
2.202253594E1;1.222270012E1;5.298099995E0;-1.053900003E0
2.204238906E1;1.027859974E1;-1.053409958E1;3.050000072E-1
2.206224062E1;6.642000079E-1;-5.081990051E1;-1.358199978E1
2.208209531E1;-2.251239967E1;-6.921559906E1;-2.326200008E0
2.210194688E1;-1.209109974E1;-2.956299973E1;2.200700045E0
2.212180000E1;-4.048599720E0;-3.178200006E0;-3.086999893E0
2.214165156E1;-3.746199846E0;3.987799883E0;-7.430999875E-1
2.216150469E1;-4.662699699E0;4.612699986E0;3.288399935E0
2.218135938E1;-3.169799805E0;8.417200089E0;8.837499619E0
2.220120938E1;-3.799599886E0;1.191459942E1;7.481299877E0
2.222106250E1;-2.625699997E0;1.409410000E1;7.267499924E0
2.224091563E1;-1.090499997E0;1.493349934E1;7.523599625E0
2.226076719E1;-7.497999668E-1;1.506239986E1;1.233519936E1
2.228062031E1;-1.819399953E0;1.468540001E1;1.081559944E1
2.230047344E1;-1.074599981E0;1.342309952E1;-3.485499859E0
2.232032500E1;3.589599848E0;5.247699738E0;-1.914869881E1
2.234017812E1;9.669300079E0;-4.034000039E-1;-1.147709942E1
2.236003594E1;8.347000122E0;4.588599682E0;1.607180023E1
2.237988281E1;-1.225999951E0;2.879899979E0;5.742599964E0
2.239973594E1;-2.947499990E0;6.283999681E-1;1.426669979E1
2.241958906E1;-1.759219933E1;-2.141449928E1;1.411619949E1
2.243944063E1;-1.952599907E1;-2.162360001E1;9.146900177E0
2.245929375E1;-1.090310001E1;-1.877449989E1;2.089699984E0
2.247914688E1;-4.927999973E0;-1.382699966E1;1.433099985E0
2.249900000E1;1.042199969E0;-1.297200012E1;3.760399818E0
2.251885156E1;8.820499420E0;-1.882970047E1;3.276999950E0
2.253870469E1;1.208469963E1;-1.590389919E1;-8.542499542E0
2.255855781E1;1.085949993E1;-7.524899960E0;-8.161700249E0
2.257840938E1;9.875499725E0;-3.336899996E0;-1.123409939E1
2.259826250E1;9.385000229E0;3.885199785E0;-1.497179985E1
2.261811562E1;1.319379997E1;9.485199928E0;-8.762899399E0
2.263796875E1;1.165289974E1;9.172900200E0;-4.104000032E-1
2.265782031E1;8.571899414E0;1.059079933E1;2.151999921E-1
2.267767500E1;5.947299957E0;1.209060001E1;-2.863899946E0
2.269752656E1;7.283699989E0;1.296589947E1;-2.368499994E0
2.271738438E1;9.846399307E0;1.360789967E1;-1.049199939E0
2.273723125E1;1.410239983E1;1.415459919E1;-9.831999540E-1
2.275708438E1;1.562109947E1;1.265749931E1;-2.333299875E0
2.277693594E1;1.197609997E1;7.139400005E0;-2.959499836E0
2.279678906E1;1.302399921E1;6.485999823E-1;-1.643000007E0
2.281664219E1;1.286989975E1;-2.056539917E1;1.572499990E0
2.283649531E1;-5.498399734E0;-6.115279770E1;-1.243120003E1
2.285634844E1;-2.371509933E1;-6.754719543E1;-7.255799770E0
2.287620000E1;-9.183499336E0;-1.883149910E1;-5.896999836E0
2.289605312E1;-2.346999884E0;-9.262999892E-1;-1.319199920E0
2.291590469E1;1.431999952E-1;4.018000126E0;9.004999995E-1
2.293575781E1;8.493999839E-1;6.514299870E0;4.239999771E0
2.295561094E1;-1.501299977E0;9.005999565E0;7.993799686E0
2.297546250E1;-3.338299990E0;1.129659939E1;1.026499939E1
2.299531562E1;-1.497900009E0;1.358069992E1;1.172139931E1
2.301516875E1;-4.667999744E-1;1.542809963E1;1.248509979E1
2.303502031E1;-2.815999985E-1;1.553509998E1;1.215110016E1
2.305487500E1;-1.247999966E-1;1.431969929E1;6.631499767E0
2.307472656E1;-2.805099964E0;1.241650009E1;-1.689589882E1
2.309457969E1;2.387899876E0;4.029500008E0;-1.827739906E1
2.311443125E1;5.850800037E0;2.809799910E0;5.003900051E0
2.313428438E1;3.502399921E0;6.602499962E0;7.181799889E0
2.315413750E1;-2.497299910E0;6.363299847E0;4.669699669E0
2.317398906E1;-2.914799929E0;2.068500042E0;1.454290009E1
2.319384219E1;-1.124809933E1;-2.290339851E1;1.156199932E1
2.321369531E1;-1.777890015E1;-2.314130020E1;8.008600235E0
2.323354844E1;-7.686199665E0;-2.060129929E1;7.928399563E0
2.325340000E1;-3.697999954E0;-1.872239876E1;7.106799603E0
2.327325312E1;-3.252999783E-1;-1.464349937E1;6.099099636E0
2.329310469E1;5.540100098E0;-1.718319893E1;1.258559990E1
2.331295781E1;1.472459984E1;-1.288949966E1;-1.238449955E1
2.333281094E1;1.361999989E1;-5.546299934E0;-2.099339867E1
2.335266406E1;6.640999794E0;-2.826299906E0;-1.307219982E1
2.337251563E1;8.286899567E0;2.335099936E0;-7.550999641E0
2.339236875E1;1.166909981E1;9.408100128E0;-8.494899750E0
2.341222031E1;1.142329979E1;9.850999832E0;-3.529999852E-1
2.343208281E1;8.525699615E0;1.170949936E1;-1.017699957E0
2.345192656E1;6.517699718E0;1.329189968E1;-2.185099840E0
2.347177969E1;8.058099747E0;1.367689991E1;-1.584599972E0
2.349163125E1;9.773099899E0;1.339709949E1;-8.509999514E-1
2.351148438E1;1.397200012E1;1.371239948E1;-4.477999806E-1
2.353133750E1;1.592589951E1;1.267280006E1;-1.987999916E0
2.355119062E1;1.246369934E1;7.679699898E0;-3.027699947E0
2.357104375E1;1.491029930E1;1.438999921E-1;-2.358599901E0
2.359089531E1;1.656099892E1;-3.094019890E1;5.202699661E0
2.361074844E1;-1.278579998E1;-6.882559967E1;-7.412699699E0
2.363060000E1;-2.031060028E1;-5.430149841E1;-9.652699471E0
2.365045313E1;-6.684899807E0;-1.236219978E1;-9.004699707E0
2.367030625E1;-1.759499907E0;1.361500025E0;-4.363199711E0
2.369015781E1;-2.693699837E0;3.435199976E0;6.532999873E-1
2.371001094E1;-3.852999926E0;4.794099808E0;5.887599945E0
2.372986250E1;-6.187200069E0;7.321199894E0;8.606200218E0
2.374971562E1;-3.985499859E0;1.127429962E1;7.692599773E0
2.376956875E1;-1.901899934E0;1.382429981E1;6.786999702E0
2.378942031E1;-1.304799914E0;1.549879932E1;9.217399597E0
2.380927344E1;-1.762300014E0;1.595919991E1;1.238669968E1
2.382912656E1;-1.574999928E0;1.486520004E1;7.006999969E0
2.384897969E1;-3.466899872E0;1.319279957E1;-5.833099842E0
2.386883125E1;1.385399938E0;3.784299850E0;-2.153129959E1
2.388868438E1;8.413700104E0;1.943599939E0;-2.368299961E0
2.390853750E1;8.148499489E0;6.265999794E0;1.646259880E1
2.392838906E1;-9.178999662E-1;3.319099903E0;9.851599693E0
2.394824219E1;-5.868399620E0;-1.568799973E0;1.406499958E1
2.396809531E1;-1.123909950E1;-1.595669937E1;1.651650047E1
2.398794844E1;-1.433780003E1;-2.406320000E1;4.749399662E0
2.400780625E1;-9.627099991E0;-2.706519890E1;1.652799964E0
2.402765312E1;-3.339799881E0;-1.944629860E1;3.813199997E0
2.404750625E1;2.527499914E0;-1.397819996E1;4.679500103E0
2.406735938E1;1.057639980E1;-1.462939930E1;1.196640015E1
2.408721094E1;1.919019890E1;-1.114439964E1;-5.585999966E0
2.410706406E1;1.673309898E1;-5.668799877E0;-1.719519997E1
2.412691563E1;6.543099880E0;-2.310499907E0;-1.702529907E1
2.414676875E1;1.009759998E1;5.774600029E0;-6.093899727E0
2.416662188E1;1.047039986E1;9.606399536E0;-6.912199974E0
2.418647500E1;1.033819962E1;1.102059937E1;-1.837599993E0
2.420633125E1;8.424200058E0;1.223379993E1;-1.619499922E0
2.422617969E1;6.341300011E0;1.288630009E1;-2.359499931E0
2.424603281E1;5.974499702E0;1.236819935E1;-1.445299983E0
2.426588594E1;7.066899776E0;1.257209969E1;-1.586899996E0
2.428573750E1;8.868700027E0;1.262349987E1;-1.290099978E0
2.430559062E1;1.252979946E1;1.257569981E1;-1.919499993E0
2.432544219E1;1.339899921E1;1.138280010E1;-2.019799948E0
2.434529531E1;1.385449982E1;5.657399654E0;-1.804699898E0
2.436514844E1;1.731879997E1;-1.149459934E1;1.033999994E-1
2.438500156E1;1.183349991E1;-4.498699951E1;1.990899920E0
2.440485313E1;-2.114419937E1;-6.936270142E1;-1.384999901E-1
2.442470625E1;-1.256649971E1;-3.395309830E1;-1.699860001E1
2.444455938E1;-1.516199946E0;-5.422999859E0;-1.478709984E1
2.446441094E1;-1.864999980E-1;8.272999525E-1;-4.632199764E0
2.448426406E1;-3.691900015E0;2.196199894E0;3.129999876E0
2.450411719E1;-6.130799770E0;4.500400066E0;9.222899437E0
2.452397031E1;-5.616299629E0;8.158900261E0;9.041199684E0
2.454382188E1;-3.865299940E0;1.225649929E1;8.996899605E0
2.456367500E1;-3.179399967E0;1.375109959E1;8.229399681E0
2.458352812E1;-3.095399857E0;1.500990009E1;8.248799324E0
2.460337969E1;-3.437299967E0;1.534759998E1;9.165299416E0
2.462323281E1;-3.468699932E0;1.460719967E1;-7.980999947E-1
2.464308594E1;9.766999483E-1;7.656499863E0;-1.496799946E1
2.466293750E1;7.561599731E0;2.621700048E0;-1.667659950E1
2.468279063E1;1.091009998E1;6.765499592E0;2.291069984E1
2.470264219E1;2.267600060E0;2.871399879E0;8.555399895E0
2.472249531E1;-2.379400015E0;1.550499916E0;1.395969963E1
2.474234844E1;-8.636199951E0;-2.793200016E0;1.315089989E1
2.476220000E1;-1.406429958E1;-1.261429977E1;1.455849934E1
2.478205312E1;-1.002950001E1;-2.614189911E1;7.392499924E0
2.480190625E1;-6.868000031E0;-3.221149826E1;6.599999905E0
2.482175938E1;-1.890399933E0;-2.292539978E1;4.549699783E0
2.484161094E1;4.179299831E0;-1.648049927E1;1.126789951E1
2.486146406E1;1.472129917E1;-1.249930000E1;-6.903100014E0
2.488131719E1;1.628299904E1;-3.554899931E0;-1.573919964E1
2.490117031E1;1.006509972E1;-9.362999797E-1;-1.481989956E1
2.492102344E1;7.948299885E0;1.387099981E0;-6.684199810E0
2.494087500E1;1.071899986E1;8.521599770E0;-4.245399952E0
2.496072656E1;1.055849934E1;1.074349976E1;-1.662599921E0
2.498057969E1;6.568099976E0;1.305369949E1;-3.225999773E-1
2.500043281E1;4.999599934E0;1.349389935E1;-9.012999535E-1
2.502028438E1;6.287799835E0;1.254129982E1;7.096999884E-1
2.504013750E1;7.513199806E0;1.264680004E1;-7.052999735E-1
2.505999062E1;1.163359928E1;1.381689930E1;-4.032999873E-1
2.507984375E1;1.717409897E1;1.305499935E1;-2.536999881E-1
2.509969531E1;1.755099869E1;7.364399910E0;-7.184000015E-1
2.511954844E1;2.139849854E1;-1.545799971E0;3.375299931E0
2.513940000E1;1.813479996E1;-1.470889950E1;1.166299939E0
2.515925469E1;4.808799744E0;-4.161529922E1;-1.421879959E1
2.517910625E1;-1.979999924E1;-6.925129700E1;-5.692699909E0
2.519895938E1;-1.600250053E1;-3.758950043E1;2.384999990E-1
2.521881094E1;-4.023900032E0;-7.596599579E0;-1.770399928E0
2.523866406E1;1.242299914E0;3.780799866E0;-2.075199842E0
2.525851719E1;7.889999747E-1;5.913499832E0;1.283800006E0
2.527837031E1;-4.641900063E0;6.267699718E0;3.330999851E0
2.529822188E1;-6.486999989E0;8.603499413E0;5.743999958E0
2.531807500E1;-6.484399796E0;1.037689972E1;1.029399967E1
2.533792812E1;-5.607599735E0;1.242169952E1;1.335869980E1
2.535777969E1;-4.550199986E0;1.366249943E1;1.355659962E1
2.537763281E1;-2.742899895E0;1.552439976E1;9.479700089E0
2.539748594E1;-1.630899906E0;1.634659958E1;-1.014589977E1
2.541733906E1;2.610999823E0;5.433300018E0;-2.094789886E1
2.543719063E1;7.191699982E0;-1.237399936E0;-1.443709946E1
2.545704375E1;1.220849991E1;4.581299782E0;2.780200005E1
2.547689688E1;2.110100031E0;3.222100019E0;8.849100113E0
2.549674844E1;-5.202499866E0;-1.263599992E0;1.224849987E1
2.551660156E1;-1.788489914E1;-1.863949966E1;1.393999934E0
2.553645469E1;-1.872529984E1;-1.507219982E1;9.463999748E0
2.555631562E1;-1.035949993E1;-1.647150040E1;6.091399670E0
2.557615938E1;-4.811500072E0;-1.459099960E1;7.008100033E0
2.559601250E1;-1.310000010E-2;-1.253909969E1;8.396299362E0
2.561586406E1;7.902899742E0;-1.631970024E1;2.565199852E0
2.563571719E1;1.449790001E1;-1.762639999E1;-1.853699923E0
2.565557031E1;1.825049973E1;-1.216139984E1;3.783900023E0
2.567542344E1;1.253219986E1;-8.642099380E0;-5.390199661E0
2.569527344E1;8.331799507E0;-9.908999801E-1;-4.022909927E1
2.571512813E1;1.151459980E1;5.947999954E0;-7.182499886E0
2.573497969E1;1.108939934E1;9.733399391E0;2.991999984E-1
2.575483281E1;8.862099648E0;1.256139946E1;1.507000029E-1
2.577468594E1;6.290199757E0;1.382359982E1;-1.429499984E0
2.579453906E1;6.069699764E0;1.361380005E1;-7.012999654E-1
2.581439219E1;7.334399700E0;1.379879951E1;-1.272499919E0
2.583424375E1;7.804100037E0;1.278669930E1;-1.009899974E0
2.585409688E1;1.058699989E1;1.208459949E1;-1.430699944E0
2.587394844E1;1.232759953E1;1.145449924E1;-1.904799938E0
2.589380156E1;1.088630009E1;6.870800018E0;-1.253700018E0
2.591365469E1;1.197690010E1;-4.828399658E0;8.956999779E-1
2.593350781E1;8.822500229E0;-4.071019745E1;-1.916999936E0
2.595335938E1;-1.566779995E1;-6.903720093E1;-1.234879971E1
2.597321250E1;-9.211799622E0;-3.277849960E1;-1.122159958E1
2.599306563E1;-3.540199995E0;-8.331199646E0;-4.615999699E0
2.601291719E1;-2.554399967E0;1.360999942E-1;3.754400015E0
2.603277031E1;-1.364300013E0;3.185099840E0;7.509599686E0
2.605262344E1;-4.562399864E0;4.515299797E0;9.868499756E0
2.607247500E1;-5.224299908E0;7.719399929E0;7.927299976E0
2.609232656E1;-3.722299814E0;1.142189980E1;5.830800056E0
2.611218125E1;-2.000000000E0;1.306279945E1;5.374499798E0
2.613203281E1;-1.193199992E0;1.318120003E1;9.331899643E0
2.615188594E1;1.130999997E-1;1.376079941E1;1.372889996E1
2.617173906E1;9.842999578E-1;1.372340012E1;2.147199869E0
2.619159375E1;6.003799915E0;5.977599621E0;-2.688169861E1
2.621144375E1;6.628200054E0;4.829899788E0;1.031999961E-1
2.623129688E1;5.835199833E0;5.705599785E0;9.762000084E0
2.625114844E1;1.585299969E0;3.924199820E0;7.335899830E0
2.627100312E1;-7.134000063E-1;1.900299907E0;9.705399513E0
2.629085469E1;-1.167899990E1;-1.280819988E1;5.195699692E0
2.631070781E1;-1.698329926E1;-1.444679928E1;2.973799944E0
2.633056094E1;-1.141370010E1;-2.289189911E1;4.025999904E-1
2.635041250E1;-6.665099621E0;-2.085659981E1;7.633599758E0
2.637026563E1;-2.544399977E0;-1.062430000E1;8.924599648E0
2.639011719E1;3.149099827E0;-9.456199646E0;7.244699955E0
2.640997031E1;8.861499786E0;-1.737179947E1;1.181669998E1
2.642984062E1;1.427740002E1;-1.462229919E1;-1.719499946E0
2.644968438E1;1.586269951E1;-7.397099972E0;-1.544449997E1
2.646952812E1;1.162969971E1;-9.050999880E-1;-3.819809723E1
2.648938125E1;1.034719944E1;2.822399855E0;-1.504799962E0
2.650923281E1;1.032979965E1;1.000509930E1;2.307999879E-1
2.652908594E1;1.120549965E1;1.273849964E1;-1.229999959E-2
2.654893906E1;7.642399788E0;1.350990009E1;-4.039999843E-1
2.656879063E1;7.459300041E0;1.353709984E1;-4.570999742E-1
2.658864375E1;8.883199692E0;1.341349983E1;-3.458999991E-1
2.660850625E1;1.257459927E1;1.370399952E1;8.429999650E-2
2.662835000E1;1.373789978E1;1.307429981E1;-1.250699997E0
2.664820156E1;1.099699974E1;1.024720001E1;-1.536599994E0
2.666805469E1;9.601599693E0;6.212699890E0;-1.392899990E0
2.668790625E1;1.152260017E1;-4.540699959E0;2.300400019E0
2.670775938E1;1.079220009E1;-3.709449768E1;-1.752000004E-1
2.672761250E1;-1.556959915E1;-6.833639526E1;-8.739600182E0
2.674746562E1;-1.270339966E1;-3.759690094E1;-9.254499435E0
2.676731719E1;-2.380499840E0;-8.217999458E0;-4.534599781E0
2.678717031E1;-2.381999940E-1;1.898999959E-1;-4.919999838E-2
2.680702344E1;-3.388700008E0;-3.432999849E-1;1.773199916E0
2.682687500E1;-7.104399681E0;1.460699916E0;6.927199841E0
2.684672813E1;-7.057600021E0;6.512099743E0;7.216599941E0
2.686658125E1;-4.332099915E0;1.084229946E1;5.315599918E0
2.688643281E1;-2.401999950E0;1.336089993E1;4.606899738E0
2.690628594E1;-2.060299873E0;1.421099949E1;5.440000057E0
2.692613906E1;-2.434099913E0;1.516089916E1;5.860699654E0
2.694599219E1;1.124999970E-1;1.515089989E1;3.553099871E0
2.696584688E1;4.704400063E0;1.028559971E1;-5.467999935E0
2.698569688E1;7.431699753E0;3.765599966E0;-9.935500145E0
2.700555000E1;9.024899483E0;4.385399818E0;7.971999645E0
2.702540156E1;6.738899708E0;7.184499741E0;9.302399635E0
2.704525469E1;-2.395900011E0;7.303599834E0;4.208499908E0
2.706510781E1;-1.089699984E0;3.822299957E0;1.337119961E1
2.708496094E1;-6.951999664E0;-2.642289925E1;1.088070011E1
2.710481250E1;-1.748550034E1;-2.646439934E1;-2.845999956E0
2.712466406E1;-1.110309982E1;-1.219810009E1;7.423999906E-1
2.714451719E1;-8.011099815E0;-1.275509930E1;7.483599663E0
2.716437031E1;-3.723999977E0;-1.084140015E1;8.619799614E0
2.718422344E1;8.003999591E-1;-1.165979958E1;1.173269939E1
2.720407656E1;9.506999969E0;-1.418629932E1;-1.926899910E0
2.722392812E1;1.187349987E1;-1.106289959E1;-6.730299950E0
2.724378125E1;9.692500114E0;-6.994199753E0;-1.001239967E1
2.726363281E1;9.561999321E0;-1.639099956E0;-1.151299953E1
2.728348594E1;1.052419949E1;2.841599941E0;-5.237400055E0
2.730333906E1;1.091650009E1;7.854599953E0;-3.584999800E0
2.732319219E1;1.282529926E1;1.042430019E1;-3.428499937E0
2.734304531E1;1.241949940E1;1.094149971E1;-1.476699948E0
2.736289688E1;9.320499420E0;1.349009991E1;-3.352299929E0
2.738274844E1;7.833299637E0;1.255099964E1;-1.119099975E0
2.740260313E1;8.073299408E0;1.191889954E1;-1.198899984E0
2.742245469E1;1.091699982E1;1.211810017E1;-5.665999651E-1
2.744230781E1;1.375079918E1;1.059009933E1;-3.262999952E-1
2.746216094E1;1.498749924E1;5.117799759E0;3.400999904E-1
2.748201250E1;1.448119926E1;-8.135099411E0;2.152899981E0
2.750187344E1;5.938999653E0;-3.534309769E1;1.059100032E0
2.752171719E1;-1.625799942E1;-6.210449982E1;1.264999956E-1
2.754157031E1;-1.235979939E1;-3.688359833E1;-1.328299999E1
2.756142344E1;-4.968499660E0;-8.543600082E0;-1.287249947E1
2.758127656E1;-2.254299879E0;-1.417199969E0;-2.132200003E0
2.760112969E1;-1.610000014E0;2.979999967E-2;4.120100021E0
2.762098125E1;-2.304299831E0;2.800299883E0;7.722099781E0
2.764083438E1;-5.365999699E0;6.458799839E0;6.922499657E0
2.766068594E1;-5.582599640E0;9.350500107E0;5.549699783E0
2.768054688E1;-2.511999846E0;1.323600006E1;7.169899940E0
2.770039219E1;-1.209900022E0;1.487759972E1;1.069939995E1
2.772024531E1;-4.749999940E-1;1.616989899E1;1.179189968E1
2.774009688E1;-1.126500010E0;1.522749996E1;2.785300016E0
2.775995000E1;1.919099927E0;1.297919941E1;-1.184429932E1
2.777980469E1;7.213099957E0;3.997499943E0;-1.801919937E1
2.779965469E1;9.773099899E0;4.030099869E0;3.206599951E0
2.781950781E1;7.393199921E0;6.218599796E0;8.407699585E0
2.783936094E1;9.843999743E-1;3.143499851E0;1.221360016E1
2.785921250E1;-2.847199917E0;-1.714399934E0;1.478129959E1
2.787906875E1;-1.738380051E1;-2.211849976E1;1.007469940E1
2.789891875E1;-2.009869957E1;-2.109399986E1;7.926799774E0
2.791877031E1;-1.373899937E1;-2.296319962E1;1.841099977E0
2.793862344E1;-5.134399891E0;-1.275489998E1;3.105999947E0
2.795847656E1;-2.618000031E0;-9.869599342E0;3.187999964E0
2.797832812E1;6.065499783E0;-1.126779938E1;7.705499649E0
2.799818125E1;1.104930019E1;-1.447629929E1;3.513000011E-1
2.801803438E1;1.103819942E1;-1.148789978E1;-1.582099915E0
2.803788594E1;9.600799561E0;-6.512599945E0;-1.083360004E1
2.805773906E1;8.526700020E0;-9.043999910E-1;-2.226079941E1
2.807759219E1;8.173600197E0;3.478600025E0;-6.000000000E0
2.809744531E1;9.897799492E0;9.124799728E0;-2.242699862E0
2.811729688E1;1.130519962E1;1.154949951E1;-6.146000028E-1
2.813715000E1;8.534999847E0;1.256569958E1;-2.355700016E0
2.815700313E1;6.448299885E0;1.308069992E1;-2.271299839E0
2.817685469E1;8.685899734E0;1.283409977E1;-1.821999997E-1
2.819670781E1;1.395069981E1;1.301209927E1;8.319999576E-1
2.821656094E1;1.686680031E1;1.103579998E1;-9.979999810E-2
2.823641250E1;1.669739914E1;4.377799988E0;-1.247200012E0
2.825626562E1;1.776779938E1;-3.228799820E0;-7.422999740E-1
2.827611875E1;1.043470001E1;-1.632119942E1;6.679999828E-1
2.829597188E1;-1.298699975E0;-3.168260002E1;-5.111700058E0
2.831582500E1;-1.935369873E1;-5.520800018E1;-1.062519932E1
2.833567656E1;-2.114900017E1;-3.572789764E1;-4.419899940E0
2.835552969E1;-9.566499710E0;-6.514899731E0;-3.222399950E0
2.837538125E1;-2.631099939E0;1.346599936E0;1.166100025E0
2.839523281E1;-3.438999951E-1;3.597399950E0;6.314399719E0
2.841508750E1;-5.115999579E-1;5.371799946E0;8.390699387E0
2.843493906E1;-2.152400017E0;7.869199753E0;7.767899990E0
2.845479219E1;-4.128200054E0;1.092780018E1;7.076699734E0
2.847464375E1;-2.735100031E0;1.426579952E1;6.438499928E0
2.849449844E1;-8.768000007E-1;1.581309986E1;7.749099731E0
2.851435000E1;-2.071999907E-1;1.513339996E1;1.295769978E1
2.853420312E1;1.488000005E-1;1.420029926E1;7.153299809E0
2.855405469E1;8.136599541E0;5.784499645E0;-2.613909912E1
2.857390781E1;9.904099464E0;1.342000008E0;-1.091259956E1
2.859376719E1;7.258399963E0;3.680599928E0;1.241249943E1
2.861361250E1;-2.645400047E0;4.147399902E0;8.185299873E0
2.863346563E1;3.689999878E-2;1.367499948E0;1.292309952E1
2.865331875E1;-6.771399975E0;-1.450209999E1;1.081919956E1
2.867317188E1;-1.820179939E1;-1.928960037E1;2.165400028E0
2.869302500E1;-1.476869965E1;-1.420039940E1;5.952000022E-1
2.871287656E1;-1.063749981E1;-1.634959984E1;3.871299982E0
2.873272969E1;-4.620500088E0;-9.796199799E0;4.033299923E0
2.875258281E1;3.217399836E0;-8.071800232E0;6.961799622E0
2.877244062E1;8.596699715E0;-1.281250000E1;1.605999947E0
2.879228594E1;9.664699554E0;-1.350449944E1;-1.093199968E0
2.881214062E1;9.423600197E0;-9.607199669E0;1.346599936E0
2.883199375E1;8.800999641E0;-3.530299902E0;-9.495699883E0
2.885184531E1;9.122599602E0;2.189499855E0;-1.762010002E1
2.887169844E1;1.099419975E1;6.807899952E0;-1.171350002E1
2.889155156E1;1.423110008E1;1.020839977E1;-4.566599846E0
2.891140625E1;1.203619957E1;1.105079937E1;3.167999983E-1
2.893126250E1;7.258599758E0;1.094279957E1;-1.431599975E0
2.895110938E1;6.379299641E0;1.185669994E1;-1.723699927E0
2.897096250E1;8.107500076E0;1.293089962E1;-1.008700013E0
2.899081406E1;1.385979939E1;1.454909992E1;5.810999870E-1
2.901066562E1;1.266399956E1;1.264169979E1;-3.576999903E-1
2.903052031E1;8.707900047E0;7.775599957E0;-1.020900011E0
2.905037188E1;1.140749931E1;-1.106199980E0;-3.303000033E-1
2.907022500E1;1.197340012E1;-3.966769791E1;9.284999967E-1
2.909007812E1;-1.608819962E1;-6.910150146E1;-1.125399971E1
2.910992969E1;-1.040799999E1;-3.306169891E1;-6.976500034E0
2.912979063E1;-1.827499986E0;-4.391799927E0;-2.088700056E0
2.914963594E1;-2.715399981E0;1.954999924E0;-1.748899937E0
2.916949531E1;-3.978799820E0;1.689899921E0;3.873799801E0
2.918934063E1;-5.575999737E0;3.077100039E0;7.968799591E0
2.920919375E1;-5.279799938E0;7.065399647E0;7.291399956E0
2.922904531E1;-4.778399944E0;1.116379929E1;6.780799866E0
2.924889844E1;-2.482300043E0;1.480089951E1;4.675099850E0
2.926875000E1;-7.141999602E-1;1.587849998E1;6.838699818E0
2.928860469E1;-9.924999475E-1;1.501559925E1;1.016819954E1
2.930845625E1;-2.114099979E0;1.479809952E1;3.309999943E0
2.932830938E1;2.155200005E0;1.126229954E1;-1.813800049E1
2.934816094E1;6.179100037E0;3.320299864E0;-1.521929932E1
2.936801406E1;7.611299992E0;2.161700010E0;5.942999721E-1
2.938786719E1;4.165499687E0;4.450799942E0;7.532399654E0
2.940771875E1;8.597999811E-1;2.809099913E0;1.485470009E1
2.942757188E1;-1.750000000E0;-4.581500053E0;1.995289993E1
2.944742500E1;-1.638360023E1;-2.798999977E1;8.038499832E0
2.946728438E1;-1.492849922E1;-1.644899940E1;3.782799959E0
2.948712969E1;-1.220720005E1;-1.683580017E1;8.305999637E-1
2.950698281E1;-7.844299793E0;-1.434379959E1;2.153499842E0
2.952683438E1;-1.157099962E0;-1.108749962E1;4.960199833E0
2.954668750E1;9.128499985E0;-1.422979927E1;1.817199898E1
2.956654063E1;1.354799938E1;-1.230630016E1;-5.424099922E0
2.958639219E1;1.264319992E1;-8.430899620E0;-3.255999804E0
2.960624531E1;1.130000019E1;-3.562399864E0;-8.769700050E0
2.962609844E1;1.011810017E1;1.236999989E0;-1.983269882E1
2.964595156E1;9.241799355E0;6.293799877E0;-8.846099854E0
2.966580469E1;1.007699966E1;9.941800117E0;-1.951599956E0
2.968565625E1;1.166219997E1;1.117679977E1;-5.248000026E-1
2.970550938E1;8.467800140E0;1.244429970E1;-3.060299873E0
2.972536094E1;7.882899761E0;1.255200005E1;-8.283999562E-1
2.974521406E1;1.079549980E1;1.294509983E1;-1.196599960E0
2.976506563E1;1.480200005E1;1.311039925E1;-1.451699972E0
2.978491875E1;1.678149986E1;1.197139931E1;-1.254999995E0
2.980477188E1;1.419549942E1;6.298799992E0;-1.319299936E0
2.982462500E1;1.717819977E1;-3.913100004E0;-6.064000130E-1
2.984447813E1;1.491239929E1;-3.052449989E1;7.068999767E0
2.986433281E1;-7.756399632E0;-6.266439819E1;-3.202999830E0
2.988418281E1;-2.463349915E1;-5.353779984E1;-9.678299904E0
2.990403594E1;-1.219379997E1;-1.507849979E1;-9.862099648E0
2.992388906E1;-5.953899860E0;-1.265799999E0;1.426899910E0
2.994374531E1;-2.858299971E0;1.728699923E0;6.415899754E0
2.996359375E1;-6.129999757E-1;3.611299992E0;9.222000122E0
2.998344688E1;-1.734699965E0;6.836799622E0;7.942999840E0
3.000329844E1;-5.229599953E0;1.057779980E1;7.206199646E0
3.002315312E1;-4.038199902E0;1.303999996E1;6.482100010E0
3.004300313E1;-1.740700006E0;1.462220001E1;7.577399731E0
3.006285625E1;-1.728999972E0;1.458619976E1;8.940699577E0
3.008270781E1;-1.665899992E0;1.400409985E1;3.121399879E0
3.010256094E1;3.561199903E0;1.267350006E1;-1.865799904E1
3.012241406E1;8.001699448E0;3.962799788E0;-2.132069969E1
3.014226719E1;9.568900108E0;2.699800014E0;3.171000004E0
3.016211875E1;4.869699955E0;5.502599716E0;1.017339993E1
3.018197500E1;-3.950699806E0;6.742199898E0;9.419300079E0
3.020182969E1;-1.327399969E0;3.246299982E0;1.597989941E1
3.022167812E1;-6.580499649E0;-1.155949974E1;1.541930008E1
3.024153125E1;-2.041699982E1;-2.940390015E1;1.443169975E1
3.026138281E1;-1.491599941E1;-2.030679893E1;5.537799835E0
3.028123438E1;-1.024090004E1;-1.778769875E1;1.435599923E0
3.030108750E1;-4.950299740E0;-1.216169930E1;9.142999649E-1
3.032094063E1;4.585899830E0;-1.011789989E1;5.163000107E0
3.034079375E1;1.147130013E1;-1.157709980E1;-7.978999615E-1
3.036064531E1;1.171099949E1;-9.081299782E0;-1.737499952E0
3.038049844E1;1.139319992E1;-4.068399906E0;-2.006999969E0
3.040035156E1;9.845799446E0;5.169999972E-2;-6.836199760E0
3.042020312E1;7.899699688E0;2.080199957E0;-8.374400139E0
3.044005625E1;1.093379974E1;7.168999672E0;-1.485019970E1
3.045990938E1;1.254220009E1;1.024849987E1;-9.459699631E0
3.047976250E1;1.056649971E1;1.177499962E1;5.806999803E-1
3.049961406E1;7.014599800E0;1.262930012E1;-1.468799949E0
3.051946719E1;7.077199936E0;1.190969944E1;-1.657099962E0
3.053932031E1;7.359799862E0;1.164029980E1;-1.721399903E0
3.055917188E1;8.673199654E0;1.173259926E1;-8.375999928E-1
3.057902656E1;1.125689983E1;1.006709957E1;-8.887999654E-1
3.059887813E1;1.451489925E1;3.715699911E0;2.710999846E-1
3.061873125E1;1.785299873E1;-9.138400078E0;6.723999977E0
3.063858281E1;1.372979927E1;-2.363769913E1;-1.855499983E0
3.065843594E1;-5.834399700E0;-5.317749786E1;-1.612100029E1
3.067828906E1;-1.904100037E1;-5.348299789E1;-2.667799950E0
3.069814062E1;-9.928999901E0;-1.979119873E1;-2.537099838E0
3.071799531E1;2.884999812E-1;-2.598399878E0;-1.594499946E0
3.073784688E1;1.041999936E0;2.789099932E0;1.864899993E0
3.075769844E1;5.034999847E-1;5.087100029E0;4.417500019E0
3.077755156E1;-3.747900009E0;6.111799717E0;3.486999989E0
3.079740469E1;-6.962100029E0;8.515500069E0;3.314699888E0
3.081725625E1;-6.324399948E0;1.131879997E1;6.004799843E0
3.083710938E1;-4.637300014E0;1.362959957E1;9.405099869E0
3.085696250E1;-4.472700119E0;1.471569920E1;1.086590004E1
3.087681406E1;-3.592399836E0;1.476859951E1;1.074359989E1
3.089666719E1;-5.338999629E-1;1.375419998E1;-1.475489998E1
3.091652188E1;6.139199734E0;4.422599792E0;-1.952619934E1
3.093637344E1;9.616700172E0;4.675499916E0;5.324999809E0
3.095622500E1;4.072499752E0;7.423599720E0;9.002299309E0
3.097607812E1;-4.008399963E0;6.607299805E0;9.584099770E0
3.099593125E1;-3.640899897E0;1.432199955E0;1.457639980E1
3.101578438E1;-9.972000122E0;-1.978599930E1;1.640709877E1
3.103563594E1;-1.774829865E1;-2.306550026E1;1.396309948E1
3.105548906E1;-1.088210011E1;-1.483780003E1;-1.005800009E0
3.107534063E1;-5.362299919E0;-1.561209965E1;1.766600013E0
3.109519375E1;1.996699929E0;-1.510680008E1;7.626399994E0
3.111504688E1;9.173799515E0;-1.602980042E1;5.060499668E0
3.113489844E1;1.471849918E1;-1.373069954E1;4.816999733E-1
3.115475156E1;1.287949944E1;-8.967000008E0;-2.396399975E0
3.117460312E1;7.286599636E0;-4.426000118E0;-1.151410007E1
3.119445625E1;7.023999691E0;4.992999732E-1;-1.943420029E1
3.121430938E1;8.303199768E0;5.034499645E0;-5.885799885E0
3.123416250E1;8.934899330E0;9.328599930E0;-1.511099935E0
3.125401562E1;1.274790001E1;1.185339928E1;-2.729300022E0
3.127386719E1;1.185309982E1;1.366459942E1;-2.601199865E0
3.129372031E1;9.181099892E0;1.372669983E1;-1.791599989E0
3.131357344E1;9.047999382E0;1.349669933E1;-1.677299976E0
3.133342500E1;1.083860016E1;1.336949921E1;-1.314999938E0
3.135327813E1;1.169569969E1;1.193449974E1;-1.427999973E0
3.137313125E1;1.154139996E1;9.875599861E0;-1.472999930E0
3.139298281E1;1.262039948E1;4.650899887E0;-6.342999935E-1
3.141284062E1;1.490349960E1;-1.260499954E1;1.772699952E0
3.143269375E1;8.431200027E0;-4.323299789E1;-1.089800000E0
3.145254688E1;-2.050779915E1;-6.922339630E1;6.388999820E-1
3.147239375E1;-9.294300079E0;-2.850499916E1;-1.304449940E1
3.149224688E1;-6.018999815E-1;-4.835199833E0;-8.227899551E0
3.151209844E1;1.411999911E-1;-6.875000000E-1;3.888999820E-1
3.153195156E1;-2.880100012E0;-1.011699915E0;6.284999847E0
3.155180469E1;-6.216399670E0;9.437999725E-1;7.794799805E0
3.157165625E1;-7.803599834E0;6.630599976E0;4.389199734E0
3.159150938E1;-7.646599770E0;1.094929981E1;5.100500107E0
3.161136250E1;-4.918299675E0;1.338429928E1;7.079699993E0
3.163121563E1;-2.413599968E0;1.482439995E1;7.919199944E0
3.165106719E1;-2.893800020E0;1.627680016E1;4.064099789E0
3.167092031E1;-3.162599802E0;1.576809978E1;1.350799918E0
3.169077344E1;-6.409999728E-2;1.151279926E1;-3.516899824E0
3.171062656E1;6.574699879E0;3.389999866E0;-1.966909981E1
3.173047812E1;1.245429993E1;1.999300003E0;1.118289948E1
3.175033125E1;6.122299671E0;3.068300009E0;1.041769981E1
3.177018281E1;-2.399899960E0;1.535699964E0;1.292389965E1
3.179003594E1;-4.893599987E0;1.766799927E0;1.340789986E1
3.180988906E1;-1.120449924E1;-1.016829967E1;9.431099892E0
3.182974063E1;-2.004800034E1;-2.320209885E1;7.031299591E0
3.184959375E1;-1.490509987E1;-2.368820000E1;-3.782999814E-1
3.186944688E1;-6.500699997E0;-1.590949917E1;1.237399936E0
3.188930000E1;5.146999955E-1;-1.087899971E1;4.869400024E0
3.190915156E1;5.884599686E0;-1.431689930E1;5.041199684E0
3.192900469E1;8.019299507E0;-2.343779945E1;2.138220024E1
3.194885781E1;2.015270042E1;-1.952540016E1;-4.082399845E0
3.196871094E1;2.471179962E1;-3.946699858E0;-2.475259972E1
3.198856250E1;1.644509888E1;5.250199795E0;-3.371070099E1
3.200841563E1;7.826599598E0;5.159499645E0;1.696099997E0
3.202826875E1;9.058400154E0;1.013509941E1;4.565700054E0
3.204812656E1;9.926899910E0;1.461399937E1;4.788099766E0
3.206797344E1;1.115979958E1;1.461459923E1;-1.710500002E0
3.208782656E1;1.164059925E1;1.446149921E1;-1.516399980E0
3.210767812E1;1.244759941E1;1.413549995E1;-1.054499984E0
3.212753125E1;1.543330002E1;1.423329926E1;-1.280099988E0
3.214738438E1;1.506379986E1;1.160009956E1;-3.808300018E0
3.216723750E1;9.867599487E0;8.593500137E0;-2.188199997E0
3.218708906E1;9.628199577E0;4.657799721E0;-1.484899998E0
3.220694219E1;1.426319981E1;-1.322889996E1;7.091199875E0
3.222679531E1;7.765899658E0;-4.991589737E1;-7.522999763E0
3.224664688E1;-2.477260017E1;-6.933429718E1;6.131899834E0
3.226650000E1;-7.261099815E0;-3.286569977E1;-4.740900040E0
3.228635313E1;1.982199907E0;-5.477600098E0;-1.256820011E1
3.230620625E1;4.711999893E-1;6.535999775E-1;-7.875599861E0
3.232605625E1;-3.760399818E0;3.808999956E-1;2.707299948E0
3.234591094E1;-5.541800022E0;1.782599926E0;8.558499336E0
3.236576250E1;-7.006799698E0;5.566899776E0;1.001939964E1
3.238561562E1;-6.902699947E0;9.636799812E0;8.227399826E0
3.240546875E1;-4.552700043E0;1.320769978E1;6.301899910E0
3.242532188E1;-3.017799854E0;1.489279938E1;6.199399948E0
3.244517344E1;-4.708199978E0;1.622029877E1;5.710999966E0
3.246502656E1;-5.822099686E0;1.570219994E1;1.980399966E0
3.248487969E1;9.456999898E-1;1.240339947E1;-8.478799820E0
3.250473125E1;1.011310005E1;5.484499931E0;-1.571019936E1
3.252458438E1;8.430899620E0;6.143699646E0;1.861429977E1
3.254443594E1;-1.910999894E0;5.371999741E0;5.506199837E0
3.256429063E1;-1.937099934E0;3.643999815E0;1.137599945E1
3.258414062E1;-7.477399826E0;-4.447499752E0;1.507520008E1
3.260399531E1;-1.542280006E1;-1.814679909E1;8.281399727E0
3.262384688E1;-1.497499943E1;-2.176529884E1;1.625800014E0
3.264370000E1;-1.151559925E1;-2.166020012E1;2.018100023E0
3.266355312E1;-2.543799877E0;-1.514869976E1;4.111400127E0
3.268340469E1;4.147299767E0;-1.258069992E1;3.038100004E0
3.270325781E1;9.732699394E0;-1.589849949E1;1.534200001E1
3.272311094E1;1.888920021E1;-1.458710003E1;-1.908999979E-1
3.274296406E1;1.489249992E1;-1.007539940E1;-7.987499714E0
3.276281562E1;1.249639988E1;-2.088000059E0;-1.756970024E1
3.278266719E1;1.216199970E1;7.882899761E0;-2.458039856E1
3.280252031E1;1.006689930E1;8.044499397E0;-7.145999670E-1
3.282237344E1;9.921400070E0;1.165429974E1;3.149299860E0
3.284222656E1;7.975599766E0;1.441899967E1;2.389400005E0
3.286207813E1;6.500099659E0;1.370720005E1;-2.069399834E0
3.288194219E1;7.417699814E0;1.341219997E1;-2.158499956E0
3.290178438E1;1.013829994E1;1.330179977E1;-1.193699956E0
3.292163594E1;1.437339973E1;1.300519943E1;3.925999999E-1
3.294148906E1;1.398460007E1;1.149129963E1;-1.987399936E0
3.296134219E1;1.029109955E1;8.306599617E0;-2.152400017E0
3.298119531E1;1.229319954E1;8.938999772E-1;-1.630599976E0
3.300104688E1;1.550419998E1;-3.263669968E1;-3.314100027E0
3.302090000E1;-8.901599884E0;-6.821540070E1;-1.169539928E1
3.304075312E1;-1.955139923E1;-5.389949799E1;2.428499937E0
3.306060625E1;-5.028299809E0;-1.529809952E1;-2.365599871E0
3.308045781E1;-5.278199673E0;-3.441099882E0;-2.280299902E0
3.310031094E1;-6.144999981E0;8.578000069E-1;2.914599895E0
3.312016250E1;-6.373300076E0;5.102600098E0;9.249699593E0
3.314001563E1;-6.393799782E0;9.682999611E0;6.395999908E0
3.315986875E1;-6.734399796E0;1.243979931E1;7.477999687E0
3.317972031E1;-5.716599941E0;1.392299938E1;8.190999985E0
3.319957344E1;-3.801899910E0;1.599779987E1;7.390599728E0
3.321942656E1;-3.871999979E0;1.605239868E1;4.458199978E0
3.323927969E1;-4.015599728E0;1.396859932E1;1.654299974E0
3.325913281E1;-6.229000092E-1;1.062639999E1;-3.303200006E0
3.327898438E1;6.142899990E0;4.418299675E0;-1.090460014E1
3.329883750E1;1.031939983E1;2.518399954E0;5.361799717E0
3.331869062E1;6.451399803E0;5.515199661E0;7.304199696E0
3.333854219E1;-6.961999536E-1;3.855599880E0;8.050499916E0
3.335839531E1;-7.621599674E0;-9.406700134E0;7.372099876E0
3.337824844E1;-1.689459991E1;-1.767869949E1;9.685199738E0
3.339810000E1;-1.758029938E1;-2.064509964E1;7.657099724E0
3.341795313E1;-1.221430016E1;-1.674689865E1;-6.624399662E0
3.343780625E1;-6.834399700E0;-8.653999329E0;-1.118999943E-1
3.345765938E1;-1.704699993E0;-9.625199318E0;3.022899866E0
3.347751094E1;5.443699837E0;-1.679999924E1;5.338500023E0
3.349736406E1;1.167259979E1;-2.378429985E1;1.175319958E1
3.351721719E1;1.327639961E1;-1.953209877E1;1.258499980E0
3.353706875E1;1.597929955E1;-6.417500019E0;-1.494779968E1
3.355692188E1;1.402040005E1;6.298999786E0;-3.437070084E1
3.357678438E1;1.217899990E1;8.155900002E0;-2.507200003E0
3.359662656E1;1.340989971E1;9.146900177E0;4.869100094E0
3.361647969E1;1.063499928E1;1.178009987E1;9.106399536E0
3.363633438E1;1.330449963E1;1.532819939E1;-3.793999851E-1
3.365618594E1;1.457989979E1;1.561249924E1;-1.725099921E0
3.367603750E1;1.401369953E1;1.472959995E1;-4.738299847E0
3.369589063E1;1.411549950E1;1.392229939E1;-4.221600056E0
3.371574375E1;1.148539925E1;1.035079956E1;-5.383899689E0
3.373559531E1;9.362599373E0;6.879699707E0;-2.312199831E0
3.375544844E1;1.260419941E1;8.594999909E-1;-5.245999694E-1
3.377530781E1;1.740609932E1;-2.307399940E1;6.320499897E0
3.379515312E1;1.986400008E0;-6.534469604E1;-1.073219967E1
3.381500469E1;-1.919249916E1;-6.721209717E1;-2.126499891E0
3.383485781E1;-3.756299973E0;-2.311989975E1;-5.222399712E0
3.385471094E1;-1.866799951E0;-4.764899731E0;-7.131999969E0
3.387456250E1;-2.984899998E0;-1.685199976E0;1.859299898E0
3.389441719E1;-6.213099957E0;1.130900025E0;9.049599648E0
3.391427031E1;-7.276199818E0;7.545699596E0;1.017409992E1
3.393412656E1;-6.617499828E0;1.199879932E1;1.195449924E1
3.395397500E1;-5.143099785E0;1.527449989E1;1.300089931E1
3.397382813E1;-4.098799706E0;1.772399902E1;1.184490013E1
3.399367969E1;-6.783699989E0;1.795699883E1;1.076910019E1
3.401353281E1;-1.161279964E1;1.687969971E1;-1.022699928E1
3.403339219E1;-7.686199665E0;1.462829971E1;-5.879499912E0
3.405323906E1;1.689899921E0;6.013899803E0;-9.064999580E0
3.407309062E1;2.810199976E0;2.279199839E0;-3.878000021E0
3.409294375E1;1.036329937E1;1.844399929E0;5.851199627E0
3.411279688E1;1.607100010E0;4.756700039E0;1.427359962E1
3.413264844E1;-3.921399832E0;1.478999972E0;1.244749928E1
3.415250156E1;-1.086629963E1;-5.678199768E0;1.734860039E1
3.417235469E1;-1.361129951E1;-1.402269936E1;1.869949913E1
3.419220625E1;-1.573219967E1;-2.209409904E1;4.947000027E0
3.421205938E1;-9.181900024E0;-2.130389977E1;5.000999928E0
3.423191250E1;-6.320999861E-1;-1.669859886E1;6.657299995E0
3.425176406E1;6.697199821E0;-1.820289993E1;5.752899647E0
3.427161719E1;1.150000000E1;-2.558249855E1;2.047579956E1
3.429147031E1;2.325510025E1;-2.430080032E1;-1.405499935E0
3.431132188E1;2.451179886E1;-1.056949997E1;-5.898799896E0
3.433117812E1;1.679389954E1;-3.115299940E0;-5.513209915E1
3.435103281E1;9.657299995E0;8.874999881E-1;-1.675469971E1
3.437088125E1;1.202460003E1;7.073099613E0;7.788599968E0
3.439073281E1;1.377479935E1;1.128849983E1;2.753799915E0
3.441058594E1;1.242140007E1;1.459739971E1;9.993000031E-1
3.443044531E1;1.147989941E1;1.575839996E1;-1.362299919E0
3.445029062E1;1.123799992E1;1.601560020E1;-1.826099992E0
3.447014375E1;1.156559944E1;1.468419933E1;-3.892099857E0
3.449000312E1;1.247519970E1;1.266899967E1;-2.515100002E0
3.450984844E1;1.377089977E1;9.420700073E0;-2.638000011E0
3.452970156E1;1.217239952E1;2.854599953E0;-2.283999920E0
3.454955469E1;9.459099770E0;-1.056499958E1;-1.193499923E0
3.456940625E1;7.299099922E0;-3.356879807E1;-9.077899933E0
3.458925938E1;-1.226739979E1;-6.789270020E1;-2.986999989E0
3.460911094E1;-1.330699921E1;-5.309249878E1;3.345199823E0
3.462896406E1;-2.006599903E0;-1.494389915E1;-1.888599992E0
3.464882344E1;1.194599986E0;1.043999940E-1;-3.028800011E0
3.466867031E1;1.594499946E0;6.163599968E0;2.756399870E0
3.468852188E1;-3.248699903E0;9.213899612E0;4.101599693E0
3.470837500E1;-6.802399635E0;1.054679966E1;8.188799858E0
3.472822812E1;-6.733799934E0;1.143340015E1;1.437919998E1
3.474807969E1;-5.917999744E0;1.358939934E1;1.688759995E1
3.476793281E1;-5.676399708E0;1.827719879E1;1.526900005E1
3.478778594E1;-8.707200050E0;1.644999886E1;1.084849930E1
3.480763906E1;-8.744500160E0;1.389260006E1;5.841199875E0
3.482749531E1;-7.895299911E0;9.035599709E0;-8.050299644E0
3.484734375E1;-1.390100002E0;6.523000002E-1;-2.403769875E1
3.486719688E1;4.856999874E0;-3.348500013E0;-9.951600075E0
3.488704844E1;6.622699738E0;3.642899990E0;2.290429878E1
3.490690156E1;-3.163899899E0;-1.920199990E0;1.274469948E1
3.492675469E1;-1.011639977E1;-8.571199417E0;9.828999519E0
3.494660625E1;-1.474160004E1;-8.747799873E0;1.249469948E1
3.496645938E1;-1.128170013E1;-1.163779926E1;8.927499771E0
3.498631250E1;-7.714900017E0;-1.822979927E1;7.083199978E0
3.500617344E1;-3.555099964E0;-1.711429977E1;6.556099892E0
3.502601719E1;4.681999981E-1;-1.747839928E1;3.813499928E0
3.504587031E1;7.295399666E0;-2.154669952E1;2.549799919E0
3.506572344E1;1.855290031E1;-2.357829857E1;3.937699795E0
3.508557500E1;1.887209892E1;-1.658370018E1;-9.440400124E0
3.510542812E1;1.071729946E1;-4.894299984E0;-4.215359879E1
3.512528125E1;9.060299873E0;4.213200092E0;-1.048890018E1
3.514513281E1;9.953899384E0;6.067100048E0;2.067999840E0
3.516498594E1;8.800999641E0;1.185309982E1;4.116799831E0
3.518483906E1;8.318799973E0;1.581539917E1;6.340199947E0
3.520469219E1;1.096840000E1;1.618369865E1;4.246999919E-1
3.522454375E1;1.159819984E1;1.567969990E1;-1.820899963E0
3.524439688E1;1.104080009E1;1.317389965E1;-2.532599926E0
3.526425000E1;1.203020000E1;1.132049942E1;-5.900899887E0
3.528410156E1;1.258159924E1;9.755599976E0;-4.764899731E0
3.530395469E1;1.157660007E1;6.325999737E0;-3.708699942E0
3.532380781E1;1.224199963E1;1.338599920E0;-1.775399923E0
3.534365938E1;1.224199963E1;-1.211149979E1;1.384699941E0
3.536351250E1;7.766999722E0;-3.336579895E1;-1.167499924E1
3.538336562E1;-1.732620049E1;-6.785649872E1;3.252999783E-1
3.540321719E1;-1.381999969E1;-4.950829697E1;4.528999805E0
3.542307500E1;9.926999807E-1;-1.354069996E1;-6.885299683E0
3.544292344E1;1.084800005E0;-1.592099905E0;-5.046599865E0
3.546277656E1;-2.850100040E0;1.727399945E0;3.285999894E-1
3.548262813E1;-5.540599823E0;5.478799820E0;5.921099663E0
3.550248125E1;-6.084799767E0;1.003969955E1;1.018190002E1
3.552233281E1;-5.312599659E0;1.271889973E1;1.332199955E1
3.554218594E1;-4.022500038E0;1.477779961E1;1.764410019E1
3.556203906E1;-3.553900003E0;1.661039925E1;1.588259983E1
3.558189219E1;-4.790899754E0;1.678829956E1;9.735300064E0
3.560174375E1;-4.408800125E0;1.554589939E1;-1.175309944E1
3.562159688E1;-1.301100016E0;6.936800003E0;-1.927589989E1
3.564144844E1;1.836299896E0;5.830000043E-1;-1.341619968E1
3.566130156E1;7.848199844E0;2.208699942E0;6.035099983E0
3.568115469E1;3.873199940E0;6.498099804E0;1.754080009E1
3.570100781E1;-2.068500042E0;2.556799889E0;1.417109966E1
3.572085938E1;-9.092499733E0;-1.580899954E0;1.369320011E1
3.574072031E1;-1.250099945E1;-6.430999756E0;1.783689880E1
3.576056406E1;-1.339839935E1;-1.495029926E1;1.337159920E1
3.578041719E1;-1.235009956E1;-2.636409950E1;4.122600079E0
3.580027031E1;-4.736999989E0;-2.429109955E1;1.358600020E0
3.582012344E1;1.373199940E0;-2.074209976E1;2.139400005E0
3.583997500E1;6.180999756E0;-2.194470024E1;7.267999649E-1
3.585982812E1;1.443069935E1;-2.840029907E1;2.221579933E1
3.587968125E1;3.271540070E1;-1.781929970E1;-2.749160004E1
3.589954219E1;2.541189957E1;4.625299931E0;-4.677119827E1
3.591939219E1;1.205639935E1;5.414400101E0;1.524399996E0
3.593923906E1;7.698799610E0;7.223199844E0;3.049399853E0
3.595909219E1;6.650899887E0;1.408129978E1;9.605099678E0
3.597894375E1;9.286999702E0;1.608320045E1;-3.164999783E-1
3.599879688E1;1.135029984E1;1.650469971E1;-1.791899920E0
3.601865000E1;1.063109970E1;1.468629932E1;-5.218599796E0
3.603850156E1;9.868399620E0;1.236030006E1;-4.251199722E0
3.605835469E1;9.981299400E0;1.114330006E1;-3.800099850E0
3.607820781E1;1.058290005E1;8.733399391E0;-2.724499941E0
3.609806094E1;1.278469944E1;1.850099921E0;-1.446200013E0
3.611791250E1;1.388759995E1;-1.708040047E1;3.057899952E0
3.613776562E1;-9.340999722E-1;-5.698419952E1;-3.438299894E0
3.615761875E1;-1.611059952E1;-6.933539581E1;-1.615700006E0
3.617747031E1;-1.579699993E0;-2.457159996E1;-1.342000008E1
3.619732344E1;7.700999975E-1;-4.148799896E0;-1.184539986E1
3.621717656E1;-1.708599925E0;5.049999952E-1;-1.584499955E0
3.623702812E1;-4.533400059E0;3.503399849E0;4.950200081E0
3.625688125E1;-6.076699734E0;7.168699741E0;8.174200058E0
3.627673438E1;-5.925399780E0;1.002269936E1;1.195059967E1
3.629658594E1;-4.049699783E0;1.262799931E1;1.475879955E1
3.631644375E1;-3.735599995E0;1.451349926E1;1.586619949E1
3.633629219E1;-3.893299818E0;1.715019989E1;1.176459980E1
3.635614375E1;-4.703999996E0;1.671979904E1;1.377900004E0
3.637599688E1;-5.889899731E0;1.325039959E1;-7.839699745E0
3.639585000E1;-4.919999838E-1;4.113299847E0;-1.919739914E1
3.641570312E1;5.119599819E0;-1.878899932E0;-1.154759979E1
3.643555469E1;8.857399940E0;4.091700077E0;2.592309952E1
3.645541562E1;-1.592899919E0;3.799999952E-1;1.219909954E1
3.647526094E1;-9.442699432E0;-2.117199898E0;9.912799835E0
3.649511250E1;-1.401279926E1;-4.010099888E0;1.351519966E1
3.651496562E1;-1.213999939E1;-6.757599831E0;1.292779922E1
3.653481875E1;-9.156599998E0;-1.619579887E1;8.541099548E0
3.655467188E1;-8.097499847E0;-2.429259872E1;6.510200024E0
3.657452344E1;-2.696799994E0;-2.556009865E1;1.043300033E0
3.659437656E1;3.897799969E0;-2.567409897E1;-2.093799829E0
3.661422813E1;1.358899975E1;-2.536059952E1;1.509200001E1
3.663408125E1;2.101989937E1;-1.746990013E1;-1.941440010E1
3.665393438E1;1.656329918E1;-4.214999974E-1;-3.819739914E1
3.667378594E1;8.783299446E0;5.641499996E0;-2.849499941E0
3.669363906E1;7.830799580E0;6.984699726E0;2.774600029E0
3.671349219E1;8.087999344E0;1.212599945E1;2.925099850E0
3.673334375E1;8.238900185E0;1.653470039E1;8.875699997E0
3.675319844E1;1.327880001E1;1.733659935E1;-6.528999805E-1
3.677304844E1;1.386940002E1;1.698480034E1;-4.372799873E0
3.679290156E1;1.372559929E1;1.448159981E1;-5.276400089E0
3.681275469E1;1.210519981E1;1.199370003E1;-4.958399773E0
3.683260625E1;8.868000031E0;9.942999840E0;-3.162199974E0
3.685245938E1;8.868700027E0;7.046499729E0;-1.365299940E0
3.687231250E1;1.119789982E1;-2.582599878E0;2.093999982E-1
3.689216563E1;1.345029926E1;-2.893789864E1;-4.932799816E0
3.691201719E1;-5.270999908E0;-6.645700073E1;-1.072789955E1
3.693187188E1;-1.233029938E1;-6.006609726E1;4.883500099E0
3.695172344E1;-7.349999547E-1;-1.718729973E1;-4.842199802E0
3.697157656E1;-7.091999650E-1;-1.966999918E-1;-7.190499783E0
3.699143750E1;-2.249399900E0;3.658699989E0;-5.916000009E-1
3.701128125E1;-5.001399994E0;6.320600033E0;5.008199692E0
3.703113438E1;-6.101799965E0;9.471199989E0;8.154799461E0
3.705098594E1;-4.819799900E0;1.167809963E1;1.094979954E1
3.707083906E1;-3.946699858E0;1.305779934E1;1.370279980E1
3.709069219E1;-3.404299974E0;1.582800007E1;1.619459915E1
3.711054531E1;-5.287399769E0;1.532959938E1;1.560820007E1
3.713039688E1;-4.736199856E0;1.281739998E1;6.912499905E0
3.715025000E1;-1.787699938E0;6.814799786E0;-4.722069931E1
3.717010313E1;4.575900078E0;5.411999822E-1;-2.693989944E1
3.718995469E1;3.881500006E0;5.973199844E0;3.528389740E1
3.720980781E1;1.706599951E0;5.203700066E0;1.503579998E1
3.722966094E1;-6.134799957E0;-1.490999907E-1;1.316139984E1
3.724951250E1;-9.645999908E0;-5.236299992E0;1.442939949E1
3.726936562E1;-1.090939999E1;-1.060269928E1;1.303129959E1
3.728921875E1;-8.428199768E0;-1.841169930E1;6.612400055E0
3.730907031E1;-7.295799732E0;-2.320669937E1;2.215999842E0
3.732893281E1;-1.315699935E0;-1.954529953E1;1.789599895E0
3.734877656E1;5.661999702E0;-1.831769943E1;1.578999907E-1
3.736862969E1;1.510890007E1;-1.815959930E1;6.335899830E0
3.738848125E1;1.806239891E1;-1.494979954E1;-1.023960018E1
3.740833438E1;1.485349941E1;-4.906300068E0;-2.062399864E1
3.742818750E1;1.193699932E1;5.752299786E0;-1.056709957E1
3.744804063E1;1.131890011E1;1.035099983E1;-3.306799889E0
3.746789219E1;8.175099373E0;9.831500053E0;1.653999984E-1
3.748774531E1;6.250699997E0;1.277379990E1;1.879999973E-2
3.750760000E1;5.925499916E0;1.452789974E1;-1.694199920E0
3.752745000E1;7.163599968E0;1.485649967E1;-3.106799841E0
3.754730312E1;7.580999851E0;1.389610004E1;-3.755899906E0
3.756715625E1;8.995200157E0;1.267109966E1;-4.129799843E0
3.758700781E1;1.065889931E1;1.150269985E1;-2.752300024E0
3.760686094E1;1.094579983E1;7.947799683E0;-1.346099973E0
3.762671406E1;1.375469971E1;-1.630999893E-1;7.317000031E-1
3.764656562E1;1.484609985E1;-3.068439865E1;8.434499741E0
3.766641875E1;-1.244199944E1;-6.853019714E1;1.699499965E0
3.768627188E1;-5.727999687E0;-4.774369812E1;-1.952399969E0
3.770612500E1;-4.957000017E-1;-9.588799477E0;-1.492329979E1
3.772597656E1;-1.714499950E0;-2.340999991E-1;-1.062599945E1
3.774582969E1;-5.165299892E0;3.872999847E-1;-2.104799986E0
3.776568125E1;-8.304999352E0;3.494999886E0;5.081599712E0
3.778553438E1;-7.777400017E0;7.983099937E0;8.112599373E0
3.780538750E1;-6.709199905E0;1.167689991E1;1.087300014E1
3.782524062E1;-4.473700047E0;1.461539936E1;1.148460007E1
3.784509219E1;-3.292199850E0;1.599709988E1;9.391900063E0
3.786494531E1;-3.881899834E0;1.593759918E1;4.230499744E0
3.788480781E1;-6.107399940E0;1.517869949E1;-1.033399940E0
3.790465156E1;-1.953399897E0;8.448200226E0;-1.021980000E1
3.792450312E1;3.699800014E0;1.592099905E0;-2.129010010E1
3.794435625E1;9.224899292E0;3.627499819E0;2.266320038E1
3.796420938E1;2.060499907E0;4.147200108E0;1.461879921E1
3.798406094E1;-4.436699867E0;1.299099922E0;1.602919960E1
3.800391406E1;-9.035200119E0;-8.316999674E-1;1.322550011E1
3.802376562E1;-1.152689934E1;-9.247499466E0;1.343409920E1
3.804361875E1;-1.389309978E1;-2.493089867E1;1.208699942E0
3.806347031E1;-1.074590015E1;-2.787619972E1;-1.374400020E0
3.808332500E1;-3.366400003E0;-2.114889908E1;2.414799929E0
3.810317656E1;6.197499752E0;-1.807939911E1;3.955999851E0
3.812302969E1;1.489769936E1;-1.943759918E1;1.610560036E1
3.814288281E1;2.046069908E1;-1.482879925E1;-5.621099949E0
3.816273438E1;1.516489983E1;-7.645599842E0;-2.549169922E1
3.818258750E1;9.431200027E0;2.110899925E0;-2.597209930E1
3.820244062E1;1.059480000E1;8.490900040E0;1.506999969E0
3.822230156E1;1.158370018E1;1.023610020E1;2.279899836E0
3.824214531E1;8.976699829E0;1.349039936E1;2.190000005E-2
3.826199844E1;6.039899826E0;1.728879929E1;3.634699821E0
3.828185000E1;6.863899708E0;1.640349960E1;-4.076499939E0
3.830170312E1;7.315399647E0;1.524219990E1;-4.029799938E0
3.832155625E1;7.616600037E0;1.227189922E1;-5.004600048E0
3.834140781E1;8.986599922E0;1.086450005E1;-3.257999897E0
3.836126094E1;1.070580006E1;9.208600044E0;-3.131999969E-1
3.838111406E1;1.191279984E1;4.228099823E0;2.039999887E-2
3.840096563E1;1.737629890E1;-1.586579990E1;5.994899750E0
3.842082031E1;1.088679981E1;-6.235799789E1;4.433899879E0
3.844067188E1;-1.293900013E0;-6.801889801E1;1.212499976E0
3.846052500E1;3.003799915E0;-2.464559937E1;-1.585890007E1
3.848037656E1;-3.610000014E-2;-7.196199894E0;-1.945100021E1
3.850022969E1;-5.013199806E0;-4.340600014E0;-4.688099861E0
3.852008281E1;-6.892600060E0;-6.330999732E-1;6.312699795E0
3.853993438E1;-9.580299377E0;5.722199917E0;1.211339951E1
3.855978750E1;-9.820599556E0;1.089229965E1;1.062010002E1
3.857964062E1;-7.852099895E0;1.416969967E1;1.286849976E1
3.859949844E1;-8.286499977E0;1.927479935E1;1.449599934E1
3.861934531E1;-9.114099503E0;2.065399933E1;9.086099625E0
3.863919844E1;-1.197949982E1;1.625099945E1;-3.659399986E0
3.865905156E1;-9.915699959E0;1.163389969E1;-5.485000014E-1
3.867890313E1;-1.545300007E0;7.099899769E0;-9.957599640E0
3.869875625E1;7.702600002E0;5.026000142E-1;-3.004729843E1
3.871860938E1;1.011629963E1;2.077499866E0;3.562450027E1
3.873846094E1;9.463999867E-1;6.177999973E-1;1.566249943E1
3.875831406E1;-6.820999622E0;-2.589499950E0;1.271099949E1
3.877817031E1;-7.938899994E0;-1.215609932E1;1.174269962E1
3.879802031E1;-1.392009926E1;-2.095749855E1;1.391979980E1
3.881787188E1;-8.375599861E0;-1.927549934E1;3.651899815E0
3.883772500E1;-3.142599821E0;-1.674079895E1;-1.046369934E1
3.885757812E1;-8.238999844E-1;-1.192319965E1;1.296999931E0
3.887742969E1;6.208399773E0;-1.423009968E1;3.260099888E0
3.889728281E1;1.205049992E1;-1.958839989E1;1.609549904E1
3.891713594E1;2.076479912E1;-1.858979988E1;-4.920000076E0
3.893698750E1;1.600239944E1;-9.522399902E0;-1.948390007E1
3.895683906E1;1.113519955E1;2.056299925E0;-1.462179947E1
3.897669219E1;8.228400230E0;1.006040001E1;-7.373600006E0
3.899654531E1;8.346599579E0;1.018340015E1;-2.248399973E0
3.901639844E1;6.671899796E0;1.185789967E1;4.166999757E-1
3.903625156E1;5.047100067E0;1.479850006E1;1.009899974E0
3.905610469E1;6.362199783E0;1.537509918E1;4.506999850E-1
3.907595625E1;8.362999916E0;1.528699970E1;-2.043999881E-1
3.909580938E1;1.160809994E1;1.458869934E1;-2.411900043E0
3.911566250E1;1.425809956E1;1.341149998E1;-3.523299932E0
3.913551406E1;1.252449989E1;9.191899300E0;-3.614499807E0
3.915536875E1;1.331159973E1;4.694399834E0;-1.492299914E0
3.917522031E1;1.624129868E1;-6.854599953E0;3.699199915E0
3.919507188E1;1.490949917E1;-2.880690002E1;-2.005999982E-1
3.921492500E1;-8.926599503E0;-6.292959976E1;-1.049100018E1
3.923477813E1;-1.892429924E1;-6.351149750E1;2.606299877E0
3.925463125E1;-3.192999840E0;-1.900020027E1;-4.569200039E0
3.927448281E1;-3.937000036E-1;-2.143100023E0;-7.042299747E0
3.929433594E1;-3.355000019E-1;3.098599911E0;-1.777699947E0
3.931418906E1;-3.808199883E0;5.810999870E0;1.378299952E0
3.933404062E1;-6.149499893E0;8.384599686E0;6.993799686E0
3.935389375E1;-6.412199974E0;1.061369991E1;1.054829979E1
3.937374531E1;-3.813999891E0;1.315299988E1;1.520469952E1
3.939359844E1;-2.866199970E0;1.590189934E1;1.601319885E1
3.941345156E1;-4.856199741E0;1.521739960E1;1.140349960E1
3.943330312E1;-5.464200020E0;1.312329960E1;5.599299908E0
3.945315625E1;-4.770699978E0;9.183199883E0;-2.179909897E1
3.947300938E1;6.678999662E-1;3.972499847E0;-1.662800026E1
3.949286875E1;3.753099918E0;3.771999836E0;9.629699707E0
3.951271406E1;1.399199963E0;7.362299919E0;1.837369919E1
3.953256719E1;-2.815199852E0;4.072099686E0;1.193459988E1
3.955242031E1;-7.830899715E0;8.646999598E-1;1.121589947E1
3.957227188E1;-1.103709984E1;-7.070199966E0;1.293610001E1
3.959212500E1;-1.356899929E1;-1.919669914E1;9.840999603E0
3.961197812E1;-1.309639931E1;-2.802499962E1;5.277800083E0
3.963182969E1;-6.095299721E0;-2.540189934E1;1.738999963E0
3.965168281E1;2.541100025E0;-1.811940002E1;3.879599810E0
3.967153594E1;8.415200233E0;-1.701109886E1;4.300699711E0
3.969138750E1;1.964219856E1;-1.796689987E1;2.261600018E0
3.971124062E1;1.762959862E1;-1.347289944E1;-9.130000114E0
3.973109375E1;1.313049984E1;-4.743299961E0;-2.672889900E1
3.975094531E1;1.302819920E1;4.608799934E0;-1.690509987E1
3.977079844E1;1.042579937E1;8.268599510E0;4.790999889E-1
3.979065156E1;9.650499344E0;1.013059998E1;1.724900007E0
3.981050313E1;7.693599701E0;1.379169941E1;6.143000126E-1
3.983035625E1;8.048399925E0;1.595809937E1;-2.544100046E0
3.985020938E1;8.344200134E0;1.585519981E1;-1.663999915E0
3.987006250E1;7.841399670E0;1.462949944E1;-2.687799931E0
3.988991406E1;8.248600006E0;1.262819958E1;-2.936300039E0
3.990976719E1;9.670199394E0;1.072919941E1;-3.123999834E0
3.992962031E1;1.044539928E1;8.779500008E0;-2.362599850E0
3.994947344E1;1.192079926E1;4.151899815E0;-1.632599950E0
3.996932500E1;1.629979897E1;-1.408229923E1;5.921400070E0
3.998917812E1;7.468699932E0;-5.219449997E1;-5.963000059E-1
4.000903125E1;-1.420279980E1;-6.938449860E1;-2.634799957E0
4.002888281E1;-1.306599975E0;-2.700309944E1;-9.699500084E0
4.004873594E1;1.299499989E0;-5.227999687E0;-9.188899994E0
4.006858906E1;1.455199957E0;7.945999503E-1;-2.128099918E0
4.008844063E1;-3.269699812E0;1.604399920E0;1.042099953E0
4.010829375E1;-6.998899937E0;4.663499832E0;6.670699596E0
4.012814688E1;-7.942899704E0;8.195899963E0;1.009179974E1
4.014799844E1;-5.765899658E0;1.181199932E1;1.368509960E1
4.016785156E1;-4.797399998E0;1.537039948E1;1.660149956E1
4.018770469E1;-5.424299717E0;1.835610008E1;1.631360054E1
4.020756562E1;-7.604699612E0;1.663549995E1;1.165450001E1
4.022740938E1;-6.426499844E0;1.373429966E1;-3.987699986E0
4.024726250E1;-5.305799961E0;3.378000021E0;-2.465499878E1
4.026711562E1;2.937999964E-1;-4.146199703E0;-3.560779953E1
4.028696719E1;3.437999964E0;4.385600090E0;3.566059875E1
4.030682031E1;5.273000002E-1;4.734399796E0;2.008409882E1
4.032667344E1;-5.445499897E0;-6.273999810E-1;1.484699917E1
4.034652500E1;-8.373600006E0;-5.445600033E0;1.528259945E1
4.036637813E1;-7.970599651E0;-1.323769951E1;1.261479950E1
4.038623125E1;-7.082599640E0;-2.192899895E1;3.843400002E0
4.040608438E1;-3.751299858E0;-2.420299911E1;1.828299999E0
4.042593594E1;1.603299975E0;-1.965159988E1;3.720099926E0
4.044578906E1;6.547499657E0;-1.743459892E1;4.832099915E0
4.046564219E1;1.384259987E1;-1.682049942E1;1.362089920E1
4.048549375E1;1.856389999E1;-1.550709915E1;-1.333389950E1
4.050534688E1;1.719359970E1;-5.851099968E0;-2.786829948E1
4.052520000E1;1.331040001E1;3.096299887E0;-1.083449936E1
4.054505156E1;9.699399948E0;8.536600113E0;-2.087399960E0
4.056490469E1;1.123839951E1;9.517899513E0;-2.616099834E0
4.058475781E1;9.840999603E0;1.081050014E1;1.021999940E-1
4.060461094E1;8.212399483E0;1.516059971E1;-9.582999945E-1
4.062446250E1;7.641999722E0;1.631859970E1;2.294999957E-1
4.064431563E1;7.137699604E0;1.582139969E1;-1.042899966E0
4.066416719E1;7.226899624E0;1.443029976E1;-3.020699978E0
4.068402031E1;7.120999813E0;1.253969955E1;-2.472100019E0
4.070387344E1;8.765999794E0;1.053059959E1;-1.927099943E0
4.072372500E1;1.258539963E1;5.370599747E0;-2.491999865E-1
4.074357812E1;1.606509972E1;-1.253599930E1;6.231899738E0
4.076342969E1;7.945099831E0;-4.289220047E1;-4.491300106E0
4.078328281E1;-1.485019970E1;-6.823780060E1;-1.139760017E1
4.080313594E1;-4.307899952E0;-3.466949844E1;-6.251399994E0
4.082298750E1;1.015799999E0;-9.246500015E0;-6.310800076E0
4.084284062E1;2.363100052E0;-2.550799847E0;-1.164099932E0
4.086269375E1;-2.133499861E0;-1.854699969E0;2.139499903E0
4.088254688E1;-5.370199680E0;1.007900000E0;5.295599937E0
4.090240000E1;-7.323599815E0;6.338299751E0;8.962399483E0
4.092225781E1;-6.806200027E0;1.065349960E1;1.250899982E1
4.094210469E1;-4.774799824E0;1.424580002E1;1.740410042E1
4.096195781E1;-2.984899998E0;1.841819954E1;1.287949944E1
4.098181250E1;-4.022799969E0;1.890299988E1;5.861899853E0
4.100166250E1;-8.863699913E0;1.498149967E1;-2.288199902E0
4.102152344E1;-1.046280003E1;8.775799751E0;-3.927399874E0
4.104136719E1;-2.476500034E0;3.302399874E0;-8.156599998E0
4.106122031E1;1.565899968E0;-2.245599985E0;-2.387310028E1
4.108107188E1;8.285799980E0;2.823499918E0;2.981999969E1
4.110092969E1;1.298499942E0;-1.035799980E0;2.105749893E1
4.112077969E1;-7.884699821E0;-5.247600079E0;1.412049961E1
4.114063125E1;-1.171679974E1;-5.295099735E0;1.485589981E1
4.116048438E1;-1.026709938E1;-8.565099716E0;8.242199898E0
4.118033594E1;-6.827199936E0;-2.192959976E1;-5.688899994E0
4.120018906E1;-4.485199928E0;-2.376249886E1;3.246099949E0
4.122004219E1;6.416999698E-1;-2.071019936E1;4.896999836E0
4.123989375E1;7.121999741E0;-1.850349998E1;4.534100056E0
4.125974688E1;1.454609966E1;-1.684399986E1;1.396700001E1
4.127960000E1;1.602849960E1;-1.925189972E1;-1.925699949E0
