"Time (s)";"Linear Acceleration x (m/s^2)";"Linear Acceleration y (m/s^2)";"Linear Acceleration z (m/s^2)"
2.381718700E-2;-1.006999984E-1;1.876000017E-1;3.909999877E-2
4.367031200E-2;1.295000017E-1;3.283999860E-1;-4.849999845E-1
6.352343700E-2;3.969999850E-1;3.562999964E-1;-9.429000020E-1
8.337656200E-2;2.773999870E-1;7.679999620E-2;-1.872999966E-1
1.032281250E-1;3.034999967E-1;8.119999617E-2;3.032000065E-1
1.230812500E-1;4.333999753E-1;7.569999993E-2;-2.400000021E-2
1.429343750E-1;4.115999937E-1;9.169999510E-2;-1.474999934E-1
1.627859370E-1;1.684999913E-1;-1.204999983E-1;-1.322999895E-1
1.826390620E-1;1.176999956E-1;-8.819999546E-2;-2.592000067E-1
2.024921870E-1;3.488000035E-1;-8.949999511E-2;3.974999785E-1
2.223453120E-1;2.026000023E-1;4.839999974E-2;8.499999531E-3
2.421968750E-1;3.340999782E-1;1.229999959E-1;-7.590999603E-1
2.620500000E-1;1.379400015E0;2.773000002E-1;2.017000020E-1
2.819031250E-1;9.447999597E-1;4.077999890E-1;5.166999698E-1
3.017546870E-1;4.578000009E-1;-3.959999979E-2;-2.797999978E-1
3.216078120E-1;6.850000024E-1;2.104000002E-1;-5.837999582E-1
3.414609370E-1;3.750000000E-1;-2.259999886E-2;-3.978999853E-1
3.613125000E-1;3.739999831E-1;-1.289999951E-2;-6.989999861E-2
3.811656250E-1;1.062699914E0;1.341999918E-1;1.975999922E-1
4.010187500E-1;1.107200027E0;1.319999993E-2;7.014999986E-1
4.208703120E-1;1.052399993E0;-1.808999926E-1;7.809999585E-1
4.407234370E-1;8.202999830E-1;-6.705999970E-1;6.373999715E-1
4.605765620E-1;-1.730999947E-1;-8.148999810E-1;-9.093999863E-1
4.804296870E-1;-9.819999933E-1;-1.046800017E0;-1.658699989E0
5.002812500E-1;-8.907999992E-1;-6.820999980E-1;-1.277499914E0
5.201343750E-1;-1.036899924E0;-1.319299936E0;-7.938999534E-1
5.399875000E-1;-8.761000037E-1;-4.680999815E-1;1.108600020E0
5.598390620E-1;-3.565999866E-1;-1.842999905E-1;1.822799921E0
5.796921870E-1;-2.669999935E-2;6.292999983E-1;9.016999602E-1
5.995453120E-1;-3.555999994E-1;6.182000041E-1;4.327999949E-1
6.193984370E-1;-1.113299966E0;-1.432999969E-1;-1.991999894E-1
6.392500000E-1;-1.861199975E0;-9.338999987E-1;-4.267999828E-1
6.591031250E-1;-2.206500053E0;-8.630999923E-1;-3.743000031E-1
6.789562500E-1;-1.037999988E0;4.287000000E-1;-5.740000010E-1
6.988078120E-1;8.482999802E-1;8.830999732E-1;-1.379299998E0
7.186609370E-1;2.374999970E-1;-4.038999975E-1;1.984999925E-1
7.385140620E-1;-1.108899951E0;-1.333999991E0;1.183099985E0
7.583656250E-1;-1.631099939E0;-1.275900006E0;6.261999607E-1
7.782187500E-1;-2.322700024E0;-7.168999910E-1;-9.527999759E-1
7.980703120E-1;-2.526700020E0;-3.872999847E-1;-2.127199888E0
8.179234370E-1;-1.711300015E0;-3.569999933E-1;-1.828399897E0
8.377765620E-1;-1.746899962E0;-6.053999662E-1;-1.696999967E-1
8.576296870E-1;-1.721599936E0;-5.088999867E-1;-2.705999911E-1
8.774812500E-1;-1.260399938E0;5.519999862E-1;-1.272899985E0
8.973343750E-1;-9.085999727E-1;-5.539999902E-2;-9.612999558E-1
9.171859370E-1;-3.100000024E-1;-3.599999845E-1;2.911999822E-1
9.370390620E-1;1.199999973E-1;-7.177000046E-1;1.388399959E0
9.568921870E-1;5.336999893E-1;-5.737000108E-1;2.908000052E-1
9.767453120E-1;3.422999978E-1;7.664999962E-1;-5.042999983E-1
9.965968750E-1;9.253000021E-1;9.681999683E-1;2.703999877E-1
1.016450000E0;-1.198999956E-1;4.397999942E-1;1.318300009E0
1.036303125E0;-1.110700011E0;-9.860000014E-2;1.204499960E0
1.056154687E0;-1.370499969E0;-5.830999613E-1;6.021999717E-1
1.076007812E0;-9.802999496E-1;-1.064100027E0;9.740999937E-1
1.095860937E0;-1.664299965E0;-1.678699970E0;2.148099899E0
1.115712500E0;-1.984899998E0;-1.905299902E0;1.503999949E0
1.135565625E0;-9.686999917E-1;-9.238999486E-1;5.967000127E-1
1.155418750E0;-4.671999812E-1;5.358999968E-1;-1.041999981E-1
1.175271875E0;-4.723999798E-1;4.777999818E-1;1.622099996E0
1.195123437E0;-7.804999948E-1;-3.158999979E-1;3.274699926E0
1.214976562E0;-9.869999886E-1;-2.296999991E-1;2.447900057E0
1.234832812E0;-2.001800060E0;3.368999958E-1;4.521999955E-1
1.254681250E0;-1.714499950E0;1.457599998E0;-3.804999888E-1
1.274534375E0;-2.796999812E-1;1.842199922E0;1.009699941E0
1.294387500E0;7.009999454E-2;1.643799901E0;1.385999918E0
1.314239062E0;-3.333999813E-1;1.395499945E0;6.051999927E-1
1.334092187E0;5.365999937E-1;1.784199953E0;1.761000007E-1
1.353945312E0;7.917000055E-1;1.351699948E0;2.009999901E-1
1.373798437E0;8.708999753E-1;6.983999610E-1;9.449999779E-2
1.393650000E0;3.012999892E-1;-1.257999986E-1;9.809999913E-2
1.413503125E0;2.328999937E-1;-3.208000064E-1;-6.966999769E-1
1.433357812E0;1.552899957E0;6.101999879E-1;-1.015100002E0
1.453207812E0;2.167599916E0;1.982599974E0;-2.234400034E0
1.473060937E0;2.619699955E0;7.899999619E-1;-3.581999838E-1
1.492914062E0;3.806099892E0;2.496999949E-1;1.794699907E0
1.512767187E0;4.835499763E0;1.108899951E0;1.894099951E0
1.532618750E0;4.510699749E0;1.898399949E0;-2.180000022E-2
1.552471875E0;3.939199924E0;2.101500034E0;-1.561999917E-1
1.572325000E0;3.014199972E0;1.669199944E0;-1.375999898E-1
1.592176562E0;2.943899870E0;1.473199964E0;5.099999718E-3
1.612029687E0;2.554199934E0;6.940000057E-1;1.048999950E-1
1.631882812E0;2.026200056E0;4.484999776E-1;-6.213999987E-1
1.651734375E0;1.581799984E0;4.307999909E-1;-9.056999683E-1
1.671587500E0;1.225000024E0;-5.020000041E-2;-9.717999697E-1
1.691440625E0;7.513999939E-1;-3.871999979E-1;-5.238000154E-1
1.711292187E0;-1.758999974E-1;-3.948999941E-1;-4.847999811E-1
1.731145312E0;-1.350399971E0;-7.545999885E-1;8.599999361E-3
1.750998437E0;-1.761699915E0;-7.419999838E-1;1.413999945E-1
1.770851562E0;-1.685400009E0;-4.226000011E-1;4.659999907E-1
1.790703125E0;-1.923799992E0;-3.285999894E-1;3.678999841E-1
1.810556250E0;-2.596400023E0;-3.737999797E-1;7.919999957E-1
1.830409375E0;-5.037999749E-1;1.071099997E0;1.630499959E0
1.850260937E0;1.370999932E0;2.001999855E0;1.823199987E0
1.870114062E0;1.138499975E0;1.914199948E0;2.007599831E0
1.889967187E0;3.233000040E-1;1.672500014E0;1.330699921E0
1.909818750E0;-6.406999826E-1;9.145999551E-1;1.094399929E0
1.929671875E0;-1.488399982E0;5.454999804E-1;2.243999988E-1
1.949525000E0;-1.715999961E0;4.384000003E-1;-1.321599960E0
1.969376562E0;-3.373499870E0;-2.734999955E-1;-2.361199856E0
1.989229687E0;-3.122799873E0;-1.342800021E0;-3.694499969E0
2.009082812E0;-4.923999906E-1;1.759999990E-1;-5.079999939E-2
2.028934375E0;6.872999668E-1;-3.240000084E-2;5.378000140E-1
2.048787500E0;5.223700047E0;1.545499921E0;-6.381999850E-1
2.068640625E0;6.616299629E0;3.878399849E0;5.521999598E-1
2.088493750E0;2.312099934E0;3.871999979E0;-1.590899944E0
2.108345312E0;4.044999778E-1;3.282199860E0;-2.212199926E0
2.128198437E0;-1.193000004E-1;1.852499962E0;2.635000050E-1
2.148051562E0;1.027699947E0;-1.218999997E-1;5.166000128E-1
2.167904687E0;9.670999646E-1;-3.793999851E-1;-3.506000042E-1
2.187756250E0;-8.100000210E-3;1.430699944E0;-1.026999950E-1
2.207607812E0;-5.198999882E0;-3.423999846E-1;-7.922099590E0
2.227460937E0;-4.678400040E0;-3.043999910E0;-1.802999973E-1
2.247314062E0;-5.269499779E0;-4.294799805E0;5.554399967E0
2.267165625E0;-2.866699934E0;-3.733599901E0;4.219999790E0
2.287018750E0;1.790099978E0;-1.269799948E0;4.448400021E0
2.306871875E0;2.570099831E0;4.397999763E0;2.391999960E-1
2.326723437E0;3.771999776E-1;5.460899830E0;-8.587999940E-1
2.346576562E0;-8.823999763E-1;2.420300007E0;1.187199950E0
2.366429687E0;-1.378600001E0;-8.309999704E-1;2.367199898E0
2.386282812E0;-2.559499979E0;-1.712399960E0;6.497900009E0
2.406134375E0;-4.743000031E0;-1.625699997E0;-2.802000046E-1
2.425987500E0;-2.549399853E0;1.395900011E0;-1.419000030E-1
2.445840625E0;2.091399908E0;-1.759999990E-1;-3.044099808E0
2.465692187E0;3.464999914E0;-1.077540016E1;-6.816400051E0
2.485545312E0;5.500899792E0;-1.524489975E1;-3.520599842E0
2.505398437E0;1.639699936E0;-8.463999748E0;3.531699896E0
2.525251562E0;3.173699856E0;4.742199898E0;-5.187999606E-1
2.545103125E0;-1.880399942E0;9.933999777E-1;1.605099916E0
2.564956250E0;-3.920999765E-1;-7.149999589E-2;-1.717000008E-1
2.584809375E0;1.399999950E-3;9.971999526E-1;-1.837199926E0
2.604660937E0;-2.666800022E0;4.627999961E-1;-5.372999907E-1
2.624514062E0;-2.974499941E0;8.281999826E-1;2.336999923E-1
2.644367187E0;-1.594599962E0;7.906000018E-1;8.048999906E-1
2.664218750E0;-5.708000064E-1;6.951000094E-1;5.349000096E-1
2.684071875E0;-1.620000042E-2;6.108999848E-1;6.313999891E-1
2.703926562E0;1.471399903E0;7.082999945E-1;1.047399998E0
2.723778125E0;2.583600044E0;4.048999846E-1;1.982099891E0
2.743629687E0;4.007599831E0;6.468999982E-1;2.824800014E0
2.763482812E0;4.136300087E0;7.267999649E-1;2.073600054E0
2.783335937E0;3.220799923E0;5.521999598E-1;7.939999700E-1
2.803187500E0;1.865000010E0;1.340999901E-1;-3.540000021E-1
2.823040625E0;1.055400014E0;-1.266999990E-1;-1.045099974E0
2.842893750E0;7.265999913E-1;-3.886999786E-1;-8.969999552E-1
2.862746875E0;3.808999956E-1;-2.329999954E-2;-6.003000140E-1
2.882598437E0;-2.429999970E-2;9.559999406E-2;-1.039799929E0
2.902451562E0;8.625999689E-1;2.567999959E-1;-1.071900010E0
2.922304687E0;2.003499985E0;9.933999777E-1;-7.899999619E-2
2.942156250E0;2.115000010E0;1.365499973E0;-2.937999964E-1
2.962009375E0;1.037799954E0;5.960999727E-1;-5.892999768E-1
2.981862500E0;7.912999988E-1;1.546999961E-1;-3.399999812E-3
3.001714062E0;1.620700002E0;5.048999786E-1;-8.141999841E-1
3.021567187E0;1.458099961E0;-8.619999886E-2;-1.641499996E0
3.041420312E0;2.706599951E0;9.856999516E-1;-2.513399839E0
3.061271875E0;2.695499897E0;2.333999872E-1;-1.115299940E0
3.081125000E0;1.500199914E0;-3.694999814E-1;-8.952999711E-1
3.100978125E0;6.719999760E-2;-1.871999949E-1;-3.555999994E-1
3.120829687E0;-1.102999970E-1;1.076099992E0;-8.820999861E-1
3.140682812E0;5.322999954E-1;1.804999948E0;-1.239300013E0
3.160535937E0;5.726999640E-1;3.955000043E-1;-2.014699936E0
3.180389062E0;8.532999754E-1;-7.071999907E-1;-1.893000007E0
3.200240625E0;1.862399936E0;3.904999793E-1;-1.162999988E0
3.220093750E0;2.011699915E0;1.782999933E-1;-1.018199921E0
3.239945312E0;2.269000053E0;-1.527999938E-1;-1.129499912E0
3.259798437E0;2.634299994E0;-1.180599928E0;-2.944900036E0
3.279651562E0;4.067299843E0;-1.582399964E0;-4.980400085E0
3.299504687E0;5.603300095E0;-3.129699945E0;-4.568500042E0
3.319356250E0;6.240599632E0;-4.554399967E0;-1.305299997E0
3.339209375E0;6.089099884E0;-2.293200016E0;7.623999715E-1
3.359060937E0;4.308099747E0;-1.376500010E0;-2.355700016E0
3.378914062E0;1.469200015E0;-1.253000021E0;-1.231219959E1
3.398767187E0;5.256999731E-1;-1.084999919E0;-3.682499886E0
3.418618750E0;5.799999833E-1;-9.400999546E-1;2.329799891E0
3.438471875E0;1.442999989E-1;-1.487299919E0;6.211400032E0
3.458325000E0;2.749999985E-2;-1.103500009E0;6.669899940E0
3.478178125E0;2.705000043E-1;-7.698999643E-1;2.732699871E0
3.498029687E0;1.502099991E0;-6.667999625E-1;-2.397199869E0
3.517882812E0;5.240000039E-2;-9.633999467E-1;-2.999999851E-4
3.537735937E0;-3.959999979E-1;6.272999644E-1;3.144500017E0
3.557587500E0;-1.186399937E0;1.688999981E-1;4.216599941E0
3.577440625E0;-1.121199965E0;5.512999892E-1;5.560400009E0
3.597293750E0;-5.800999999E-1;1.068699956E0;3.885599852E0
3.617145312E0;-5.829999968E-2;8.335999846E-1;3.247900009E0
3.636998437E0;-4.263999760E-1;-1.216999963E-1;3.860099792E0
3.656851562E0;-7.490999699E-1;5.396999717E-1;3.241299868E0
3.676704687E0;-5.342999697E-1;1.713299990E0;2.045399904E0
3.696556250E0;-1.309499979E0;1.772599936E0;2.116899967E0
3.716409375E0;-1.434499979E0;5.422999859E-1;2.215299845E0
3.736262500E0;-1.791099906E0;-1.023900032E0;2.049799919E0
3.756114062E0;-1.288800001E0;-1.169199944E0;1.572099924E0
3.775967187E0;-5.180999637E-1;3.319999874E-1;-4.931999743E-1
3.795820312E0;-3.999999762E-1;4.806999862E-1;-1.224099994E0
3.815671875E0;-2.924000025E-1;4.899999872E-2;4.097999930E-1
3.835525000E0;2.070000023E-2;7.495999932E-1;1.541999936E0
3.855378125E0;-2.049999982E-1;4.891999960E-1;1.709899902E0
3.875231250E0;1.653999984E-1;1.214900017E0;1.272799969E0
3.895082812E0;1.019500017E0;1.804499984E0;7.002999783E-1
3.914935937E0;1.780699968E0;1.793499947E0;4.360999763E-1
3.934789062E0;1.873299956E0;3.278999925E-1;-1.200000010E-2
3.954640625E0;1.115299940E0;-7.166000009E-1;8.054999709E-1
3.974493750E0;4.867999852E-1;6.129999831E-2;1.323400021E0
3.994346875E0;1.112999991E-1;3.953000009E-1;2.138999999E-1
4.014200000E0;-6.787999868E-1;-4.199000001E-1;1.800399899E0
4.034051562E0;-1.624099970E0;-2.301999927E-1;4.002500057E0
4.053910937E0;-2.338899851E0;-2.145999968E-1;4.213999748E0
4.073757812E0;-3.162599802E0;-2.181599855E0;5.180799961E0
4.093609375E0;-1.924899936E0;-2.479699850E0;3.998499870E0
4.113462500E0;8.145999908E-1;-2.109799862E0;1.223500013E0
4.133315625E0;3.130100012E0;-8.144999743E-1;-1.241899967E0
4.153167187E0;4.121999741E0;7.617999911E-1;-1.518899918E0
4.173020312E0;4.125800133E0;1.070799947E0;-5.151999593E-1
4.192873437E0;4.776400089E0;5.248000026E-1;4.319999740E-2
4.212725000E0;4.741399765E0;1.831000000E-1;2.273999900E-1
4.232578125E0;2.323699951E0;1.613999903E-1;6.778999567E-1
4.252431250E0;3.509999812E-2;1.854999959E-1;7.935999632E-1
4.272284375E0;-4.088999927E-1;-5.886999965E-1;-1.992999911E-1
4.292135937E0;-1.808999926E-1;-6.782999635E-1;-5.931999683E-1
4.311989062E0;4.490999877E-1;2.316999882E-1;2.254999876E-1
4.331842187E0;1.230899930E0;5.832999945E-1;1.815299988E0
4.351693750E0;9.120999575E-1;-1.636999995E-1;2.186300039E0
4.371546875E0;3.691000044E-1;-4.011999965E-1;2.621000051E0
4.391400000E0;-6.880999804E-1;-1.683000028E-1;2.783999920E0
4.411251562E0;-1.568300009E0;-5.359999835E-2;1.718499899E0
4.431104687E0;-7.680000067E-1;1.287000030E-1;-3.254999816E-1
4.450957812E0;7.430999875E-1;3.400000036E-1;-1.335500002E0
4.470810937E0;5.681999922E-1;2.275999933E-1;-9.589999914E-1
4.490662500E0;1.114400029E0;7.838000059E-1;-2.978000045E-1
4.510515625E0;2.003299952E0;6.442999840E-1;-2.509000003E-1
4.530368750E0;2.017699957E0;-1.231999993E-1;-2.181999981E-1
4.550220312E0;1.864299893E0;-1.657999903E-1;-1.850000024E-2
4.570073437E0;2.030299902E0;1.724999994E-1;-7.550999522E-1
4.589926562E0;1.499899983E0;6.929999590E-2;-8.184999824E-1
4.609779687E0;6.111999750E-1;-4.447000027E-1;-4.712999761E-1
4.629631250E0;-5.397999883E-1;-3.613999784E-1;-7.623999715E-1
4.649484375E0;-7.379999757E-1;-3.240000084E-2;-1.164899945E0
4.669335937E0;-6.109999865E-2;-3.571999967E-1;-1.445000023E-1
4.689189062E0;1.064599991E0;-5.399000049E-1;1.505399942E0
4.709040625E0;1.962499976E0;-1.630000025E-1;2.415599823E0
4.728893750E0;2.304899931E0;-1.419999897E-1;2.668499947E0
4.748746875E0;2.260699987E0;-5.629999936E-2;2.522300005E0
4.768600000E0;2.030599833E0;2.815999985E-1;2.049799919E0
4.788451562E0;1.789399981E0;4.154999852E-1;1.956399918E0
4.808304687E0;7.468000054E-1;4.902999997E-1;1.289499998E0
4.828157812E0;-7.707999945E-1;9.251999855E-1;-7.180000097E-2
4.848009375E0;-8.700999618E-1;1.195500016E0;-1.422500014E0
4.867862500E0;-3.033999801E-1;5.715000033E-1;-2.276299953E0
4.887715625E0;1.088699937E0;2.176999897E-1;-6.335999966E-1
4.907567187E0;1.490999937E0;-2.718999982E-1;1.001899958E0
4.927420312E0;1.580399990E0;-3.439999819E-1;1.310899973E0
4.947273437E0;1.446900010E0;-1.456999928E-1;4.305000007E-1
4.967125000E0;9.562999606E-1;3.130000085E-2;-5.906000137E-1
4.986978125E0;1.960999966E-1;-1.562999934E-1;-8.642999530E-1
5.006831250E0;-3.504999876E-1;-6.412999630E-1;-1.078299999E0
5.026684375E0;-4.267999828E-1;-8.341000080E-1;-1.719599962E0
5.046535937E0;-3.289999962E-1;-8.333999515E-1;-1.347399950E0
5.066389062E0;-3.705999851E-1;-3.976999819E-1;-5.105000138E-1
5.086242187E0;-6.991999745E-1;-1.999999949E-4;3.984999955E-1
5.106093750E0;-8.007000089E-1;-7.059999555E-2;1.391499996E0
5.125946875E0;-7.346999645E-1;-4.761999846E-1;1.715799928E0
5.145800000E0;-4.030999839E-1;-8.495000005E-1;1.728299975E0
5.165653125E0;-5.949999690E-1;-6.371999979E-1;1.628299952E0
5.185504687E0;-6.168000102E-1;6.430000067E-2;1.414499998E0
5.205365625E0;-4.959999919E-1;7.721999884E-1;1.513499975E0
5.225210937E0;-2.821999788E-1;1.218099952E0;1.513000011E0
5.245062500E0;-6.239999831E-2;1.274500012E0;1.487999916E0
5.264915625E0;5.079999939E-2;1.002699971E0;1.483699918E0
5.284768750E0;-2.129999921E-2;6.290000081E-1;9.152999520E-1
5.304620312E0;-2.475999892E-1;1.796000004E-1;2.499999851E-2
5.324473437E0;-2.770999968E-1;7.400000002E-3;-3.956999779E-1
5.344326562E0;-1.033999994E-1;2.169999927E-1;-4.117999971E-1
5.364179687E0;5.299999937E-2;4.555999935E-1;-3.306999803E-1
5.384031250E0;2.690999806E-1;1.425999999E-1;5.089999735E-2
5.403884375E0;4.551999867E-1;4.179999977E-2;3.270999789E-1
5.423737500E0;5.665000081E-1;1.659999937E-1;1.498999894E-1
5.443589062E0;6.854000092E-1;4.458999932E-1;1.230999976E-1
5.463442187E0;8.564999700E-1;3.127999902E-1;6.119999662E-2
5.483295312E0;1.152699947E0;1.807999909E-1;-3.310000002E-1
5.503146875E0;1.768799901E0;4.901999831E-1;-3.434000015E-1
5.523000000E0;2.321199894E0;1.073599935E0;2.599999867E-2
5.542856250E0;2.489399910E0;8.634999990E-1;4.429999888E-1
5.562704687E0;2.070600033E0;3.409999907E-1;6.265999675E-1
5.582557812E0;1.312699914E0;3.204999864E-1;4.864999950E-1
5.602410937E0;8.768999577E-1;4.693000019E-1;4.919999838E-2
5.622264062E0;6.899999976E-1;5.411999822E-1;-8.161000013E-1
5.642115625E0;3.944000006E-1;3.067999780E-1;-1.042099953E0
5.661968750E0;-1.449999958E-1;-1.178999990E-1;-4.666999876E-1
5.681821875E0;-2.192000002E-1;-7.010999918E-1;4.109999910E-2
5.701673437E0;1.150000002E-2;-1.018499970E0;3.255999982E-1
5.721526562E0;1.340000033E-1;-4.614999890E-1;5.511999726E-1
5.741379687E0;5.115000010E-1;4.477999806E-1;4.486999810E-1
5.761231250E0;1.061499953E0;8.371999860E-1;3.831000030E-1
5.781084375E0;1.146700025E0;5.875999928E-1;4.614999890E-1
5.800937500E0;1.263800025E0;1.999999881E-1;3.351999819E-1
5.820790625E0;1.424399972E0;8.299999870E-3;2.017000020E-1
5.840642187E0;1.185699940E0;3.152000010E-1;4.933999777E-1
5.860495312E0;5.266000032E-1;3.352999985E-1;1.174899936E0
5.880346875E0;-2.061000019E-1;-2.859999985E-2;1.477199912E0
5.900200000E0;-6.331999898E-1;-4.224999845E-1;1.039600015E0
5.920053125E0;-4.346999824E-1;-4.145999849E-1;-2.569999918E-2
5.939906250E0;1.809999906E-2;-1.419000030E-1;-8.992999792E-1
5.959757812E0;2.890000045E-1;1.114999950E-1;-7.987999916E-1
5.979610937E0;5.225999951E-1;-6.560000032E-2;1.324999928E-1
5.999462500E0;7.365999818E-1;2.219999954E-2;1.018599987E0
6.019315625E0;8.700000048E-1;2.470999956E-1;1.141299963E0
6.039168750E0;1.067600012E0;2.551999986E-1;6.486999989E-1
6.059020312E0;9.925999641E-1;1.349000037E-1;2.193999887E-1
6.078873437E0;6.482999921E-1;2.495999932E-1;6.979999691E-2
6.098726562E0;4.138999879E-1;1.784999967E-1;1.273999959E-1
6.118578125E0;3.398000002E-1;2.058999985E-1;3.571999967E-1
6.138435937E0;3.570999801E-1;2.532999814E-1;7.277999520E-1
6.158284375E0;5.541999936E-1;9.489999712E-2;7.903999686E-1
6.178137500E0;6.838999987E-1;1.322999895E-1;2.471999973E-1
6.197995312E0;8.246999979E-1;1.009999961E-1;-3.274999857E-1
6.217842187E0;7.992999554E-1;2.466999888E-1;-1.278999895E-1
6.237695312E0;7.242999673E-1;3.339999914E-1;4.034000039E-1
6.257546875E0;5.321999788E-1;2.055999935E-1;7.700999975E-1
6.277400000E0;3.774999976E-1;1.061000004E-1;7.773000002E-1
6.297253125E0;4.698999822E-1;2.221999913E-1;4.254999757E-1
6.317104687E0;4.235999882E-1;2.203999907E-1;8.299999684E-2
6.336957812E0;2.782000005E-1;4.250000045E-2;1.114999950E-1
6.356810937E0;2.610000074E-1;1.689999998E-1;2.748999894E-1
6.376664062E0;3.847000003E-1;2.273999900E-1;3.316999972E-1
6.396518750E0;4.310999811E-1;2.368000001E-1;5.160999894E-1
6.416368750E0;4.773999751E-1;2.166000009E-1;5.009999871E-1
6.436221875E0;4.347999990E-1;3.922999799E-1;3.173999786E-1
6.456073437E0;5.315999985E-1;2.839999795E-1;2.825999856E-1
6.475926562E0;6.017000079E-1;9.099999443E-3;4.427999854E-1
6.495779687E0;5.654999614E-1;1.854999959E-1;4.642999768E-1
6.515632812E0;5.590999722E-1;9.669999778E-2;1.275999993E-1
6.535484375E0;5.916000009E-1;2.759999968E-2;-7.029999793E-2
6.555337500E0;6.629999876E-1;2.236000001E-1;-6.659999490E-2
6.575190625E0;6.847000122E-1;2.334999889E-1;3.979999945E-2
6.595043750E0;5.971999764E-1;2.435999960E-1;3.662000000E-1
6.614895312E0;3.714999855E-1;2.732000053E-1;5.658999681E-1
6.634748437E0;3.826999962E-1;1.458999962E-1;5.469999909E-1
6.654600000E0;3.856999874E-1;1.067999974E-1;3.975999951E-1
6.674453125E0;4.700999856E-1;1.909999922E-2;4.743999839E-1
6.694306250E0;3.384000063E-1;1.979999989E-2;6.342999935E-1
6.714157812E0;2.724999785E-1;1.677999943E-1;5.655999780E-1
6.734010937E0;4.942999780E-1;1.200999990E-1;5.184999704E-1
6.753864062E0;7.391999960E-1;1.905999929E-1;5.920000076E-1
6.773717187E0;6.110000014E-1;2.513999939E-1;6.669999957E-1
6.793568750E0;3.915999830E-1;2.626000047E-1;6.617999673E-1
6.813421875E0;3.999999762E-1;1.759999990E-1;4.791999757E-1
6.833275000E0;5.514000058E-1;1.682000011E-1;1.780999899E-1
6.853126562E0;6.940999627E-1;3.176999986E-1;7.800000161E-2
6.872979687E0;7.594000101E-1;4.186999798E-1;3.007999957E-1
6.892832812E0;9.526999593E-1;4.510999918E-1;5.672999620E-1
6.912685937E0;9.581999779E-1;4.145999849E-1;6.836999655E-1
6.932537500E0;8.919000030E-1;3.675999939E-1;5.789999962E-1
6.952390625E0;5.859999657E-1;3.689999878E-1;5.375999808E-1
6.972243750E0;3.364000022E-1;2.327999920E-1;5.023999810E-1
6.992095312E0;2.730000019E-1;-3.152999878E-1;4.078999758E-1
7.011948437E0;3.240000084E-2;-4.515999854E-1;2.874000072E-1
7.031801562E0;-1.279999912E-1;1.040000003E-2;-1.066999957E-1
7.051653125E0;1.669999957E-1;1.983999908E-1;-4.150999784E-1
7.071506250E0;4.142999947E-1;1.124999970E-1;-2.699999884E-2
7.091359375E0;3.960999846E-1;1.344999969E-1;6.004999876E-1
7.111212500E0;1.982999891E-1;2.148000002E-1;1.191799998E0
7.131064062E0;2.540999949E-1;1.767999977E-1;1.053200006E0
7.150917187E0;4.585999846E-1;1.287000030E-1;2.766000032E-1
7.170768750E0;7.554999590E-1;1.395999938E-1;-1.613999903E-1
7.190621875E0;1.133199930E0;4.279999807E-2;-2.404999882E-1
7.210475000E0;1.027199984E0;1.515000015E-1;-1.432999969E-1
7.230326562E0;9.415999651E-1;2.012999952E-1;-1.105000004E-1
7.250179687E0;8.994999528E-1;3.480000049E-2;-1.458999962E-1
7.270032812E0;1.031000018E0;-7.259999961E-2;-1.664000005E-1
7.289884375E0;1.226199985E0;-1.701999903E-1;-2.142999917E-1
7.309737500E0;1.345499992E0;1.630000025E-2;-3.204999864E-1
7.329590625E0;1.296499968E0;1.632999927E-1;-3.285000026E-1
7.349442187E0;9.878999591E-1;6.449999660E-2;-1.590999961E-1
7.369295312E0;4.905999899E-1;-1.727999896E-1;-1.127000004E-1
7.389148437E0;-8.850000054E-2;-4.804999828E-1;-2.000999898E-1
7.409000000E0;-6.437000036E-1;-4.362999797E-1;-5.080000162E-1
7.428853125E0;-7.369999886E-1;-4.426999986E-1;-9.950999618E-1
7.448706250E0;-6.419000030E-1;-5.493000150E-1;-1.523399949E0
7.468559375E0;-3.486000001E-1;-6.402999759E-1;-1.714199901E0
7.488410937E0;-4.279999807E-2;-6.172999740E-1;-1.516600013E0
7.508264062E0;3.545999825E-1;-2.178999931E-1;-7.114999890E-1
7.528117187E0;7.364999652E-1;2.563000023E-1;-2.673999965E-1
7.547968750E0;9.316999912E-1;5.703999996E-1;1.340000033E-1
7.567821875E0;6.929999590E-1;4.499000013E-1;2.372999936E-1
7.587675000E0;5.491999984E-1;9.229999781E-2;1.639000028E-1
7.607526562E0;6.143999696E-1;-7.840000093E-2;7.499999553E-2
7.627379687E0;3.412999809E-1;1.638000011E-1;1.177699924E0
7.647232812E0;-2.419999987E-1;4.785999954E-1;1.982099891E0
7.667085937E0;-8.804999590E-1;5.268999934E-1;1.642799973E0
7.686937500E0;-1.217599988E0;4.712999761E-1;1.003299952E0
7.706790625E0;-1.102499962E0;1.710999906E-1;8.131999969E-1
7.726643750E0;-6.913999915E-1;2.159999870E-2;5.327000022E-1
7.746495312E0;-4.765999913E-1;1.439999975E-2;5.095999837E-1
7.766348437E0;-2.734999955E-1;-1.829999872E-2;6.103999615E-1
7.786201562E0;-8.009999990E-2;6.819999963E-2;6.565999985E-1
7.806053125E0;7.239999622E-2;2.636999786E-1;1.010900021E0
7.825906250E0;1.694999933E-1;4.035999775E-1;9.017999768E-1
7.845759375E0;1.852999926E-1;4.195999801E-1;2.782999873E-1
7.865612500E0;2.685999870E-1;2.395000011E-1;2.021999955E-1
7.885464062E0;2.229999937E-2;3.125999868E-1;3.853999972E-1
7.905317187E0;-1.590999961E-1;3.555999994E-1;6.183999777E-1
7.925170312E0;-1.149999946E-1;3.315999806E-1;6.193000078E-1
7.945021875E0;6.709999591E-2;3.000999987E-1;4.632999897E-1
7.964875000E0;2.579999864E-1;3.666999936E-1;2.665999830E-1
7.984728125E0;3.513000011E-1;5.217999816E-1;3.143000007E-1
8.004579687E0;3.330000043E-1;4.016999900E-1;3.246999979E-1
8.024442187E0;2.928999960E-1;2.035999894E-1;3.041000068E-1
8.044285937E0;3.243999779E-1;3.792999983E-1;1.715999991E-1
8.064137500E0;5.245000124E-1;7.908999920E-1;-1.196999997E-1
8.083990625E0;8.200999498E-1;5.350999832E-1;-6.832000017E-1
8.103843750E0;9.858999848E-1;9.079999477E-2;-7.973999977E-1
8.123696875E0;7.584999800E-1;-8.249999583E-2;-1.328999996E-1
8.143548437E0;3.921999931E-1;-2.384999990E-1;-2.143999934E-1
8.163401562E0;4.101999998E-1;-4.846999943E-1;-1.032899976E0
8.183254687E0;8.672999740E-1;-5.196999907E-1;-1.431599975E0
8.203106250E0;1.451399922E0;4.580000043E-2;-8.305999637E-1
8.222959375E0;1.706200004E0;2.412000000E-1;-4.289000034E-1
8.242812500E0;1.900499940E0;-1.469999999E-1;-6.363999844E-1
8.262664062E0;1.427500010E0;-2.851999998E-1;-7.215999961E-1
8.282517187E0;7.732999921E-1;2.410000004E-2;-2.286999971E-1
8.302370312E0;5.009999871E-1;-1.970000006E-2;-1.102999970E-1
8.322223437E0;5.688999891E-1;-4.231999815E-1;-6.818999648E-1
8.342075000E0;9.335999489E-1;-3.651999831E-1;-3.930999935E-1
8.361928125E0;9.009000063E-1;2.806999981E-1;1.151799917E0
8.381781250E0;4.830999970E-1;6.410999894E-1;1.717999935E0
8.401632812E0;3.662999868E-1;5.724999905E-1;1.322499990E0
8.421485937E0;4.661999941E-1;5.060999990E-1;6.829000115E-1
8.441339062E0;5.006999969E-1;2.942000031E-1;5.170999765E-1
8.461190625E0;5.054000020E-1;-1.896999925E-1;4.588999748E-1
8.481043750E0;6.373999715E-1;-9.070000052E-2;1.401000023E-1
8.500895312E0;5.345000029E-1;5.302000046E-1;-8.029999584E-2
8.520748437E0;-6.079999730E-2;5.722999573E-1;-2.730000019E-2
8.540601562E0;-4.305000007E-1;-1.797000021E-1;-1.410000026E-1
8.560454687E0;-5.839999914E-1;-6.254999638E-1;-5.245999694E-1
8.580306250E0;-5.845000148E-1;-1.802999973E-1;-1.187799931E0
8.600159375E0;-3.800999820E-1;-1.995999962E-1;-2.084599972E0
8.620012500E0;-1.059999969E-2;-5.266000032E-1;-6.685999632E-1
8.639864062E0;5.909000039E-1;-4.242999852E-1;1.988499999E0
8.659717187E0;7.361999750E-1;-9.499999881E-2;1.380999923E0
8.679570312E0;5.583999753E-1;1.037999988E-1;-8.229999989E-2
8.699421875E0;5.115000010E-1;-2.277999967E-1;-8.202999830E-1
8.719275000E0;4.677999914E-1;-5.665000081E-1;4.799999893E-1
8.739128125E0;-2.331999987E-1;-1.156999990E-1;1.608699918E0
8.758979687E0;-6.791999936E-1;2.298999876E-1;1.062299967E0
8.778832812E0;5.464999676E-1;2.532999814E-1;2.492999882E-1
8.798685937E0;2.112799883E0;1.700999886E-1;1.897999942E-1
8.818539062E0;2.478600025E0;6.289999932E-2;1.149999946E-1
8.838390625E0;1.676999927E0;1.374000013E-1;1.641999930E-1
8.858243750E0;1.591999978E-1;1.494999975E-1;4.663999975E-1
8.878096875E0;-2.492999882E-1;2.339999974E-1;7.547000051E-1
8.897948437E0;2.581000030E-1;9.399999864E-3;7.411999702E-1
8.917801562E0;7.487999797E-1;-1.152999997E-1;7.015999556E-1
8.937654687E0;5.999000072E-1;1.513999999E-1;7.586999536E-1
8.957506250E0;1.129999980E-1;4.093999863E-1;1.155499935E0
8.977359375E0;1.600999981E-1;1.338000000E-1;1.029899955E0
8.997212500E0;4.619999826E-1;-2.827999890E-1;7.724999785E-1
9.017065625E0;7.360000014E-1;-3.037999868E-1;5.146999955E-1
9.036917187E0;7.526999712E-1;2.960000001E-2;2.918999791E-1
9.056770312E0;6.337999701E-1;3.158999979E-1;3.617999852E-1
9.076623437E0;4.885999858E-1;3.392999768E-1;5.182999969E-1
9.096475000E0;5.458999872E-1;2.269999869E-2;3.447999954E-1
9.116328125E0;6.719999909E-1;-2.327999920E-1;1.556999981E-1
9.136181250E0;6.829999685E-1;-1.964000016E-1;2.046999931E-1
9.156034375E0;4.242999852E-1;2.349999920E-2;5.059999973E-2
9.175885937E0;1.369999945E-1;-3.329999745E-2;-3.456999958E-1
9.195739062E0;1.621000022E-1;-4.831999838E-1;-6.204000115E-1
9.215590625E0;5.480000004E-2;-6.593999863E-1;-6.341999769E-1
9.235443750E0;-2.692999840E-1;-4.028999805E-1;-5.375999808E-1
9.255296875E0;-8.169999719E-2;-2.784999907E-1;-8.501999974E-1
9.275150000E0;5.680999756E-1;-1.023999974E-1;-9.086999893E-1
9.295001562E0;3.208999932E-1;6.319999695E-2;-6.870999932E-1
9.314854687E0;-2.085999995E-1;4.783999920E-1;-4.032999873E-1
9.334707812E0;-2.010999918E-1;7.810999751E-1;-4.930000007E-2
9.354559375E0;-1.939999908E-1;7.434999943E-1;5.507000089E-1
9.374412500E0;-2.978999913E-1;6.255999804E-1;0.000000000E0
9.394265625E0;-4.079999924E-1;6.854000092E-1;1.040000003E-2
9.414118750E0;-7.548999786E-1;6.958000064E-1;-1.092999950E-1
9.433970312E0;-1.184599996E0;6.517999768E-1;1.732999980E-1
9.453825000E0;-1.366999984E0;4.839999974E-1;5.386999846E-1
9.473676562E0;-1.219099998E0;2.293999940E-1;1.231999993E-1
9.493528125E0;-8.912000060E-1;1.955000013E-1;8.829999715E-2
9.513381250E0;-6.940999627E-1;4.754000008E-1;8.100000024E-2
9.533234375E0;-5.938000083E-1;4.578000009E-1;9.849999845E-2
9.553085937E0;-6.826999784E-1;3.752000034E-1;-4.839999974E-2
9.572939062E0;-4.672999978E-1;2.470999956E-1;-7.400000095E-2
9.592792187E0;-4.194999933E-1;1.357000023E-1;-9.479999542E-2
9.612645312E0;-5.216999650E-1;3.258000016E-1;-2.102999985E-1
9.632496875E0;-5.631999969E-1;4.758999944E-1;-4.928999841E-1
9.652350000E0;-1.821999997E-1;6.943999529E-1;-7.851999998E-1
9.672201562E0;2.967999876E-1;9.608999491E-1;-5.947999954E-1
9.692054687E0;3.079999983E-1;9.911999702E-1;-3.261999786E-1
9.711907812E0;2.502999902E-1;1.119300008E0;-2.400999963E-1
9.731760937E0;-7.159999758E-2;1.207499981E0;-8.519999683E-2
9.751612500E0;-7.427999973E-1;9.243999720E-1;-1.527999938E-1
9.771465625E0;-1.357199907E0;5.101999640E-1;-8.222000003E-1
9.791317187E0;-1.943899989E0;3.876000047E-1;-1.058699965E0
9.811170312E0;-1.962899923E0;-8.079999685E-2;-1.867100000E0
9.831023437E0;-1.528699994E0;-3.586999774E-1;-4.304500103E0
9.850876562E0;3.861999810E-1;-2.108399868E0;-5.304999828E0
9.870728125E0;1.972999930E0;-3.498600006E0;7.443999648E-1
9.890581250E0;-1.229900002E0;-2.039999887E-2;2.736999989E0
9.910440625E0;-4.385699749E0;3.964000046E-1;4.100299835E0
9.930285937E0;-5.238999844E0;-9.791999459E-1;3.110100031E0
9.950139062E0;-1.878399968E0;-1.436599970E0;4.529900074E0
9.969990625E0;1.284099936E0;-8.436999917E-1;3.040199995E0
9.989843750E0;2.475399971E0;3.551000059E-1;1.920099974E0
1.000969688E1;1.916899920E0;1.499799967E0;2.048199892E0
1.002955000E1;1.088500023E0;1.061999917E0;1.297899961E0
1.004940156E1;4.787999988E-1;4.258999825E-1;6.538999677E-1
1.006925469E1;-3.879999742E-2;7.549999654E-2;1.685099959E0
1.008910781E1;-1.396999955E-1;-4.125999808E-1;2.209599972E0
1.010895938E1;-5.229999870E-2;-6.819999814E-1;2.028599977E0
1.012881250E1;3.931999803E-1;-3.887999952E-1;1.302699924E0
1.014866563E1;1.019799948E0;2.732999921E-1;4.672999978E-1
1.016851875E1;2.468099833E0;2.342000008E-1;-3.894999921E-1
1.018837031E1;3.177599907E0;4.393000007E-1;-1.484200001E0
1.020822344E1;2.651599884E0;3.847999871E-1;-1.572299957E0
1.022807656E1;1.635599971E0;2.836999893E-1;-7.569999993E-2
1.024792813E1;5.102999806E-1;-1.212999970E-1;-1.252999902E-1
1.026778125E1;9.389999509E-2;-2.884999812E-1;-4.407999814E-1
1.028763438E1;6.619999558E-2;-4.472999871E-1;-4.731999934E-1
1.030748594E1;7.734000087E-1;-5.543000102E-1;-1.419000030E-1
1.032733906E1;1.316699982E0;-5.414999723E-1;1.414999962E-1
1.034719219E1;1.525399923E0;-1.929000020E-1;5.829999968E-2
1.036704531E1;1.599999905E0;6.363999844E-1;-5.424999595E-1
1.038689688E1;1.756799936E0;1.144799948E0;-1.289899945E0
1.040675000E1;2.184200048E0;4.812999964E-1;-1.502299905E0
1.042660313E1;2.540899992E0;-6.036999822E-1;-1.297399998E0
1.044645469E1;2.886199951E0;-5.200999975E-1;-1.440400004E0
1.046630781E1;3.940699816E0;-1.732999980E-1;-2.725699902E0
1.048616094E1;4.978399754E0;-9.793999791E-1;-3.582299948E0
1.050601250E1;5.442299843E0;-1.870999932E0;-3.342199802E0
1.052586562E1;5.582299709E0;-2.594799995E0;-5.117799759E0
1.054571875E1;5.757199764E0;-1.531399965E0;-1.194530010E1
1.056557188E1;6.484600067E0;8.639999628E-1;-1.299599934E1
1.058542344E1;4.057399750E0;1.902999878E-1;-4.018099785E0
1.060527656E1;4.028599739E0;-1.098999977E0;-3.088699818E0
1.062512969E1;4.428800106E0;-4.916699886E0;-3.952899933E0
1.064498125E1;7.833999991E-1;-1.053349972E1;-2.843199968E0
1.066483438E1;-4.175399780E0;-1.375979996E1;-3.379999995E-1
1.068468750E1;-7.549999714E0;-1.202919960E1;-8.100000024E-1
1.070453906E1;-7.658099651E0;-6.100100040E0;-1.634999961E-1
1.072439219E1;-6.498799801E0;-6.103000045E-1;-1.595000029E-1
1.074424531E1;-4.744400024E0;3.134799957E0;1.371799946E0
1.076409688E1;-3.977499962E0;4.656199932E0;3.995399952E0
1.078395000E1;-2.977099895E0;5.167999744E0;4.806200027E0
1.080380312E1;-1.338799953E0;4.598799706E0;2.720599890E0
1.082365469E1;-1.051499963E0;3.089900017E0;4.782999754E-1
1.084350781E1;-3.393699884E0;1.981899977E0;1.040599942E0
1.086335938E1;-5.289799690E0;2.404199839E0;2.086600065E0
1.088321406E1;-5.600699902E0;3.831099987E0;1.740199924E0
1.090306719E1;-3.569999933E0;4.338999748E0;1.723500013E0
1.092291875E1;-1.515200019E0;4.318500042E0;1.856999993E0
1.094277188E1;1.099300027E0;2.825599909E0;-2.383399963E0
1.096262344E1;5.437399864E0;1.215000004E-1;-7.660899639E0
1.098247656E1;8.351200104E0;-4.042399883E0;-9.484799385E0
1.100233594E1;7.786999702E0;-6.677299976E0;-8.382900238E0
1.102218125E1;6.047899723E0;-3.006199837E0;-1.009560013E1
1.104203438E1;2.220799923E0;2.620999813E-1;-5.557799816E0
1.106189531E1;-7.734999657E-1;-7.091999650E-1;3.935699940E0
1.108173906E1;-3.855899811E0;-3.595199823E0;7.394999981E0
1.110159219E1;-5.775899887E0;-6.605499744E0;7.738899708E0
1.112144531E1;-7.150599957E0;-4.388899803E0;4.935999870E0
1.114129688E1;-8.249499321E0;-8.233999610E-1;-8.579999804E-1
1.116115000E1;-5.607299805E0;9.116999507E-1;6.359999776E-1
1.118100312E1;-2.504600048E0;2.369400024E0;3.120999813E0
1.120085469E1;-1.546100020E0;1.244799972E0;4.380599976E0
1.122070781E1;-3.023999929E-1;4.648000002E-1;4.530900002E0
1.124056094E1;1.799799919E0;2.859999835E-1;6.218499660E0
1.126041250E1;3.735799789E0;4.842999876E-1;2.448099852E0
1.128026562E1;4.248499870E0;1.163599968E0;-2.929399967E0
1.130011875E1;3.563399792E0;1.405099988E0;-5.388199806E0
1.131997031E1;2.210000038E0;8.689000010E-1;-5.454199791E0
1.133982344E1;1.605999947E0;4.614999890E-1;-3.049499989E0
1.135967656E1;1.118999958E0;3.531000018E-1;-1.172199965E0
1.137952969E1;7.458999753E-1;1.292999983E-1;-6.319999695E-1
1.139938125E1;1.938999891E-1;8.356999755E-1;-9.366999865E-1
1.141923438E1;4.149999917E-1;7.078999877E-1;-1.324499965E0
1.143908750E1;5.489999652E-1;-4.099999741E-2;-1.563099980E0
1.145893906E1;1.563999951E-1;-2.818000019E-1;-1.225199938E0
1.147879219E1;-3.298999965E-1;-2.008000016E-1;-1.037299991E0
1.149864531E1;5.169000030E-1;-1.272999942E-1;-2.119400024E0
1.151849844E1;3.215199947E0;2.254999876E-1;-3.021999836E0
1.153835000E1;5.073100090E0;7.134999633E-1;-2.655299902E0
1.155820312E1;6.847599983E0;8.258999586E-1;-3.030099869E0
1.157805625E1;9.013500214E0;6.571999788E-1;-1.984999895E0
1.159790781E1;9.513400078E0;1.618600011E0;-3.211599827E0
1.161776094E1;8.608900070E0;2.568399906E0;-8.335599899E0
1.163761406E1;1.046189976E1;2.054199934E0;-1.908999920E0
1.165746562E1;8.725199699E0;-6.888999939E-1;1.188799977E0
1.167731875E1;7.003699780E0;-6.176099777E0;1.712899923E0
1.169717188E1;1.481799960E0;-1.324230003E1;-1.343299985E0
1.171702500E1;-6.175399780E0;-2.195419884E1;-1.651029968E1
1.173687656E1;-8.070699692E0;-1.943009949E1;-4.858399868E0
1.175672969E1;-5.955100060E0;-9.860799789E0;5.218999982E-1
1.177658281E1;-4.560599804E0;-4.287699699E0;5.939999819E-1
1.179643438E1;-1.958399892E0;-1.478899956E0;1.066999957E-1
1.181628750E1;-6.676999927E-1;-1.313399911E0;-3.935999870E-1
1.183614062E1;-2.206599951E0;-3.066099882E0;1.242299914E0
1.185599219E1;-2.786999941E-1;-2.752799988E0;-1.434099913E0
1.187584531E1;1.377599955E0;-2.001899958E0;-1.750999928E0
1.189569844E1;-1.662999988E-1;-2.520900011E0;1.910899997E0
1.191555156E1;-2.824699879E0;-1.563199997E0;4.063899994E0
1.193540312E1;-5.478799820E0;2.419999987E-1;4.593699932E0
1.195525625E1;-7.986499786E0;1.585600019E0;4.251199722E0
1.197510938E1;-8.993399620E0;2.664899826E0;4.858599663E0
1.199496094E1;-8.960999489E0;3.650899887E0;3.851399899E0
1.201481406E1;-7.464999676E0;4.684499741E0;3.744699955E0
1.203466719E1;-5.360899925E0;4.394799709E0;1.719900012E0
1.205451875E1;-1.737199903E0;2.478999853E0;3.545999825E-1
1.207437188E1;-5.457999706E-1;-1.053599954E0;-1.335999966E-1
1.209422500E1;2.093999982E-1;-3.493399858E0;1.306399941E0
1.211407812E1;4.849999845E-1;-2.342399836E0;1.213299990E0
1.213392969E1;-3.955999911E-1;-3.570000082E-2;1.524000019E-1
1.215378594E1;-5.620299816E0;7.634999752E-1;-1.100299954E0
1.217363438E1;-7.189499855E0;1.027400017E0;2.043999881E-1
1.219348750E1;-1.523899913E0;-4.904699802E0;4.055999815E-1
1.221334062E1;4.527199745E0;-1.004360008E1;5.270099640E0
1.223319219E1;1.141899943E0;-8.292799950E0;-1.060769939E1
1.225304531E1;-1.047299981E0;-2.389299870E0;5.632999897E0
1.227289844E1;-1.659500003E0;1.195999980E-1;-1.973999888E-1
1.229275156E1;-2.216899872E0;-9.870999455E-1;2.976899862E0
1.231260312E1;-3.129199982E0;-2.738800049E0;2.793699980E0
1.233245625E1;-2.192600012E0;-2.808799982E0;1.242100000E0
1.235230938E1;-1.389400005E0;-2.128499985E0;1.771799922E0
1.237216094E1;-6.300000101E-2;-1.630999923E0;2.294199944E0
1.239201406E1;1.844499946E0;-1.440999985E0;1.452799916E0
1.241186719E1;3.471799850E0;-7.840999961E-1;5.921999812E-1
1.243171875E1;3.404799938E0;-2.029999942E-1;2.476999909E-1
1.245157188E1;3.337100029E0;3.472999930E-1;2.559999935E-2
1.247142344E1;2.737900019E0;5.605999827E-1;-6.509999931E-2
1.249128281E1;1.358299971E0;6.707999706E-1;-1.532199979E0
1.251112969E1;6.471999884E-1;6.923999786E-1;-2.761099815E0
1.253098281E1;8.703999519E-1;1.814000010E-1;-1.113799930E0
1.255083438E1;1.514499903E0;2.491999865E-1;2.529999986E-2
1.257068750E1;2.767400026E0;4.684999883E-1;7.816999555E-1
1.259054063E1;4.476999760E0;-5.110999942E-1;1.299999934E-2
1.261039219E1;6.199399948E0;-1.314199924E0;-1.996999979E0
1.263024531E1;7.011099815E0;-1.240100026E0;-3.869799852E0
1.265009844E1;7.600999832E0;-7.974999547E-1;-5.941299915E0
1.266995156E1;5.576299667E0;6.309999526E-2;-6.710399628E0
1.268980313E1;2.808399916E0;-9.748999476E-1;-3.719199896E0
1.270965625E1;1.298699975E0;-2.380199909E0;-7.246999741E0
1.272950938E1;3.433300018E0;-1.550699949E0;-4.365499973E0
1.274936094E1;2.882200003E0;-1.861400008E0;2.356199980E0
1.276921406E1;2.646699905E0;-3.740499973E0;1.624699950E0
1.278906719E1;1.287599921E0;-5.142600060E0;1.989499927E0
1.280892031E1;-5.281999707E-1;-4.973899841E0;-9.905999899E-1
1.282877188E1;-2.247200012E0;-1.942099929E0;-5.832699776E0
1.284862500E1;-2.188099861E0;4.363999963E-1;-3.086499929E0
1.286847813E1;9.514999986E-1;1.689899921E0;4.208999872E-1
1.288832969E1;2.706399918E0;9.675999880E-1;2.055700064E0
1.290818281E1;1.161199927E0;-4.418999851E-1;4.065700054E0
1.292803594E1;-2.553499937E0;-1.016700029E0;-3.269199848E0
1.294788750E1;-6.048899651E0;-1.029799938E0;-2.869099855E0
1.296774063E1;-8.917900085E0;-8.269000053E-1;3.839599848E0
1.298759375E1;-8.929100037E0;1.426499963E0;3.535699844E0
1.300744688E1;-7.944399834E0;2.229500055E0;1.614799976E0
1.302729844E1;-6.048500061E0;3.627099991E0;5.174799919E0
1.304715000E1;-4.763199806E0;4.018399715E0;6.947499752E0
1.306700469E1;-5.593199730E0;2.459100008E0;7.162699699E0
1.308685625E1;-6.493299961E0;1.883699894E0;1.936800003E0
1.310671094E1;-4.611799717E0;-1.350600004E0;2.070199966E0
1.312656250E1;-6.213999987E-1;-6.963899612E0;9.702499390E0
1.314641406E1;7.814599991E0;-1.051840019E1;-2.894099951E0
1.316626719E1;6.118899822E0;-8.306200027E0;-4.596899986E0
1.318612031E1;4.168799877E0;-3.619199991E0;-7.899699688E0
1.320597188E1;1.218999982E0;1.890999973E-1;-1.686899900E0
1.322582500E1;-1.711999923E-1;2.702800035E0;3.066999912E-1
1.324567813E1;-2.022999972E-1;2.242699862E0;1.220999956E-1
1.326553125E1;1.899999916E-3;-7.090000063E-2;-3.307999969E-1
1.328538906E1;-4.605000019E-1;1.840000041E-2;3.482999802E-1
1.330523594E1;-1.843999922E-1;1.141299963E0;7.536999583E-1
1.332508906E1;1.214900017E0;1.649299979E0;8.219999671E-1
1.334494063E1;2.387099981E0;1.577600002E0;1.105199933E0
1.336479375E1;2.188099861E0;1.631699920E0;2.037999928E-1
1.338464688E1;7.956999540E-1;1.838199973E0;-1.907899976E0
1.340450156E1;2.087999880E-1;1.981899977E0;-1.666700006E0
1.342435156E1;-5.676000118E-1;8.606999516E-1;-4.979999959E-1
1.344420469E1;-7.329999804E-1;4.279999807E-2;4.393000007E-1
1.346405781E1;2.636999786E-1;-8.557999730E-1;6.101999879E-1
1.348391406E1;2.207900047E0;-1.472100019E0;2.504600048E0
1.350376250E1;3.296900034E0;-2.132599831E0;2.437299967E0
1.352361406E1;4.677499771E0;-2.144899845E0;1.150300026E0
1.354346719E1;5.355000019E0;-3.541599989E0;-1.175300002E0
1.356332031E1;6.823999882E0;-4.079599857E0;-7.037799835E0
1.358317188E1;4.785999775E0;-2.954499960E0;-1.298880005E1
1.360302500E1;3.023999929E0;-2.326799870E0;-4.187799931E0
1.362287813E1;2.305500031E0;-3.352599859E0;-6.086999774E-1
1.364272969E1;2.432299852E0;-1.498799920E0;-4.673999786E0
1.366258281E1;4.678800106E0;1.342199922E0;-3.612900019E0
1.368243594E1;4.541899681E0;9.824000001E-1;-8.545999527E-1
1.370228750E1;4.149799824E0;-8.797999620E-1;2.336999893E0
1.372214063E1;1.132200003E0;-2.528800011E0;1.140999913E0
1.374199375E1;-1.841099977E0;-2.627199888E0;-3.303699970E0
1.376184688E1;-1.258700013E0;-1.712700009E0;-3.960799932E0
1.378169844E1;-6.764000058E-1;-1.320500016E0;-2.003299952E0
1.380155156E1;2.054999918E-1;-3.473999798E-1;-1.636699915E0
1.382140469E1;2.201400042E0;-1.005599976E0;8.988999724E-1
1.384125625E1;1.920699954E0;-1.730799913E0;3.202899933E0
1.386110938E1;-3.246999979E0;-2.088000059E0;-2.847699881E0
1.388096250E1;-6.125299931E0;-1.322700024E0;-6.168000102E-1
1.390081406E1;-8.314199448E0;-4.299999774E-2;4.409800053E0
1.392066719E1;-8.442500114E0;1.703299999E0;2.816699982E0
1.394052031E1;-6.990799904E0;1.502099991E0;1.867100000E0
1.396037188E1;-5.909399986E0;1.777199984E0;3.753000021E0
1.398022500E1;-5.975299835E0;2.857300043E0;6.416999817E0
1.400007813E1;-6.607199669E0;2.496799946E0;5.104599953E0
1.401994844E1;-8.268799782E0;2.255399942E0;-2.304299831E0
1.403978281E1;-2.587999821E0;-2.502000034E-1;3.580399990E0
1.405963594E1;1.077600002E0;-5.145299911E0;1.142630005E1
1.407948906E1;7.836899757E0;-6.884599686E0;1.307899952E0
1.409934063E1;6.408699989E0;-8.264100075E0;-4.607599735E0
1.411919375E1;3.747799873E0;-4.039799690E0;-1.055669975E1
1.413904688E1;3.624999821E-1;1.273599982E0;-3.874199867E0
1.415890000E1;-1.350600004E0;2.703999996E0;9.361000061E-1
1.417875156E1;-9.637999535E-1;2.196699858E0;2.191400051E0
1.419860469E1;7.131999731E-1;8.962000012E-1;1.977499962E0
1.421845781E1;9.156999588E-1;2.599999867E-2;1.125599980E0
1.423830938E1;1.134699941E0;3.100999892E-1;6.546999812E-1
1.425816250E1;1.129400015E0;9.704999924E-1;4.289999977E-2
1.427801562E1;1.891199946E0;1.074999928E0;-1.678999960E-1
1.429786719E1;9.984999895E-1;4.669999778E-1;-4.575999975E-1
1.431772031E1;3.534999788E-1;2.123999894E-1;-1.092100024E0
1.433757344E1;-3.763999939E-1;-7.629999518E-2;-9.959999472E-2
1.435742656E1;-5.120999813E-1;-1.339599967E0;3.306999803E-1
1.437727812E1;1.264999986E0;-2.924799919E0;3.962999880E-1
1.439712969E1;3.256599903E0;-3.544199944E0;2.918299913E0
1.441698438E1;4.574500084E0;-4.119800091E0;1.953399897E0
1.443683594E1;4.580100060E0;-3.739899874E0;-1.527199984E0
1.445668750E1;4.392799854E0;-1.905900002E0;-9.956099510E0
1.447654219E1;3.725600004E0;9.480999708E-1;-8.550499916E0
1.449639375E1;2.010299921E0;1.462199926E0;-4.458699703E0
1.451624688E1;3.639299870E0;1.412299991E0;-5.737099648E0
1.453610000E1;3.981699944E0;1.722399950E0;-1.934999973E-1
1.455595312E1;4.439899921E0;3.736899853E0;1.186999917E0
1.457580469E1;7.360899925E0;3.746699810E0;-3.262899876E0
1.459565781E1;6.204099655E0;-4.547999799E-1;4.939999878E-1
1.461551094E1;1.668900013E0;-5.304899693E0;-1.266600013E0
1.463536250E1;-4.192800045E0;-7.825599670E0;-7.598499775E0
1.465521562E1;-4.297800064E0;-5.248300076E0;-4.471899986E0
1.467506875E1;1.278299928E0;-9.817000031E-1;3.522999883E-1
1.469492031E1;1.643799901E0;-1.882799983E0;3.014400005E0
1.471477344E1;6.589999795E-1;-3.236299992E0;7.538999915E-1
1.473462656E1;1.491899967E0;-3.240799904E0;-3.150699854E0
1.475447969E1;-1.406099916E0;-2.674700022E0;-4.256700039E0
1.477433125E1;-4.036099911E0;-2.141599894E0;-1.146299958E0
1.479418438E1;-6.573599815E0;-1.109399915E0;2.032999992E0
1.481403594E1;-7.466199875E0;1.410399914E0;3.234200001E0
1.483388906E1;-7.846299648E0;3.003999949E0;4.702600002E0
1.485374219E1;-7.984499931E0;4.057799816E0;5.319099903E0
1.487359375E1;-8.211899757E0;3.352999926E0;4.302000046E0
1.489344688E1;-6.346699715E0;2.067199945E0;3.988099813E0
1.491329844E1;-4.068200111E0;9.987999797E-1;2.583099842E0
1.493315156E1;-1.617799997E0;1.293699980E0;4.724999964E-1
1.495300469E1;-7.193999887E-1;-6.888999939E-1;6.772099972E0
1.497285781E1;3.580799818E0;-6.721000075E-1;3.574299812E0
1.499270938E1;5.224799633E0;-2.474699974E0;-9.776999950E-1
1.501256250E1;1.438300014E0;-6.716399670E0;-3.831199884E0
1.503241562E1;7.002999783E-1;-4.604499817E0;-4.119800091E0
1.505226719E1;-4.193999767E-1;5.636999607E-1;-6.366999745E-1
1.507212031E1;-6.574999690E-1;3.078199863E0;1.667999983E0
1.509197344E1;-2.205999941E-1;1.440699935E0;5.430999994E-1
1.511182656E1;6.250000000E-1;-7.777000070E-1;-3.260999918E-1
1.513167812E1;1.771999955E0;-1.172500014E0;-4.431999922E-1
1.515153125E1;2.748199940E0;-5.353999734E-1;1.372999996E-1
1.517138438E1;3.013000011E0;2.309999913E-1;3.883000016E-1
1.519123594E1;2.267400026E0;1.260000002E-2;-6.780000031E-2
1.521108906E1;8.312999606E-1;-2.741000056E-1;-6.480999589E-1
1.523094219E1;9.860000014E-2;-9.113999605E-1;-1.274999976E-1
1.525079375E1;7.819999754E-2;-2.608500004E0;1.135399938E0
1.527064688E1;1.113099933E0;-4.206699848E0;1.255399942E0
1.529050000E1;2.102200031E0;-3.916999817E0;1.082899928E0
1.531035312E1;2.244199991E0;-2.978899956E0;-7.930999994E-1
1.533020469E1;2.710399866E0;-1.339999914E0;-2.338899851E0
1.535005781E1;3.746799946E0;7.673999667E-1;-2.011600018E0
1.536990938E1;3.216099977E0;3.081199884E0;-2.438799858E0
1.538976250E1;3.070199966E0;4.293799877E0;-3.459800005E0
1.540961562E1;2.187000036E0;3.625299931E0;-4.113999844E0
1.542946875E1;1.415599942E0;1.475099921E0;-6.543399811E0
1.544932031E1;4.120199680E0;1.654500008E0;-6.019299984E0
1.546917344E1;4.957900047E0;1.569199920E0;-2.129699945E0
1.548902656E1;5.588500023E0;1.115000010E0;-1.491500020E0
1.550887969E1;5.078999996E0;-1.211599946E0;2.139799833E0
1.552873125E1;1.797499895E0;-5.167599678E0;-1.243799925E0
1.554858438E1;-4.426499844E0;-8.158699989E0;-1.282259941E1
1.556843750E1;-5.675699711E0;-6.647699833E0;-6.159100056E0
1.558828906E1;-2.996999919E-1;-2.267699957E0;3.745999932E-1
1.560814219E1;4.430999756E-1;-1.402499914E0;4.605000019E0
1.562799531E1;1.069700003E0;-1.455099940E0;2.632200003E0
1.564784844E1;4.193799973E0;-1.935199976E0;-3.111199856E0
1.566770313E1;1.832699895E0;-3.055599928E0;-5.018199921E0
1.568755312E1;-2.385599852E0;-3.256999969E0;-2.052299976E0
1.570740625E1;-5.877399921E0;-1.506500006E0;3.445099831E0
1.572725781E1;-8.198699951E0;1.327399969E0;4.583600044E0
1.574711094E1;-8.022199631E0;3.318199873E0;4.233200073E0
1.576696563E1;-6.648999691E0;3.771699905E0;4.170499802E0
1.578681563E1;-6.720699787E0;2.790400028E0;5.297299862E0
1.580666875E1;-5.531300068E0;2.963500023E0;6.526599884E0
1.582652188E1;-3.842499971E0;3.051199913E0;5.518499851E0
1.584637344E1;-2.406499863E0;2.057800055E0;-5.889999866E-2
1.586622656E1;-8.508999944E-1;1.274999976E-1;3.284699917E0
1.588607969E1;2.802799940E0;-1.040799975E0;5.515799999E0
1.590593281E1;7.004799843E0;-4.169799805E0;-1.796999931E0
1.592578438E1;3.111999989E0;-7.472299576E0;-4.925600052E0
1.594563750E1;1.933799982E0;-1.818099976E0;-5.806099892E0
1.596549063E1;2.648999989E-1;3.304499865E0;-2.574199915E0
1.598534219E1;-5.706999898E-1;3.923499823E0;9.738000035E-1
1.600519531E1;-8.563999534E-1;1.653999925E0;2.323899984E0
1.602504844E1;1.589999944E-1;9.290000051E-2;1.546999931E0
1.604490000E1;1.218500018E0;-2.282999903E-1;8.407999873E-1
1.606475312E1;2.173599958E0;-2.330999970E-1;7.585999966E-1
1.608460625E1;3.048199892E0;-5.353999734E-1;1.309999973E-1
1.610445781E1;1.703599930E0;-1.185899973E0;3.028999865E-1
1.612431094E1;2.074999958E-1;-2.062399864E0;-7.979999483E-2
1.614416406E1;-8.341999650E-1;-3.269099951E0;-7.073000073E-1
1.616401562E1;-1.219099998E0;-4.160099983E0;-1.666999906E-1
1.618386875E1;1.326999962E-1;-4.209799767E0;7.445999980E-1
1.620372188E1;2.037699938E0;-4.229300022E0;7.562999725E-1
1.622357344E1;3.985599995E0;-3.773399830E0;-4.919999838E-2
1.624342656E1;3.461699963E0;-1.538100004E0;-6.656999588E-1
1.626327969E1;2.610899925E0;1.431599975E0;-2.710599899E0
1.628313125E1;2.656499863E0;4.127399921E0;-5.034699917E0
1.630298438E1;3.722800016E0;5.051300049E0;-5.335000038E0
1.632283750E1;3.777199984E0;3.585299969E0;-4.265100002E0
1.634268906E1;4.480499744E0;2.371799946E0;-5.399300098E0
1.636254219E1;4.765899658E0;1.727100015E0;-1.205399990E0
1.638239531E1;4.140199661E0;3.141999841E-1;-4.429000020E-1
1.640224688E1;4.549599648E0;-1.341499925E0;-2.129999995E-1
1.642210000E1;3.605799913E0;-3.797599792E0;1.498499990E0
1.644195312E1;-6.941999793E-1;-6.105599880E0;-2.799000025E0
1.646180625E1;-5.143799782E0;-6.630799770E0;-9.947599411E0
1.648165781E1;-3.511999846E0;-4.414599895E0;-5.118199825E0
1.650151094E1;2.883000076E-1;-1.251899958E0;-3.229999840E-1
1.652136406E1;1.958699942E0;-9.196999669E-1;1.668599963E0
1.654121562E1;3.718199968E0;-2.327899933E0;-6.893999577E-1
1.656106875E1;8.715999722E-1;-2.286999941E0;-2.157199860E0
1.658092188E1;-1.194899917E0;-1.414199948E0;-2.239099979E0
1.660077344E1;-3.394099951E0;-6.771999598E-1;1.788499951E0
1.662062656E1;-6.567499638E0;5.601999760E-1;3.181599855E0
1.664047969E1;-7.240900040E0;2.671499968E0;2.670799971E0
1.666033281E1;-7.974799633E0;2.517899990E0;3.022199869E0
1.668018438E1;-7.017799854E0;2.032199860E0;5.994599819E0
1.670003750E1;-5.513000011E0;1.925799966E0;7.878299713E0
1.671989062E1;-6.900799751E0;1.564399958E0;4.060699940E0
1.673974219E1;-5.094599724E0;4.591099739E0;2.763399839E0
1.675959531E1;9.673999548E-1;5.335399628E0;3.733699799E0
1.677944844E1;2.988600016E0;-3.499999875E-3;6.505899906E0
1.679930156E1;7.304599762E0;-5.914000034E0;4.780900002E0
1.681915312E1;4.024699688E0;-9.297800064E0;-3.709199905E0
1.683900625E1;1.548299909E0;-3.264400005E0;-1.245989990E1
1.685885781E1;-5.189999938E-2;2.769799948E0;-4.876599789E0
1.687871094E1;-7.459999621E-2;3.386299849E0;1.719399929E0
1.689856406E1;7.318999767E-1;1.605999947E0;2.557899952E0
1.691841719E1;2.601000071E-1;-2.631999850E-1;7.681999803E-1
1.693826875E1;4.884999990E-1;-8.425999880E-1;-2.769999802E-1
1.695812188E1;3.646999896E-1;5.699999630E-3;-1.190599918E0
1.697797500E1;6.340000033E-1;8.075000048E-1;-3.777999878E-1
1.699782812E1;5.449000001E-1;2.373999953E-1;-8.599999361E-3
1.701767969E1;3.529999778E-2;-7.412999868E-1;2.799999900E-2
1.703753281E1;-5.970000029E-1;-2.392199993E0;3.218999803E-1
1.705738750E1;-6.509999633E-1;-3.953699827E0;-1.999999881E-1
1.707723750E1;3.185999990E-1;-4.737400055E0;-1.340000033E-1
1.709709062E1;1.145900011E0;-4.098099709E0;1.123999953E-1
1.711694375E1;1.845899940E0;-3.083499908E0;2.504999936E-1
1.713679531E1;2.380300045E0;-2.652899981E0;6.202999949E-1
1.715664844E1;2.728099823E0;-1.811599970E0;4.781999886E-1
1.717650156E1;2.868499994E0;2.406999916E-1;-1.649899960E0
1.719635312E1;2.853399992E0;2.474200010E0;-3.985099792E0
1.721620625E1;3.086899996E0;3.879699945E0;-4.903299809E0
1.723605938E1;3.772099972E0;2.654500008E0;-4.080800056E0
1.725591875E1;4.401299953E0;2.118099928E0;-3.973099947E0
1.727576406E1;4.005499840E0;1.459499955E0;6.409999728E-2
1.729561719E1;5.093100071E0;1.084100008E0;-2.610699892E0
1.731547031E1;5.295499802E0;-1.585000008E-1;-2.886699915E0
1.733532188E1;3.913199902E0;-2.579599857E0;-1.597000003E0
1.735517500E1;-3.515999913E-1;-4.017899990E0;-3.220499992E0
1.737502812E1;-2.819299936E0;-3.780200005E0;-3.669999838E0
1.739487969E1;-1.143899918E0;-2.089400053E0;-4.476299763E0
1.741473281E1;-8.072999716E-1;-1.050599933E0;4.968999922E-1
1.743458438E1;1.058799982E0;-5.939999819E-1;-2.344399929E0
1.745443750E1;2.380100012E0;-1.231999993E0;1.019999981E-1
1.747429063E1;3.005999923E-1;-1.960500002E0;-1.134899974E0
1.749414375E1;-7.950999737E-1;-1.948899984E0;-1.906599998E0
1.751399531E1;-2.138599873E0;-2.200599909E0;1.180299997E0
1.753384844E1;-5.315799713E0;-1.345399976E0;2.306200027E0
1.755370000E1;-6.212800026E0;7.651000023E-1;1.447600007E0
1.757355469E1;-6.014100075E0;1.178200006E0;1.145299911E0
1.759340625E1;-5.920099735E0;7.917000055E-1;2.914199829E0
1.761326875E1;-6.493399620E0;1.390999913E0;5.317100048E0
1.763311094E1;-7.265999794E0;2.201799870E0;7.626299858E0
1.765296406E1;-6.267999649E0;2.094799995E0;6.152799606E0
1.767281719E1;-3.299799919E0;4.072000027E0;-2.034100056E0
1.769266875E1;3.870299816E0;1.312099934E0;3.575599909E0
1.771252188E1;2.250599861E0;-3.516199827E0;4.371399879E0
1.773237500E1;6.903499603E0;-4.567199707E0;-6.819999963E-2
1.775222813E1;3.132900000E0;-7.108299732E0;-5.509999752E0
1.777207969E1;-1.370999962E-1;-2.065000057E0;-4.807300091E0
1.779193281E1;-1.287500024E0;3.775099993E0;-1.206099987E0
1.781178594E1;-6.622999907E-1;4.408199787E0;-1.411999911E-1
1.783163750E1;4.526999891E-1;8.294999599E-1;9.564999938E-1
1.785149062E1;8.828999996E-1;-1.225899935E0;1.323999912E-1
1.787134375E1;7.598999739E-1;-5.798999667E-1;-3.015999794E-1
1.789119531E1;6.018999815E-1;2.795999944E-1;-9.899999946E-3
1.791104844E1;2.199999988E-1;5.446000099E-1;1.524000019E-1
1.793090156E1;8.247999549E-1;1.467999965E-1;1.049999952E0
1.795075313E1;1.029500008E0;-8.553999662E-1;1.026999950E0
1.797060625E1;3.878999949E-1;-1.444499969E0;4.697999954E-1
1.799045938E1;8.630000055E-2;-2.158200026E0;3.385999799E-1
1.801031250E1;1.494999975E-1;-3.987799883E0;1.611000001E-1
1.803016406E1;8.427000046E-1;-5.363699913E0;5.594999790E-1
1.805001719E1;1.664799929E0;-5.720200062E0;-5.848999619E-1
1.806987031E1;2.653399944E0;-4.107699871E0;-1.347800016E0
1.808972188E1;2.724799871E0;-1.486899972E0;-1.015200019E0
1.810957500E1;2.944900036E0;8.786999583E-1;-1.438499928E0
1.812942812E1;4.307300091E0;3.026399851E0;-2.407199860E0
1.814928125E1;5.377099991E0;4.898399830E0;-3.232399940E0
1.816913281E1;5.893899918E0;4.877299786E0;-4.321599960E0
1.818898594E1;6.013599873E0;4.834700108E0;-6.933899879E0
1.820883906E1;5.946300030E0;3.686599970E0;-3.362900019E0
1.822869063E1;5.692499638E0;8.368999958E-1;-1.409399986E0
1.824854375E1;4.210400105E0;-8.040999770E-1;-3.692600012E0
1.826839688E1;3.258299828E0;-3.693300009E0;-2.194700003E0
1.828824844E1;2.030999959E-1;-7.227499962E0;-3.287000060E-1
1.830810156E1;-3.378599882E0;-7.511299610E0;3.437999785E-1
1.832795469E1;-4.864999950E-1;-5.156799793E0;-5.333699703E0
1.834780625E1;9.554999471E-1;-4.010699749E0;-5.039899826E0
1.836765938E1;1.337999940E0;-2.970000029E0;-3.351899862E0
1.838751250E1;2.582200050E0;-2.271499872E0;-1.514699936E0
1.840736562E1;1.688499928E0;-1.990999937E0;3.173499823E0
1.842721719E1;-1.130100012E0;-1.949899912E0;-2.732800007E0
1.844707188E1;-2.257599831E0;-1.488699913E0;-2.300299883E0
1.846692344E1;-5.467700005E0;-1.287599921E0;4.606499672E0
1.848677500E1;-8.215999603E0;7.933999896E-1;4.570399761E0
1.850662813E1;-9.477199554E0;2.652199984E0;2.963500023E0
1.852648125E1;-9.007299423E0;3.661000013E0;2.955600023E0
1.854634063E1;-7.933099747E0;3.622999907E0;2.821899891E0
1.856618594E1;-6.166699886E0;2.932499886E0;2.126600027E0
1.858603906E1;-4.148799896E0;2.957700014E0;5.133000016E-1
1.860589062E1;-1.738699913E0;3.872399807E0;1.734099984E0
1.862574375E1;-4.115999937E-1;4.079100132E0;1.817099929E0
1.864559688E1;5.572999716E-1;2.651000023E0;6.390999556E-1
1.866545000E1;2.108700037E0;1.060799956E0;1.133999974E-1
1.868530156E1;4.686199665E0;-1.008000016E0;5.294099808E0
1.870515313E1;-6.556000113E-1;-1.148899913E0;4.359999657E0
1.872500781E1;3.089599848E0;-1.244199991E0;-6.429800034E0
1.874485938E1;-1.740999967E-1;-1.115520000E1;2.977999926E0
1.876471250E1;4.745000005E-1;-2.825000048E0;-3.772799969E0
1.878456563E1;-2.846999884E0;4.605999947E0;-4.169999957E-1
1.880441719E1;-9.679999948E-2;3.358999789E-1;1.249799967E0
1.882427031E1;1.318999976E-1;-3.123899937E0;-2.235199928E0
1.884412344E1;-2.210000008E-1;-2.516499996E0;-2.615799904E0
1.886397500E1;-1.143700004E0;-9.854999781E-1;-3.067999840E0
1.888382812E1;-1.645699978E0;-2.290999889E-1;-1.735399961E0
1.890368125E1;-1.597000003E0;2.779999934E-2;-5.471000075E-1
1.892353281E1;-1.337899923E0;2.407999933E-1;3.091999888E-1
1.894338594E1;-5.841000080E-1;4.253000021E-1;1.462499976E0
1.896323906E1;1.819999889E-2;3.719999790E-1;2.222199917E0
1.898309063E1;6.548999548E-1;1.790999919E-1;2.378399849E0
1.900294375E1;1.135800004E0;3.366999924E-1;1.726199985E0
1.902279688E1;1.566900015E0;2.362999916E-1;-2.848999798E-1
1.904264844E1;6.326999664E-1;6.873999834E-1;-2.711599827E0
1.906250156E1;-6.143999696E-1;7.825999856E-1;-3.331099987E0
1.908235469E1;-9.582999945E-1;5.999999866E-2;-2.093400002E0
1.910220625E1;-4.984999895E-1;-5.558999777E-1;-1.209800005E0
1.912205938E1;-1.733999997E-1;-2.301999927E-1;-8.847000003E-1
1.914191250E1;1.127999946E-1;4.820999801E-1;-6.431999803E-1
1.916176562E1;4.991999865E-1;8.895999789E-1;-3.831999898E-1
1.918161719E1;1.016600013E0;9.619999528E-1;-2.705000043E-1
1.920147031E1;1.539099932E0;8.055999875E-1;-2.375999987E-1
1.922132344E1;1.622999907E0;9.837999940E-1;-2.513000071E-1
1.924117500E1;1.853299975E0;1.495000005E0;1.246999949E-1
1.926102813E1;1.912799954E0;1.773599982E0;-5.151999593E-1
1.928088125E1;1.855599999E0;1.531700015E0;-1.921999931E0
1.930073438E1;1.250399947E0;3.183999956E-1;-2.953299999E0
1.932058594E1;9.829999804E-1;-3.905999959E-1;-3.609200001E0
1.934043906E1;1.916199923E0;-3.190000057E-1;-3.559499979E0
1.936029219E1;2.674299955E0;-6.574999690E-1;-1.917799950E0
1.938014375E1;5.211400032E0;-1.048200011E0;1.436800003E0
1.939999688E1;7.947499752E0;-6.571999788E-1;-6.678999662E-1
1.941985000E1;7.434899807E0;-1.637099981E0;-3.680199862E0
1.943970312E1;3.997599840E0;-1.925999999E0;-4.981400013E0
1.945955469E1;2.421499968E0;3.883999884E-1;-1.853899956E0
1.947940781E1;2.100800037E0;-1.316399932E0;1.045400023E0
1.949925938E1;2.578199863E0;-4.584499836E0;-2.181099892E0
1.951911250E1;1.273399949E0;-5.951799870E0;-3.568699837E0
1.953896562E1;4.003999829E-1;-5.972399712E0;-9.968400002E0
1.955881875E1;-8.612999916E-1;-5.029200077E0;-1.122169971E1
1.957867031E1;-3.341399908E0;-4.100199699E0;-4.296999931E0
1.959852344E1;-5.190099716E0;-3.721699953E0;-7.483999729E-1
1.961837656E1;-5.049099922E0;-2.359200001E0;-1.295300007E0
1.963823281E1;-4.050199986E0;-2.437199831E0;-3.280399799E0
1.965808125E1;-5.931000113E-1;-2.916899920E0;-1.643599987E0
1.967793438E1;3.499399900E0;-2.986099958E0;-1.485999942E0
1.969778594E1;2.123600006E0;-3.276199818E0;-1.195299983E0
1.971763906E1;-1.543799996E0;-2.833899975E0;-2.080000006E-2
1.973749219E1;-4.332600117E0;-1.530399919E0;4.422999918E-1
1.975734531E1;-6.527799606E0;-2.037999928E-1;4.561999738E-1
1.977719688E1;-6.410699844E0;1.900499940E0;1.144799948E0
1.979705000E1;-6.360399723E0;2.234200001E0;2.302000046E0
1.981690312E1;-6.491499901E0;2.661999941E0;2.233399868E0
1.983675469E1;-6.064699650E0;3.270099878E0;2.092799902E0
1.985660781E1;-3.156999826E0;2.800199986E0;2.665299892E0
1.987646094E1;1.532899976E0;2.049499989E0;-1.194999963E-1
1.989631250E1;2.819099903E0;2.897999883E-1;4.519999921E-1
1.991616562E1;1.330999970E0;-8.180999756E-1;9.649999738E-1
1.993601875E1;-2.540699959E0;-2.273999900E-1;-2.937299967E0
1.995587031E1;-7.351699829E0;6.933999658E-1;-3.753799915E0
1.997572344E1;-8.501099586E0;-5.827000141E-1;-2.033299923E0
1.999557656E1;-5.376999974E-1;-2.366799831E0;3.887899876E0
2.001542969E1;9.190999985E0;-5.664999962E0;7.780299664E0
2.003528125E1;1.133710003E1;-7.610499859E0;1.852499962E0
2.005513438E1;2.640399933E0;-2.758100033E0;-7.333399773E0
2.007498750E1;-3.468599796E0;1.478999972E0;-3.562599897E0
2.009483906E1;-5.142299652E0;2.220399857E0;2.637500048E0
2.011469219E1;-3.908399820E0;-1.018399954E0;2.804399967E0
2.013454531E1;-2.197099924E0;-3.210799932E0;2.254299879E0
2.015439688E1;-1.233399987E0;-3.365199804E0;1.772899985E0
2.017425000E1;-3.420999944E-1;-1.659699917E0;1.159899950E0
2.019410156E1;9.447999597E-1;-6.796999574E-1;4.969999939E-2
2.021395469E1;2.064899921E0;1.948999912E-1;-1.257200003E0
2.023380938E1;2.764400005E0;8.718999624E-1;-1.568899989E0
2.025366094E1;2.928200006E0;1.305299997E0;-4.244000018E-1
2.027351250E1;3.014699936E0;1.215600014E0;8.613999486E-1
2.029336562E1;2.791800022E0;1.480799913E0;1.214599967E0
2.031321875E1;2.845599890E0;2.260599852E0;1.391899943E0
2.033307031E1;2.084599972E0;2.967599869E0;7.197999954E-1
2.035292344E1;1.476999998E0;2.143699884E0;5.633000135E-1
2.037277656E1;1.982399940E0;9.779999852E-1;-9.113000035E-1
2.039262812E1;1.399899960E0;8.592999578E-1;-5.292999744E-1
2.041248125E1;1.077499986E0;1.028900027E0;-5.879999697E-2
2.043233438E1;1.909699917E0;7.495999932E-1;2.515999973E-1
2.045218750E1;2.323699951E0;4.996999800E-1;8.299999833E-1
2.047203906E1;2.446099997E0;2.372999936E-1;-5.929999799E-2
2.049189219E1;2.066900015E0;-1.689999923E-2;-1.060500026E0
2.051174531E1;2.068099976E0;-1.122200012E0;-1.591099977E0
2.053159688E1;3.153199911E0;-2.203899860E0;-2.173300028E0
2.055145000E1;4.029299736E0;-3.038100004E0;-2.052199841E0
2.057130312E1;4.540899754E0;-4.159699917E0;-2.291399956E0
2.059115469E1;4.210499763E0;-3.621799946E0;-3.353099823E0
2.061100781E1;3.449699879E0;-2.474400043E0;-4.183099747E0
2.063086094E1;2.710500002E0;-3.138199806E0;-3.705299854E0
2.065071406E1;1.132399917E0;-4.809400082E0;-4.084599972E0
2.067056563E1;2.189499855E0;-2.528100014E0;-5.265799999E0
2.069041875E1;2.715899944E0;-2.452999949E-1;2.250999928E0
2.071027188E1;4.313799858E0;1.139799953E0;2.518899918E0
2.073012344E1;3.645299911E0;1.229999959E-2;2.087699890E0
2.074997656E1;2.838500023E0;-1.753799915E0;-1.023599982E0
2.076982969E1;-1.582399964E0;-4.169799805E0;-3.608199835E0
2.078968125E1;-2.551899910E0;-4.412699699E0;-5.293299675E0
2.080953594E1;-3.164999783E-1;-1.400399923E0;-2.870899916E0
2.082938750E1;1.433899999E0;-8.438999653E-1;-1.535999924E-1
2.084924062E1;1.846499920E0;-3.659999743E-2;5.406199932E0
2.086909219E1;-1.063499928E0;-1.441999972E-1;3.455499887E0
2.088894531E1;-4.669099808E0;-2.827999890E-1;-3.130899906E0
2.090879844E1;-6.280600071E0;2.383999974E-1;-4.265100002E0
2.092865000E1;-6.463599682E0;6.363999844E-1;3.747999966E-1
2.094850313E1;-5.455299854E0;1.264099956E0;2.242100000E0
2.096835625E1;-6.057799816E0;8.555999994E-1;3.925799847E0
2.098820781E1;-7.848199844E0;2.296700001E0;2.850600004E0
2.100806094E1;-7.871500015E0;3.463399887E0;2.236000061E0
2.102791406E1;-6.266999722E0;2.270299911E0;3.618099928E0
2.104776719E1;-5.368499756E0;6.197999716E-1;3.592899799E0
2.106761875E1;-2.901700020E0;-2.892999947E-1;4.023099899E0
2.108747031E1;-1.021700025E0;-3.090299845E0;4.832399845E0
2.110732500E1;3.334599972E0;-5.227299690E0;3.013299942E0
2.112717656E1;8.999099731E0;-6.989299774E0;-2.031199932E0
2.114702969E1;3.432699919E0;-4.575099945E0;-5.329599857E0
2.116688281E1;-1.115499973E0;-1.896799922E0;-3.228399992E0
2.118673438E1;-1.672399998E0;-2.740000002E-2;-8.179999590E-1
2.120658750E1;-1.065999985E0;2.967000008E-1;4.566999972E-1
2.122645313E1;-2.298999876E-1;-1.195799947E0;9.839999676E-2
2.124629375E1;-2.750000060E-1;-2.079200029E0;-1.463599920E0
2.126614531E1;-7.449999452E-2;-1.083799958E0;-1.789199948E0
2.128599844E1;8.807999492E-1;5.552999973E-1;-6.572999954E-1
2.130585156E1;2.031399965E0;2.073499918E0;7.798999548E-1
2.132570312E1;2.831199884E0;2.881599903E0;1.212700009E0
2.134555625E1;3.900999784E0;3.405200005E0;1.751599908E0
2.136540781E1;3.747200012E0;3.629699945E0;9.373999834E-1
2.138526094E1;2.609599829E0;3.540799856E0;-1.229999959E-1
2.140511406E1;1.316499949E0;2.626199961E0;-1.039000005E-1
2.142496563E1;4.219999909E-1;1.692099929E0;-6.514999866E-1
2.144481875E1;2.764999866E-1;8.431999683E-1;-9.463999867E-1
2.146467188E1;3.260000050E-1;-1.853999943E-1;-1.559099913E0
2.148452344E1;3.671000004E-1;-1.101699948E0;-7.874000072E-1
2.150437656E1;1.092399955E0;-1.879999973E-2;1.556999981E-1
2.152423125E1;1.202299953E0;1.183599949E0;4.061999917E-1
2.154408281E1;2.239399910E0;3.082000017E-1;2.493999898E-1
2.156393438E1;3.784299850E0;-2.874399900E0;-6.997999549E-1
2.158378750E1;4.706299782E0;-5.150700092E0;-1.472299933E0
2.160363906E1;4.486000061E0;-4.135399818E0;-2.707399845E0
2.162349219E1;4.102499962E0;-2.274799824E0;-3.630299807E0
2.164334531E1;4.003600121E0;-1.519699931E0;-1.444899917E0
2.166319844E1;2.076499939E0;-3.783399820E0;-8.636999726E-1
2.168305000E1;5.788999796E-1;-3.810099840E0;-6.601899624E0
2.170290313E1;2.648000002E0;-2.188099861E0;-4.289299965E0
2.172276719E1;2.276900053E0;-1.792400002E0;3.475999832E-1
2.174260781E1;1.482800007E0;-1.480700016E0;3.980999947E0
2.176246094E1;1.039399981E0;-1.202700019E0;4.123199940E0
2.178231406E1;1.602599978E0;-1.070199966E0;-1.203199983E0
2.180216719E1;1.243299961E0;-1.059999943E0;-1.048789978E1
2.182201875E1;-1.024199963E0;-1.822299957E0;-6.234299660E0
2.184187188E1;1.445999891E-1;-1.707099915E0;-2.380699873E0
2.186172500E1;2.134799957E0;-1.263099909E0;5.909999609E-1
2.188157656E1;-1.372799993E0;-7.238000035E-1;5.231999874E0
2.190142969E1;-2.993399858E0;5.713999867E-1;2.919999957E-1
2.192128281E1;-4.431600094E0;8.391999602E-1;-2.463700056E0
2.194113438E1;-5.822599888E0;6.340000033E-1;-7.907999754E-1
2.196098750E1;-6.752099991E0;1.421000004E0;1.225399971E0
2.198084063E1;-6.358299732E0;2.689899921E0;4.614000022E-1
2.200069375E1;-5.123199940E0;3.312599897E0;3.069299936E0
2.202054531E1;-5.184000015E0;3.857899904E0;5.732800007E0
2.204039844E1;-6.975699902E0;4.221799850E0;5.889100075E0
2.206025156E1;-6.550199986E0;2.943099976E0;3.088899851E0
2.208010312E1;-5.108500004E0;1.421299934E0;2.361799955E0
2.209995625E1;-3.149299860E0;-1.282999963E-1;2.193500042E0
2.211980938E1;-5.335999727E-1;-5.464600086E0;6.635699749E0
2.213966094E1;5.826299667E0;-1.100679970E1;2.007699966E0
2.215951406E1;9.459699631E0;-1.074959946E1;-3.442999840E0
2.217936719E1;3.356400013E0;-3.888399839E0;-8.106999397E0
2.219922031E1;-2.172999978E-1;-1.832000017E-1;-4.448400021E0
2.221907188E1;-2.851899862E0;8.733999729E-1;3.055000007E-1
2.223892500E1;-3.286499977E0;7.094999552E-1;1.979299903E0
2.225877813E1;-1.430400014E0;-1.022199988E0;2.670199871E0
2.227862969E1;-5.911999941E-1;-1.390599966E0;1.619300008E0
2.229848281E1;6.669999957E-1;-5.959999934E-2;1.590099931E0
2.231833594E1;2.249699831E0;6.779999733E-1;1.445299983E0
2.233818750E1;3.149899960E0;1.130399942E0;8.869999647E-1
2.235804062E1;3.242599964E0;2.007599831E0;4.016999900E-1
2.237789375E1;2.537799835E0;2.642699957E0;7.849999517E-2
2.239774688E1;1.066100001E0;2.771899939E0;-6.706999540E-1
2.241759844E1;6.110000014E-1;2.667599916E0;-1.557099938E0
2.243747500E1;7.364000082E-1;1.509899974E0;-1.207999945E0
2.245730469E1;1.183599949E0;9.573999643E-1;3.749999776E-2
2.247715625E1;2.381899834E0;1.379099965E0;5.565999746E-1
2.249700938E1;3.870199919E0;7.809000015E-1;1.090999961E0
2.251686250E1;4.452699661E0;-1.075500011E0;1.369799972E0
2.253671406E1;4.780600071E0;-2.756799936E0;4.232999980E-1
2.255656719E1;5.940799713E0;-4.210199833E0;-1.806999892E-1
2.257641875E1;5.729499817E0;-5.428199768E0;-2.749199867E0
2.259627188E1;2.636399984E0;-3.599999905E0;-8.528800011E0
2.261612500E1;6.674999595E-1;-2.029000044E0;-9.126599312E0
2.263597656E1;1.425199986E0;-3.696699858E0;-2.204699993E0
2.265583125E1;1.025099993E0;-3.446099997E0;2.834999859E-1
2.267568281E1;3.645200014E0;-2.417999953E-1;-1.144899964E0
2.269553594E1;3.508999825E0;5.449000001E-1;-4.037999809E-1
2.271538750E1;3.279799938E0;3.294000030E-1;6.250000000E-2
2.273524063E1;1.468999982E0;-1.713999987E0;2.845999956E0
2.275509375E1;-1.289999951E-2;-3.712199926E0;-1.444000006E0
2.277494531E1;-4.124999940E-1;-2.658099890E0;-1.040559959E1
2.279479844E1;-2.059999943E0;-1.146899939E0;-5.991199970E0
2.281465781E1;-8.568999767E-1;-9.980999827E-1;7.161999941E-1
2.283450312E1;1.893799901E0;2.379999869E-2;5.267399788E0
2.285435625E1;3.612000048E-1;5.611000061E-1;4.778100014E0
2.287420938E1;-1.903999925E0;3.145000041E-1;-2.693399906E0
2.289406094E1;-5.047999859E0;9.980999827E-1;-5.088299751E0
2.291392031E1;-6.938899994E0;1.501999974E0;-8.241999745E-1
2.293376719E1;-7.520599842E0;1.881099939E0;1.983199954E0
2.295362031E1;-5.645899773E0;3.130299807E0;1.033699989E0
2.297347188E1;-5.687599659E0;2.761199951E0;3.054299831E0
2.299332500E1;-7.038799763E0;4.098799706E0;2.531999826E0
2.301317813E1;-6.107299805E0;5.605599880E0;2.590100050E0
2.303302969E1;-4.315000057E0;3.034399986E0;4.005199909E0
2.305288281E1;-2.116299868E0;6.431999803E-1;6.118999720E-1
2.307273594E1;-5.094000101E-1;-1.584899902E0;2.803499937E0
2.309258750E1;-7.105999589E-1;-3.388700008E0;6.405600071E0
2.311244062E1;-1.063199997E0;-2.984599829E0;4.618599892E0
2.313229375E1;2.972599983E0;-4.625999928E0;2.449599981E0
2.315214531E1;8.287599564E0;-8.375000000E0;-8.185999990E-1
2.317199844E1;9.842899323E0;-5.219399929E0;-6.182199955E0
2.319185156E1;1.667099953E0;4.794999957E-1;-6.439399719E0
2.321170469E1;-2.446300030E0;2.006399870E0;-2.126800060E0
2.323155625E1;-2.898099899E0;2.019999921E-1;-3.949999809E-1
2.325140938E1;-1.822600007E0;-1.874300003E0;7.120999694E-1
2.327126250E1;-1.135999918E0;-2.596599817E0;1.301699996E0
2.329111562E1;-1.090099931E0;-1.312899947E0;3.370999992E-1
2.331096875E1;-1.730999947E-1;3.445999920E-1;-7.039999962E-2
2.333082031E1;1.489399910E0;1.165199995E0;2.215999961E-1
2.335067344E1;2.397799969E0;1.415099978E0;6.298999786E-1
2.337052500E1;2.763200045E0;1.855999947E0;1.144699931E0
2.339037812E1;3.056699991E0;2.190099955E0;1.462099910E0
2.341023125E1;2.720199823E0;1.973599911E0;7.993999720E-1
2.343008281E1;1.488600016E0;1.495800018E0;1.010999978E-1
2.344993594E1;-2.025000006E-1;1.466499925E0;-3.804999888E-1
2.346978906E1;-1.163999915E0;1.059899926E0;-1.390799999E0
2.348964062E1;-8.156999946E-1;1.045199990E0;-1.160300016E0
2.350949375E1;-2.824999988E-1;3.139999807E-1;1.616999954E-1
2.352934688E1;9.448999763E-1;-2.360000014E-1;1.023199916E0
2.354920000E1;2.921799898E0;-2.708999813E-1;9.817999601E-1
2.356905156E1;3.587299824E0;-3.519999981E-2;-1.350999922E-1
2.358890469E1;4.330399990E0;5.260000005E-2;6.211999655E-1
2.360875781E1;5.040400028E0;-1.206900001E0;-4.990999997E-1
2.362860938E1;2.816999912E0;-2.845999956E0;-3.792500019E0
2.364846250E1;-3.269999847E-2;-3.067399979E0;-5.659699917E0
2.366831562E1;-7.629999518E-1;-3.010499954E0;-4.610199928E0
2.368816719E1;1.471000016E-1;-3.680799961E0;-1.646699905E0
2.370802031E1;5.995000005E-1;-4.337299824E0;-1.132699966E0
2.372787344E1;1.994699955E0;-2.131799936E0;-2.222300053E0
2.374772656E1;5.460099697E0;-5.396999717E-1;-5.392799854E0
2.376757812E1;3.140799999E0;1.708000004E-1;-3.804999888E-1
2.378743125E1;2.870000005E-1;-1.116299987E0;1.990199924E0
2.380728281E1;-6.165999770E-1;-2.722699881E0;3.816499949E0
2.382713594E1;1.358199954E0;-2.996399879E0;-9.906999469E-1
2.384698906E1;2.097699881E0;-2.377399921E0;-8.996500015E0
2.386684219E1;-8.646000028E-1;-1.724499941E0;-5.444699764E0
2.388669375E1;-6.797999740E-1;-1.102299929E0;-2.064100027E0
2.390654688E1;8.465999961E-1;-8.212999701E-1;4.312299728E0
2.392639844E1;1.492999941E-1;3.757999837E-1;4.079999924E0
2.394625156E1;-2.354399920E0;1.184599996E0;-2.344300032E0
2.396610469E1;-3.900499821E0;1.863399982E0;-2.481600046E0
2.398595781E1;-5.344699860E0;2.070199966E0;-3.542999923E-1
2.400580938E1;-6.889499664E0;1.921499968E0;7.149999738E-1
2.402566250E1;-5.877500057E0;3.080999851E0;9.552999735E-1
2.404551562E1;-4.321499825E0;3.189199924E0;2.185299873E0
2.406536719E1;-5.662499905E0;2.760499954E0;3.144899845E0
2.408522031E1;-5.100800037E0;3.707799911E0;3.149699926E0
2.410507188E1;-2.642099857E0;1.919199944E0;3.027400017E0
2.412492500E1;-1.364499927E0;4.781000018E-1;-2.145999968E-1
2.414477813E1;-1.786099911E0;6.719999760E-2;2.897999883E-1
2.416463125E1;-5.941999555E-1;-1.287199974E0;4.158100128E0
2.418448438E1;-2.078500032E0;-5.412699699E0;7.498199940E0
2.420433594E1;2.563999891E0;-6.918399811E0;5.543200016E0
2.422418906E1;8.105099678E0;-8.711099625E0;7.899999619E-1
2.424404062E1;4.738199711E0;-1.650599957E0;-5.188299656E0
2.426389375E1;2.196999937E-1;2.753899813E0;-4.942999840E0
2.428374688E1;-1.840199947E0;-1.854999959E-1;-1.052099943E0
2.430360000E1;-1.254699945E0;-2.993499994E0;5.720999837E-1
2.432345156E1;-6.575999856E-1;-2.704499960E0;1.048699975E0
2.434330469E1;-1.329899907E0;-1.405399919E0;-5.388000011E-1
2.436315781E1;-1.561699986E0;2.746999860E-1;-7.720999718E-1
2.438300938E1;-1.079900026E0;1.289699912E0;-2.836999893E-1
2.440286250E1;4.741999805E-1;1.741699934E0;9.677999616E-1
2.442271563E1;1.724099994E0;1.650200009E0;2.265199900E0
2.444256875E1;2.695999861E0;2.049000025E0;2.501600027E0
2.446242031E1;2.377599955E0;3.195099831E0;1.824399948E0
2.448227344E1;1.747200012E0;3.740000010E0;-8.489999920E-2
2.450212656E1;1.088099957E0;3.582599878E0;-7.006999850E-1
2.452197812E1;6.699999571E-1;2.518399954E0;-1.436699986E0
2.454183125E1;4.429000020E-1;1.025300026E0;-1.254799962E0
2.456168438E1;8.273999691E-1;-4.293999970E-1;-1.065899968E0
2.458153594E1;1.540799975E0;-7.741999626E-1;-3.719999790E-1
2.460138906E1;2.537400007E0;-6.798999906E-1;8.719999790E-1
2.462124219E1;4.172699928E0;-1.312399983E0;7.742999792E-1
2.464109531E1;4.942599773E0;-3.310899973E0;-1.014999971E-1
2.466094688E1;4.990699768E0;-4.375400066E0;-1.272699952E0
2.468080000E1;2.934399843E0;-3.142799854E0;-3.654699802E0
2.470065313E1;5.686999559E-1;-1.232200027E0;-3.091300011E0
2.472050469E1;8.590000123E-2;-1.573399901E0;-2.056699991E0
2.474035781E1;8.015999794E-1;-3.950199842E0;-1.273899913E0
2.476021094E1;8.924999833E-1;-4.220499992E0;-1.009500027E0
2.478006250E1;1.292199969E0;-1.704999924E0;-5.729700089E0
2.479991562E1;1.326300025E0;-1.461599946E0;-5.570499897E0
2.481976875E1;-2.254799843E0;-1.985899925E0;7.384999990E-1
2.483962031E1;-2.661799908E0;-2.004400015E0;4.474299908E0
2.485947344E1;1.237599969E0;-1.809799910E0;3.730899811E0
2.487932656E1;6.440999985E0;5.164999962E-1;-5.058799744E0
2.489917969E1;2.680199862E0;-2.976999879E-1;-5.179800034E0
2.491903125E1;-2.474000007E-1;-6.197999716E-1;-5.458600044E0
2.493888438E1;9.335999489E-1;-7.987999916E-1;-2.032500029E0
2.495873750E1;-1.355000019E0;-9.368999600E-1;5.173599720E0
2.497858906E1;-3.078099966E0;7.804999948E-1;4.151400089E0
2.499844219E1;-5.280699730E0;1.787599921E0;-3.130499840E0
2.501829531E1;-5.805899620E0;2.196599960E0;-1.601599932E0
2.503814844E1;-6.902699947E0;2.033400059E0;1.166199923E0
2.505800000E1;-6.451600075E0;2.155099869E0;1.167799950E0
2.507785312E1;-3.961199999E0;2.778100014E0;9.540999532E-1
2.509770625E1;-4.177199841E0;3.518199921E0;2.398000002E0
2.511756406E1;-4.802099705E0;4.797999859E0;1.395999908E0
2.513741094E1;-3.441900015E0;3.195600033E0;4.505000114E0
2.515726250E1;-2.229599953E0;1.360899925E0;4.009399891E0
2.517711563E1;-1.858299971E0;-2.100999951E-1;-1.530499935E0
2.519696875E1;2.885999978E-1;-2.587499857E0;8.271999955E-1
2.521682969E1;4.849999845E-1;-4.659100056E0;5.525000095E0
2.523667344E1;1.270900011E0;-6.531699657E0;4.344299793E0
2.525652656E1;5.759399891E0;-6.645599842E0;-1.114099979E0
2.527637812E1;5.784100056E0;-2.392199993E0;-5.294799805E0
2.529623125E1;1.450999975E-1;2.345799923E0;-3.164499998E0
2.531608438E1;-3.832499981E0;5.652999878E-1;-4.605999887E-1
2.533593750E1;-2.380300045E0;-3.176599979E0;-7.209999859E-2
2.535578906E1;1.307999939E-1;-3.611599922E0;5.584999919E-1
2.537564219E1;-1.776999980E-1;-1.844999909E0;2.298000008E-1
2.539549531E1;-1.062099934E0;-1.471000016E-1;-1.351699948E0
2.541534688E1;-1.291999936E0;5.299999714E-1;-1.232599974E0
2.543520000E1;-1.152199984E0;3.716999888E-1;-3.014000058E-1
2.545505313E1;3.172999918E-1;5.198999643E-1;8.379999995E-1
2.547490469E1;1.517199993E0;8.323999643E-1;1.487299919E0
2.549475781E1;2.038399935E0;1.482299924E0;1.710099936E0
2.551461094E1;2.685299873E0;2.734599829E0;2.218199968E0
2.553446250E1;2.169699907E0;3.513999939E0;1.361799955E0
2.555431562E1;9.742999673E-1;3.241699934E0;-2.550999820E-1
2.557416875E1;-1.420000009E-2;2.555799961E0;-1.280099988E0
2.559402031E1;-2.953000069E-1;1.471499920E0;-1.817399979E0
2.561387344E1;-2.581999898E-1;7.980999947E-1;-6.933999658E-1
2.563372656E1;7.888999581E-1;6.850999594E-1;-5.419999734E-2
2.565357969E1;2.636999846E0;1.162299991E0;-4.523999989E-1
2.567343125E1;4.390500069E0;1.473599911E0;-1.000200033E0
2.569328438E1;5.135999680E0;9.880999923E-1;-2.165299892E0
2.571313750E1;4.437099934E0;-1.650999933E-1;-2.165699959E0
2.573298906E1;2.760799885E0;-1.889400005E0;-1.312199950E0
2.575284219E1;1.659399986E0;-3.682999849E0;-7.476999760E-1
2.577269531E1;1.281399965E0;-5.219099998E0;-2.419999987E-2
2.579254844E1;5.521999598E-1;-5.473599911E0;4.672999978E-1
2.581240000E1;-5.133999586E-1;-4.481199741E0;-3.492999971E-1
2.583225312E1;-8.394999504E-1;-4.489299774E0;-1.253999949E0
2.585210469E1;-1.079999924E0;-5.263400078E0;-1.957899928E0
2.587195781E1;-1.377099991E0;-2.955600023E0;-6.422399998E0
2.589181094E1;2.704399824E0;-3.711999953E-1;-9.127099991E0
2.591166406E1;3.669999912E-2;-6.504999995E-1;2.272599936E0
2.593151563E1;4.444999993E-1;4.454999864E-1;5.991999626E0
2.595137031E1;2.041199923E0;4.542999864E-1;6.898200035E0
2.597122188E1;4.480000019E0;7.170999646E-1;4.641999722E0
2.599107344E1;5.220900059E0;-1.370999962E-1;-6.194299698E0
2.601092656E1;9.998999834E-1;-2.217099905E0;-1.281869984E1
2.603077969E1;-2.316099882E0;-2.453299999E0;-5.652999878E-1
2.605063281E1;9.429999441E-2;-1.239799976E0;-5.837999582E-1
2.607048438E1;-6.473999619E-1;-4.918999970E-1;2.447399855E0
2.609033750E1;-3.022699833E0;-1.479000002E-1;3.197099924E0
2.611019062E1;-4.534899712E0;7.439999580E-1;-6.963999867E-1
2.613004375E1;-5.389699936E0;1.221599936E0;-2.544899940E0
2.614989531E1;-5.979300022E0;8.626999855E-1;-2.228000015E-1
2.616974844E1;-5.455100060E0;1.294399977E0;5.852000117E-1
2.618960156E1;-3.428099871E0;2.646299839E0;4.049499989E0
2.620945313E1;-3.394799948E0;3.677500010E0;5.023600101E0
2.622930625E1;-4.101599693E0;5.142899990E0;7.019000053E-1
2.624915938E1;-5.288199902E0;3.956499815E0;6.405999660E-1
2.626901094E1;-5.646399975E0;1.007900000E0;2.028599977E0
2.628886406E1;-3.018999815E0;-1.514499903E0;3.487399817E0
2.630871719E1;-1.787799954E0;-4.242300034E0;5.236399651E0
2.632856875E1;1.794199944E0;-4.030499935E0;6.959199905E0
2.634842188E1;6.846299648E0;-5.786900043E0;1.543900013E0
2.636827500E1;8.494199753E0;-5.138700008E0;-4.650799751E0
2.638812812E1;5.105999708E-1;-2.405900002E0;-3.865299940E0
2.640797969E1;-2.748399973E0;-1.989699960E0;-1.669299960E0
2.642783281E1;-1.539299965E0;-1.492900014E0;-5.342999697E-1
2.644768438E1;-4.519999921E-1;-1.139699936E0;4.054999948E-1
2.646753750E1;-6.826999784E-1;-1.093699932E0;9.372999668E-1
2.648739063E1;-9.963999987E-1;-6.312999725E-1;1.765999943E-1
2.650724375E1;-8.274999857E-1;-2.365999967E-1;-7.348999977E-1
2.652709531E1;-5.529999733E-1;5.974999666E-1;-4.790999889E-1
2.654694844E1;-1.142999977E-1;1.446499944E0;6.250000000E-2
2.656680156E1;6.144999862E-1;2.165299892E0;5.238000154E-1
2.658665312E1;1.649999976E0;3.242499828E0;1.081599951E0
2.660650625E1;3.259500027E0;3.584899902E0;1.421700001E0
2.662635938E1;3.645399809E0;2.779999971E0;1.415300012E0
2.664621094E1;2.744599819E0;1.884299994E0;5.139999837E-2
2.666606406E1;1.057399988E0;1.721599936E0;-8.542000055E-1
2.668591719E1;2.275999933E-1;1.257499933E0;-9.644999504E-1
2.670576875E1;-6.663999557E-1;5.004999638E-1;-1.770999908E0
2.672562188E1;-1.034699917E0;1.331999898E-1;-7.835999727E-1
2.674547344E1;-6.114999652E-1;-6.611999869E-1;-6.426999569E-1
2.676532812E1;1.416599989E0;5.769999698E-2;6.513999701E-1
2.678519219E1;2.829399824E0;1.026000008E-1;2.291100025E0
2.680503281E1;3.297600031E0;-1.078699946E0;2.826999903E0
2.682488438E1;2.146800041E0;-1.534199953E0;1.511099935E0
2.684473750E1;-8.880999684E-1;-1.309000015E0;-1.128099918E0
2.686459062E1;-2.191299915E0;-1.465899944E0;-3.078099966E0
2.688444219E1;-2.736599922E0;-1.414999962E0;-2.022300005E0
2.690429531E1;-3.293900013E0;-1.651600003E0;-7.820999622E-1
2.692414844E1;-3.122200012E0;-3.159299850E0;-1.311299920E0
2.694400156E1;-1.692399979E0;-3.443699837E0;-1.346599936E0
2.696385312E1;-2.230999917E-1;-4.217000008E-1;-6.489999890E-1
2.698370625E1;8.926999569E-1;1.608699918E0;-3.080999851E-1
2.700355938E1;1.464399934E0;1.206599951E0;9.037999511E-1
2.702341094E1;-5.450999737E-1;-5.164999962E-1;1.933699965E0
2.704326562E1;-2.796700001E0;-1.166899920E0;1.890999913E0
2.706311719E1;-3.727799892E0;-7.371000051E-1;1.470600009E0
2.708296875E1;-4.992599964E0;-2.506999969E-1;1.371899962E0
2.710282188E1;-6.302399635E0;2.599999867E-2;-7.310000062E-2
2.712267500E1;-5.870299816E0;7.360000014E-1;5.756999850E-1
2.714252656E1;-3.428599834E0;6.599999666E-1;1.742199898E0
2.716237969E1;-7.699999809E-1;7.179999948E-1;2.817800045E0
2.718223281E1;1.416800022E0;1.741699934E0;3.189899921E0
2.720208594E1;3.040499926E0;3.628899813E0;3.856400013E0
2.722193750E1;2.352499962E0;4.419899940E0;4.260999680E0
2.724179062E1;6.819999814E-1;2.798199892E0;2.751600027E0
2.726164375E1;7.714999914E-1;1.538900018E0;1.923399925E0
2.728149531E1;1.968199968E0;1.901399970E0;3.698999882E-1
2.730134844E1;2.849400043E0;3.058799982E0;-2.408699989E0
2.732120156E1;1.959899902E0;4.348999977E0;-4.488800049E0
2.734105313E1;-2.416999936E-1;3.670099974E0;-1.556699991E0
2.736090625E1;-1.630499959E0;2.494899988E0;1.906699896E0
2.738075938E1;-1.728599906E0;1.831999898E0;3.420799971E0
2.740061250E1;-4.852999747E-1;1.944399953E0;1.163999915E0
2.742046406E1;4.799999893E-1;1.835599899E0;-1.111299992E0
2.744031719E1;1.467599988E0;1.942699909E0;-1.348799944E0
2.746017031E1;2.417799950E0;2.041499853E0;-4.521999955E-1
2.748002188E1;2.501099825E0;1.413200021E0;5.870000124E-1
2.749987500E1;1.710899949E0;7.414999604E-1;-6.721999645E-1
2.751972812E1;1.310899973E0;1.126199961E0;-2.848799944E0
2.753958125E1;1.947099924E0;1.157099962E0;-4.936199665E0
2.755943281E1;2.820499897E0;1.970000006E-2;-5.026999950E0
2.757928594E1;1.843499899E0;-1.574399948E0;-3.670199871E0
2.759913906E1;-1.132799983E0;-3.639699936E0;-1.098600030E0
2.761899063E1;-2.333299875E0;-4.669399738E0;-4.226000011E-1
2.763884375E1;-1.016999960E0;-3.498499870E0;-5.391499996E0
2.765869688E1;1.086599946E0;-2.315000057E0;-5.866999626E-1
2.767854844E1;1.069199920E0;-5.582999587E-1;6.307099819E0
2.769840156E1;1.099200010E0;1.650200009E0;5.626899719E0
2.771825469E1;2.829999924E-1;1.933099985E0;6.088399887E0
2.773810625E1;1.067600012E0;2.649999969E-2;6.002899647E0
2.775795938E1;1.969699979E0;-1.593699932E0;3.916399956E0
2.777781719E1;1.615599990E0;-1.988799930E0;9.445999861E-1
2.779766406E1;2.038199902E0;-1.777599931E0;-9.577999711E-1
2.781751719E1;3.505999804E0;-2.408900023E0;-3.586599827E0
2.783736875E1;3.765399933E0;-1.192600012E0;-5.146100044E0
2.785722188E1;1.751399994E0;1.575500011E0;-2.888799906E0
2.787707500E1;7.708999515E-1;2.618299961E0;-7.989999652E-2
2.789692813E1;1.476799965E0;2.223999977E0;1.538900018E0
2.791677969E1;3.137099981E0;1.115899920E0;1.446499944E0
2.793663281E1;4.250000000E0;1.231400013E0;-3.869999945E-1
2.795648594E1;4.064499855E0;2.074199915E0;-2.278100014E0
2.797633750E1;2.298500061E0;2.260299921E0;-4.490600109E0
2.799619062E1;1.107999980E-1;2.183500051E0;-2.460799932E0
2.801604375E1;2.387999892E-1;1.863999963E0;-1.350999951E0
2.803589844E1;7.741999626E-1;1.372999907E0;-2.891000032E0
2.805574844E1;1.357000023E-1;9.088000059E-1;-1.713699937E0
2.807560156E1;-3.885999918E-1;9.982999563E-1;8.237999678E-1
2.809545469E1;-1.489999983E-2;1.306100011E0;2.489300013E0
2.811530625E1;1.373700023E0;1.776499987E0;4.415299892E0
2.813515938E1;4.319499969E0;1.532799959E0;5.501499653E0
2.815501250E1;6.125799656E0;1.685199976E0;1.030499935E0
2.817486406E1;6.159899712E0;2.562799931E0;-4.057699680E0
2.819471719E1;4.053999901E0;1.432199955E0;-3.043900013E0
2.821457031E1;2.561199903E0;1.201099992E0;-9.255099297E0
2.823442188E1;3.245999813E0;1.718999982E0;-9.778499603E0
2.825427500E1;3.231499910E0;-4.299999680E-3;-1.841699958E0
2.827414844E1;2.488800049E0;-1.353099942E0;1.153399944E0
2.829398125E1;1.559199929E0;-2.585299969E0;2.985100031E0
2.831383281E1;1.065999985E0;-4.228199959E0;3.722800016E0
2.833368594E1;-2.222399950E0;-5.184099674E0;1.774799943E0
2.835353906E1;-3.203500032E0;-4.309899807E0;-8.831999898E-1
2.837339688E1;-2.466500044E0;-4.520899773E0;-5.381999612E-1
2.839324375E1;-1.548799992E0;-2.680199862E0;1.400499940E0
2.841309688E1;-1.043399930E0;-3.944999874E-1;1.865799904E0
2.843295000E1;-3.250499964E0;-3.777000010E-1;1.686499953E0
2.845280156E1;-5.115600109E0;6.265999675E-1;1.005699992E0
2.847265469E1;-4.607899666E0;2.849599838E0;1.316399932E0
2.849250781E1;-4.289499760E0;3.982100010E0;2.337199926E0
2.851235938E1;-4.104300022E0;3.335699797E0;1.502099991E0
2.853221250E1;-3.973299980E0;1.696599960E0;2.272000015E-1
2.855206562E1;-3.814599991E0;1.078699946E0;-5.011999607E-1
2.857191719E1;-2.410099983E0;1.716199994E0;-4.747999907E-1
2.859177031E1;2.849999964E-1;2.292000055E0;3.713999987E-1
2.861162344E1;3.632200003E0;1.633499980E0;1.995999932E0
2.863147500E1;7.571399689E0;-7.039999962E-2;-3.075000048E-1
2.865132813E1;1.038029957E1;-1.110999942E0;-2.233799934E0
2.867118125E1;7.222099781E0;-5.769999623E-1;-1.960299969E0
2.869103438E1;3.072599888E0;6.031000018E-1;-2.769399881E0
2.871088594E1;1.450799942E0;5.223999619E-1;-2.666699886E0
2.873073906E1;2.271999836E0;-6.620999575E-1;-7.121799946E0
2.875059219E1;2.834599972E0;7.539999485E-2;-1.067999959E0
2.877045000E1;6.061999798E-1;1.749999970E-1;1.545699954E0
2.879029688E1;-2.319799900E0;-2.075899839E0;1.225199938E0
2.881015000E1;-3.369199991E0;-5.382999897E0;-3.847100019E0
2.883000156E1;4.354999959E-1;-1.871999979E0;8.395999670E-1
2.884985469E1;-8.219999820E-2;-3.279899836E0;7.754999638E0
2.886970781E1;-5.253999829E-1;-4.100599766E0;3.153299809E0
2.888956094E1;-1.132799983E0;-1.099900007E0;1.537199974E0
2.890941250E1;-1.316399932E0;1.391399980E0;5.330299854E0
2.892926563E1;-1.999999881E-1;1.885499954E0;6.895799637E0
2.894911875E1;3.414599895E0;-2.009099960E0;7.093099594E0
2.896897031E1;7.684199810E0;-6.995499611E0;4.112699986E0
2.898882344E1;9.520799637E0;-3.135399818E0;-2.017930031E1
2.900867656E1;2.687700033E0;3.636199951E0;-1.694420052E1
2.902852812E1;-1.740000010E0;2.615299940E0;9.287999868E-1
2.904838125E1;-9.395999908E-1;2.142299891E0;5.719099998E0
2.906823281E1;1.234399915E0;3.366400003E0;6.909499645E0
2.908808594E1;1.781899929E0;4.585899830E0;6.392499924E0
2.910793906E1;1.835500002E0;3.977299929E0;2.400300026E0
2.912779063E1;3.280200005E0;2.331099987E0;1.526799917E0
2.914764375E1;4.745100021E0;8.546999693E-1;9.760999680E-1
2.916749688E1;5.427700043E0;1.304899931E0;-6.615999937E-1
2.918735000E1;6.830999851E0;1.954299927E0;-1.799299955E0
2.920720156E1;7.060299873E0;2.093999863E0;-2.535899878E0
2.922705469E1;5.859799862E0;2.024299860E0;-3.966499805E0
2.924690781E1;4.935400009E0;2.636800051E0;-4.170099735E0
2.926675938E1;5.852499962E0;1.529699922E0;-3.397799969E0
2.928661250E1;6.628699780E0;-1.748399973E0;-2.283099890E0
2.930646562E1;4.354199886E0;-5.234399796E0;2.520699978E0
2.932631719E1;8.090999722E-1;-7.985899925E0;8.795499802E0
2.934617031E1;-3.999199867E0;-9.767999649E0;1.175419998E1
2.936602344E1;-3.934299946E0;-5.983200073E0;5.894199848E0
2.938587500E1;-1.599699974E0;-2.671299934E0;2.527899981E0
2.940572813E1;-8.345999718E-1;-9.578999877E-1;2.646399975E0
2.942558125E1;-3.835999966E-1;-1.522499919E0;2.613499880E0
2.944543438E1;-1.158399940E0;-1.636399984E0;-2.460999936E-1
2.946528594E1;-2.880899906E0;-8.147999644E-1;1.385499954E0
2.948513906E1;-4.307899952E0;9.492999911E-1;8.973999619E-1
2.950499219E1;-5.531199932E0;1.732800007E0;1.083500028E0
2.952484375E1;-6.560999870E0;2.170899868E0;2.308199883E0
2.954469844E1;-7.233699799E0;2.312599897E0;2.324599981E0
2.956455000E1;-6.842599869E0;2.776499987E0;1.439299941E0
2.958440156E1;-5.366299629E0;3.020599842E0;6.018999815E-1
2.960425469E1;-2.189399958E0;2.156599998E0;-1.998699903E0
2.962410781E1;8.691999912E-1;-1.728999913E-1;-8.001099586E0
2.964396094E1;3.277199984E0;-1.179299951E0;-3.935199976E0
2.966381250E1;3.716399908E0;-9.666999578E-1;1.401399970E0
2.968366563E1;2.342000008E0;2.128999978E-1;1.738799930E0
2.970351875E1;2.259399891E0;1.730999947E0;-7.699999958E-3
2.972337031E1;2.760799885E0;2.152400017E0;-1.864599943E0
2.974322344E1;3.367300034E0;7.555999756E-1;-5.529799938E0
2.976307656E1;2.496899843E0;-2.635900021E0;-7.296700001E0
2.978292969E1;2.216500044E0;-3.119299889E0;-2.546700001E0
2.980278125E1;1.682599902E0;6.340000033E-2;2.201599836E0
2.982263438E1;4.648999870E-1;3.858999908E-1;3.760499954E0
2.984248750E1;-6.972999573E-1;-2.192800045E0;4.292200089E0
2.986233906E1;5.539999902E-2;-5.479099751E0;-2.748000026E-1
2.988219219E1;1.282999963E-1;-5.747299671E0;1.513999999E-1
2.990204531E1;-2.097300053E0;-7.229099751E0;2.860599995E0
2.992189688E1;-2.378000021E0;-2.977599859E0;-3.439800024E0
2.994175000E1;-1.621899962E0;6.355999708E-1;4.170999825E-1
2.996160313E1;1.115299940E0;-1.432399988E0;4.737199783E0
2.998145469E1;4.418799877E0;-3.975899935E0;4.005199909E0
3.000130781E1;5.194200039E0;-1.460500002E0;1.440199971E0
3.002117969E1;3.685999870E0;2.976899862E0;-1.053599954E0
3.004101406E1;2.362900019E0;4.909599781E0;-4.527800083E0
3.006086562E1;1.645499945E0;4.906799793E0;-7.300799847E0
3.008071875E1;8.499999642E-1;2.982499838E0;-2.995100021E0
3.010057188E1;8.032000065E-1;1.360999942E0;2.316999882E-1
3.012042344E1;6.132999659E-1;1.442899942E0;1.766099930E0
3.014027656E1;-2.421999872E-1;2.425600052E0;7.455999851E-1
3.016013438E1;-5.203999877E-1;3.706399918E0;9.578999877E-1
3.017998281E1;4.129999876E-1;3.962999821E0;1.049899936E0
3.019983438E1;1.955299973E0;2.112499952E0;4.491999745E-1
3.021968594E1;3.781199932E0;5.740000010E-1;8.888999820E-1
3.023953906E1;6.241099834E0;8.761000037E-1;-1.053799987E0
3.025939531E1;6.765899658E0;2.907599926E0;-5.595900059E0
3.027924531E1;5.316400051E0;3.668999910E0;-5.583799839E0
3.029909688E1;5.158299923E0;2.271800041E0;-5.322899818E0
3.031895000E1;6.399799824E0;-6.243999600E-1;-3.778999805E0
3.033880313E1;6.093699932E0;-4.607500076E0;6.445999742E-1
3.035865469E1;2.423799992E0;-7.688299656E0;3.305500031E0
3.037850781E1;1.358000040E-1;-7.903199673E0;7.655200005E0
3.039836094E1;-2.998600006E0;-7.170699596E0;1.080639935E1
3.041821406E1;-3.298799992E0;-5.053999901E0;6.367099762E0
3.043806562E1;-3.043799877E0;-2.573199987E0;1.273800015E0
3.045791875E1;-2.531399965E0;-2.850999832E0;-1.816599965E0
3.047777031E1;-2.668099880E0;-2.810099840E0;-1.266999960E0
3.049762344E1;-2.332999945E0;-7.719999552E-1;8.259999752E-1
3.051747656E1;-2.508899927E0;8.549999595E-1;-1.986999959E-1
3.053732813E1;-4.271699905E0;8.860999942E-1;8.579999804E-1
3.055718125E1;-6.427299976E0;5.248000026E-1;1.630999923E0
3.057703438E1;-7.012899876E0;9.014999866E-1;8.684999943E-1
3.059688750E1;-6.075399876E0;1.592099905E0;-2.039999887E-2
3.061673906E1;-4.853099823E0;2.142400026E0;-9.300000034E-3
3.063659219E1;-3.052899837E0;2.714299917E0;-7.786999941E-1
3.065646094E1;-2.690999806E-1;2.578999996E0;-2.357699871E0
3.067629688E1;2.899999857E0;1.065899968E0;-5.253099918E0
3.069615000E1;5.003399849E0;-8.349999785E-2;-5.234299660E0
3.071600312E1;5.520499706E0;3.601000011E-1;1.082000017E0
3.073585469E1;3.017799854E0;1.226699948E0;2.230799913E0
3.075570781E1;2.609200001E0;2.479300022E0;2.878399849E0
3.077556094E1;2.719599962E0;1.839899898E0;1.509799957E0
3.079541406E1;1.750099897E0;5.755000114E-1;-9.106999636E-1
3.081526563E1;1.236999989E0;-2.318099976E0;-7.192199707E0
3.083511875E1;1.942499995E0;-1.767699957E0;-7.492799759E0
3.085497188E1;8.205999732E-1;2.818500042E0;1.458999962E-1
3.087482344E1;-2.739999890E-1;2.297699928E0;1.486499906E0
3.089467656E1;2.884999812E-1;-1.289899945E0;2.969799995E0
3.091452969E1;7.719999552E-2;-4.464799881E0;5.251399994E0
3.093438281E1;1.098799944E0;-7.393799782E0;4.162999988E-1
3.095423438E1;2.405900002E0;-7.172399998E0;-2.717799902E0
3.097408750E1;2.296900034E0;-2.959599972E0;-3.318300009E0
3.099394062E1;2.266999930E-1;4.702999890E-1;-4.524199963E0
3.101379219E1;-2.908999920E-1;9.949999452E-1;3.734999895E-1
3.103364531E1;-1.563999951E-1;8.003000021E-1;5.189599991E0
3.105349844E1;2.960000001E-2;1.111999974E-1;8.954899788E0
3.107335000E1;1.731899977E0;-3.224599838E0;8.567600250E0
3.109320313E1;2.597699881E0;-6.036599636E0;6.473099709E0
3.111305625E1;1.795599937E0;-1.387199998E0;-2.930999994E-1
3.113290781E1;1.099399924E0;3.111699820E0;-1.039149952E1
3.115276094E1;2.884199858E0;5.778999805E0;-9.415200233E0
3.117261406E1;2.780499935E0;3.559700012E0;-1.973199964E0
3.119246719E1;3.128000021E0;2.611899853E0;8.619999886E-2
3.121231875E1;2.665799856E0;3.550199986E0;-1.806699991E0
3.123217188E1;7.841999531E-1;3.306900024E0;-2.209699869E0
3.125203438E1;-5.722000003E-1;3.017499924E0;2.270999998E-1
3.127187656E1;9.179999679E-2;2.744499922E0;1.503499985E0
3.129172969E1;1.771699905E0;1.687500000E0;2.106600046E0
3.131158281E1;3.382399797E0;2.447999865E-1;2.766399860E0
3.133143438E1;5.500499725E0;-3.256999850E-1;4.193399906E0
3.135128750E1;6.277499676E0;1.708599925E0;-5.898000002E-1
3.137114063E1;6.164799690E0;4.246500015E0;-5.730299950E0
3.139099375E1;6.644399643E0;2.278699875E0;-4.402800083E0
3.141084531E1;5.809000015E0;-2.553799868E0;-4.634900093E0
3.143069844E1;3.142299891E0;-6.215099812E0;-2.657099962E0
3.145055313E1;-3.488000035E-1;-7.640100002E0;3.515399933E0
3.147040312E1;-2.076200008E0;-7.459099770E0;7.525499821E0
3.149025625E1;-3.917500019E0;-5.500799656E0;6.708699703E0
3.151010938E1;-3.303299904E0;-2.546000004E0;2.288800001E0
3.152996094E1;-9.100999832E-1;-1.500100017E0;1.727699995E0
3.154981406E1;-2.886999846E-1;-2.530699968E0;3.593400002E0
3.156966719E1;-3.113999963E-1;-3.105999947E0;1.553299904E0
3.158951875E1;-3.694999814E-1;-1.634299994E0;-1.349900007E0
3.160937188E1;-1.861400008E0;-6.735000014E-1;-1.458499908E0
3.162922500E1;-4.805299759E0;3.055000007E-1;1.275399923E0
3.164907656E1;-6.513199806E0;1.755899906E0;2.320099831E0
3.166892969E1;-7.823699951E0;2.327600002E0;2.638799906E0
3.168878281E1;-7.903599739E0;2.744400024E0;3.347499847E0
3.170863438E1;-7.481400013E0;3.425199986E0;2.523099899E0
3.172848750E1;-6.336199760E0;4.231800079E0;8.262000084E-1
3.174834062E1;-2.571300030E0;4.316299915E0;-1.676399946E0
3.176819219E1;4.407499790E0;3.433199883E0;-1.248129940E1
3.178804531E1;5.424900055E0;1.292400002E0;-2.212199926E0
3.180789844E1;4.783099651E0;7.708999515E-1;3.681399822E0
3.182775156E1;1.909399986E0;-6.273999810E-1;3.834599972E0
3.184760313E1;-5.651000142E-1;-4.594999850E-1;3.543499947E0
3.186745625E1;-3.671000004E-1;4.046999812E-1;1.133800030E0
3.188730938E1;-1.057600021E0;-1.488000005E-1;-3.806199789E0
3.190716094E1;7.240999937E-1;-2.561100006E0;-8.101900101E0
3.192701406E1;2.327600002E0;-2.634999990E0;-2.908699989E0
3.194686719E1;3.189199924E0;-2.089299917E0;2.454499960E0
3.196671875E1;2.738099813E0;-4.100800037E0;4.911299706E0
3.198657188E1;3.611799955E0;-5.721600056E0;6.799399853E0
3.200642812E1;1.189800024E0;-5.123399734E0;2.854899883E0
3.202627656E1;9.757999778E-1;-5.510399818E0;-1.702600002E0
3.204612969E1;1.314999908E-1;-7.664199829E0;-5.219999701E-2
3.206598281E1;-7.628999949E-1;-4.264599800E0;-1.214800000E0
3.208583594E1;-6.268000007E-1;6.216999888E-1;-3.005399942E0
3.210568750E1;-9.731999636E-1;3.533299923E0;-2.185400009E0
3.212554062E1;-5.446000099E-1;4.353300095E0;-3.710999787E-1
3.214539375E1;2.806999981E-1;2.115999937E0;1.775299907E0
3.216524531E1;1.065199971E0;4.478999972E-1;3.399600029E0
3.218509844E1;1.398100019E0;8.594999909E-1;3.083199978E0
3.220495156E1;6.037999988E-1;2.009199858E0;1.478999972E0
3.222480312E1;5.982999802E-1;2.135200024E0;-1.056200027E0
3.224465781E1;1.314000010E0;1.810699940E0;-5.665099621E0
3.226450938E1;2.047999859E0;2.404099941E0;-5.502599716E0
3.228436250E1;2.571300030E0;2.609299898E0;-4.315000057E0
3.230421406E1;2.251800060E0;2.638499975E0;-9.427999854E-1
3.232406719E1;2.606600046E0;3.193499804E0;1.255900025E0
3.234392031E1;3.714799881E0;2.691099882E0;1.745000005E0
3.236377188E1;3.967999935E0;2.248999834E0;4.177999794E-1
3.238362500E1;3.065599918E0;1.486899972E0;-1.659999937E-1
3.240347812E1;2.660099983E0;1.004500031E0;8.201999664E-1
3.242333125E1;3.026199818E0;1.208500028E0;3.616999984E-1
3.244318281E1;3.935599804E0;2.478699923E0;-4.848999977E0
3.246303594E1;5.065199852E0;3.609899998E0;-5.676499844E0
3.248288750E1;5.768099785E0;-1.947999895E-1;-3.880100012E0
3.250274062E1;4.761199951E0;-6.084499836E0;-1.983699918E0
3.252259375E1;1.966499925E0;-1.059700012E1;2.115099907E0
3.254244688E1;-2.582499981E0;-1.126959991E1;9.083299637E0
3.256229844E1;-5.496200085E0;-6.999599934E0;5.462800026E0
3.258215156E1;-5.328299999E0;-2.104399920E0;9.487999678E-1
3.260200469E1;-2.961400032E0;-2.698099852E0;7.075999975E-1
3.262185625E1;-2.069599867E0;-6.041499615E0;3.616799831E0
3.264170938E1;-4.966999888E-1;-3.455899954E0;-7.256999612E-1
3.266156250E1;1.145900011E0;2.481899977E0;-4.499799728E0
3.268141562E1;-1.066200018E0;3.813199997E0;-6.071999669E-1
3.270126719E1;-4.284899712E0;1.995199919E0;2.433599949E0
3.272112031E1;-6.490399837E0;3.431999981E-1;2.176300049E0
3.274097188E1;-6.954799652E0;8.765999675E-1;1.499599934E0
3.276082500E1;-6.808799744E0;1.877200007E0;9.702999592E-1
3.278067812E1;-6.324199677E0;2.448799849E0;1.358899951E0
3.280053125E1;-4.962999821E0;2.769699812E0;1.109399915E0
3.282038281E1;-2.983700037E0;2.929699898E0;4.803999960E-1
3.284023594E1;3.043999970E-1;2.310699940E0;-3.783999979E-1
3.286008906E1;4.033199787E0;3.357999921E-1;-6.561899662E0
3.287994219E1;7.024799824E0;-4.004999995E-1;-6.243799686E0
3.289979375E1;5.344099998E0;6.406999826E-1;1.653999925E0
3.291964688E1;2.780900002E0;2.678900003E0;2.683399916E0
3.293949844E1;1.744699955E0;3.275300026E0;1.300999999E0
3.295935156E1;1.052899957E0;2.240499973E0;-3.579999804E-1
3.297920469E1;2.918999791E-1;4.969999939E-2;-3.455600023E0
3.299905625E1;4.349999875E-2;-2.314899921E0;-6.157099724E0
3.301890938E1;4.346999824E-1;-4.676799774E0;-3.398900032E0
3.303876094E1;1.333699942E0;-4.883500099E0;2.131099939E0
3.305861562E1;1.079399943E0;-2.665499926E0;6.120499611E0
3.307846719E1;1.857800007E0;-1.697999954E0;1.426199913E0
3.309832031E1;2.422499895E0;-2.387500048E0;2.663800001E0
3.311817188E1;2.059999943E0;-3.231400013E0;8.649999648E-2
3.313802500E1;8.246999979E-1;-4.351500034E0;-1.443199992E0
3.315787812E1;-9.838999510E-1;-3.356499910E0;-1.070899963E0
3.317773125E1;-1.725499988E0;-1.044000030E0;-2.423999906E-1
3.319758438E1;-2.218499899E0;-4.478999972E-1;4.700999856E-1
3.321743594E1;-1.602199912E0;1.231999993E-1;2.674999952E0
3.323728750E1;-1.186999977E-1;4.752999842E-1;4.288499832E0
3.325714063E1;9.070999622E-1;5.812000036E-1;2.976199865E0
3.327699375E1;2.290799856E0;8.526999950E-1;9.146999717E-1
3.329684688E1;3.723899841E0;1.391399980E0;3.859999776E-2
3.331669844E1;4.540699959E0;3.479300022E0;-6.509099960E0
3.333655156E1;3.717299938E0;6.222499847E0;-1.400999928E1
3.335640469E1;1.051200032E0;3.931599855E0;-2.431299925E0
3.337625625E1;2.477499962E0;2.277299881E0;1.072600007E0
3.339610938E1;3.849099874E0;2.092700005E0;2.377699852E0
3.341596250E1;5.190399647E0;2.949699879E0;-1.031999961E-1
3.343581563E1;5.453999996E0;3.593099833E0;-5.177999735E-1
3.345566719E1;4.480299950E0;4.593199730E0;-1.704800010E0
3.347552031E1;3.973500013E0;4.130300045E0;-4.755399704E0
3.349537344E1;4.487499714E0;9.909999967E-1;-6.486499786E0
3.351522500E1;3.339599848E0;-4.513999939E0;-3.132200003E0
3.353507813E1;1.642799973E0;-1.003319931E1;1.677599907E0
3.355493125E1;1.661000013E0;-1.601399994E1;7.316899776E0
3.357478281E1;-1.285399914E0;-1.141549969E1;8.618000031E0
3.359463594E1;-3.288299799E0;-4.106800079E0;7.242000103E-1
3.361448906E1;-2.912199974E0;-1.648000032E-1;-4.883500099E0
3.363434062E1;-3.809799910E0;-2.610499859E0;2.061199903E0
3.365419375E1;-5.940000057E0;-4.364099979E0;5.886799812E0
3.367404688E1;-4.635699749E0;-2.217999995E-1;1.910099983E0
3.369390000E1;-3.762399912E0;2.832999945E0;-1.470499992E0
3.371375156E1;-3.841599941E0;3.507499933E0;-6.331999898E-1
3.373361250E1;-4.995500088E0;2.856899977E0;1.471899986E0
3.375345781E1;-6.094599724E0;2.243900061E0;2.827699900E0
3.377330938E1;-6.480299950E0;1.850899935E0;2.923300028E0
3.379316250E1;-5.311699867E0;1.607699990E0;1.957899928E0
3.381301563E1;-2.557399988E0;1.441399932E0;-1.101499915E0
3.383286875E1;2.134099960E0;9.210999608E-1;-5.938799858E0
3.385272031E1;4.575699806E0;8.834999800E-1;-4.269199848E0
3.387257344E1;3.610899925E0;1.103999972E0;-7.846999764E-1
3.389242656E1;2.006199837E0;1.312799931E0;1.430499911E0
3.391227812E1;2.450899839E0;1.962099910E0;2.563000023E-1
3.393213125E1;3.116499901E0;2.290899992E0;-2.093699932E0
3.395198438E1;2.437099934E0;2.827600002E0;-3.117100000E0
3.397183594E1;2.488600016E0;1.418499947E0;-4.160900116E0
3.399169219E1;1.849399924E0;-1.003299952E0;-3.889400005E0
3.401154219E1;2.892599821E0;-3.305699825E0;-3.188999891E-1
3.403139531E1;2.461499929E0;-5.500699997E0;2.881700039E0
3.405124688E1;-5.381999612E-1;-5.208499908E0;5.319399834E0
3.407110000E1;-9.057999849E-1;-4.322000027E0;1.708199978E0
3.409095156E1;-9.100999832E-1;-4.267799854E0;1.099999994E-3
3.411080469E1;-6.003999710E-1;-4.467400074E0;2.885799885E0
3.413065781E1;-2.189999968E-1;-3.790899992E0;-1.356000006E-1
3.415051094E1;7.716000080E-1;-1.854299903E0;2.260999918E0
3.417036250E1;1.839299917E0;-6.152999997E-1;3.520399809E0
3.419021562E1;2.790400028E0;-8.518999815E-1;1.640999913E0
3.421006875E1;2.829599857E0;-5.910999775E-1;1.032799959E0
3.422992031E1;2.496099949E0;3.513999879E-1;5.164999962E-1
3.424977344E1;1.918999910E0;1.965899944E0;-8.183999658E-1
3.426962656E1;1.500999928E0;2.928299904E0;-3.167399883E0
3.428947812E1;7.849000096E-1;3.054100037E0;-5.307799816E0
3.430933125E1;4.126999974E-1;2.565700054E0;-4.218199730E0
3.432918438E1;9.450999498E-1;1.718999982E0;-1.359399915E0
3.434903594E1;1.654599905E0;2.531699896E0;4.309999943E-1
3.436888906E1;2.055599928E0;3.882999897E0;1.990099907E0
3.438874063E1;3.243399858E0;3.799899817E0;1.074499965E0
3.440859375E1;3.978999853E0;3.468999863E0;1.380299926E0
3.442844688E1;4.735399723E0;2.428799868E0;1.725999951E0
3.444830000E1;5.705800056E0;1.249199986E0;1.928200006E0
3.446815156E1;5.568999767E0;6.661999822E-1;2.280299902E0
3.448800469E1;4.558899879E0;1.052399993E0;1.223299980E0
3.450785781E1;3.968699932E0;1.300899982E0;7.825999856E-1
3.452770938E1;4.246299744E0;1.783499956E0;-5.886999965E-1
3.454756250E1;6.802700043E0;1.064800024E0;-7.481199741E0
3.456741562E1;8.064599991E0;-8.898999691E-1;-2.814800024E0
3.458726875E1;7.767699718E0;-3.219699860E0;1.650999904E0
3.460712031E1;5.831199646E0;-3.956199884E0;3.100100040E0
3.462697344E1;4.837999821E0;-4.496500015E0;4.434499741E0
3.464682656E1;3.570799828E0;-7.157299995E0;6.473000050E0
3.466667813E1;2.741099834E0;-9.048500061E0;8.734399796E0
3.468653125E1;2.695099831E0;-8.867499352E0;1.258749962E1
3.470638438E1;1.071699977E0;-7.197700024E0;1.277379990E1
3.472623750E1;-3.089999855E-1;-5.702799797E0;1.232369995E1
3.474608906E1;-1.998799920E0;-4.702600002E0;9.987099648E0
3.476594219E1;-3.677099943E0;-3.246799946E0;1.980799913E0
3.478579531E1;-5.072099686E0;-1.972299933E0;-9.430699348E0
3.480564688E1;-6.618999958E0;-1.451200008E0;-1.948199987E0
3.482550000E1;-6.698299885E0;6.403999925E-1;3.495499849E0
3.484535312E1;-6.855299950E0;1.991199970E0;4.890799999E0
3.486520469E1;-6.963699818E0;2.891099930E0;4.584899902E0
3.488505781E1;-7.341499805E0;3.684899807E0;1.926599979E0
3.490491094E1;-6.575599670E0;3.648099899E0;-2.441799879E0
3.492476406E1;-3.275399923E0;3.033699989E0;-4.313099861E0
3.494461563E1;-5.831999779E-1;1.565799952E0;-2.131199837E0
3.496446875E1;2.988899946E0;-5.159999728E-1;-1.355799913E0
3.498432188E1;4.660500050E0;-1.958299994E0;6.680999994E-1
3.500417344E1;9.456600189E0;-1.678799987E0;1.009799957E0
3.502402656E1;1.486369991E1;-9.046999812E-1;-2.070199966E0
3.504387969E1;1.275189972E1;9.268999696E-1;-3.798999786E-1
3.506373125E1;7.178499699E0;1.238699913E0;2.510000020E-2
3.508358438E1;2.295399904E0;-3.299999982E-2;1.901699901E0
3.510343750E1;-2.582999945E0;-3.953799963E0;2.876399994E0
3.512328906E1;-5.572899818E0;-7.418499947E0;-9.047999978E-1
3.514314219E1;-9.396100044E0;-9.175199509E0;-9.762399673E0
3.516299531E1;-1.003469944E1;-4.718899727E0;-1.442299962E0
3.518284688E1;-5.939199924E0;-6.709999591E-2;5.899299622E0
3.520270000E1;-1.153699994E0;2.880399942E0;9.186100006E0
3.522255938E1;2.778999805E-1;3.641699791E0;8.661000252E0
3.524240625E1;2.978899956E0;1.166599989E0;6.666899681E0
3.526225781E1;3.887099981E0;-2.694000006E-1;5.993799686E0
3.528211094E1;3.310699940E0;2.060000040E-2;7.622200012E0
3.530196406E1;9.496999979E-1;-9.939999878E-2;6.849400043E0
3.532181562E1;1.034699917E0;-7.750000060E-2;-5.591300011E0
3.534166875E1;6.531999707E-1;6.962999701E-1;-1.399729919E1
3.536152188E1;8.331999779E-1;7.935999632E-1;-7.947299957E0
3.538137344E1;2.194000006E0;3.244999945E-1;2.208999991E-1
3.540122656E1;3.565099955E0;9.315999746E-1;4.637899876E0
3.542107969E1;3.136999846E0;1.407400012E0;4.598700047E0
3.544093125E1;2.642699957E0;2.003499985E0;3.095999956E0
3.546078438E1;2.273000002E0;1.571299911E0;1.823599935E0
3.548063750E1;1.884499907E0;2.816999853E-1;1.737499952E0
3.550049063E1;1.601199985E0;-1.069800019E0;1.211199999E0
3.552034219E1;8.813999891E-1;-1.936599970E0;-1.400299907E0
3.554019531E1;2.354300022E0;-1.039999962E0;-5.340099812E0
3.556004688E1;5.051099777E0;7.140000165E-2;-4.640799999E0
3.557990312E1;5.746399879E0;2.500999868E-1;-1.511500001E0
3.559975312E1;6.757899761E0;1.366999894E-1;-3.633999825E-1
3.561960469E1;7.800299644E0;2.190999985E-1;-2.584999800E-1
3.563945781E1;9.113200188E0;-8.755999804E-1;-1.212700009E0
3.565931094E1;9.799599648E0;-2.079599857E0;-1.404299974E0
3.567916250E1;7.136699677E0;-5.981000066E-1;-1.491199970E0
3.569901562E1;3.473299980E0;-1.529999971E-1;-3.617399931E0
3.571886875E1;1.765499949E0;2.362999916E-1;3.669999912E-2
3.573872188E1;1.535300016E0;-2.003200054E0;1.650999904E0
3.575857344E1;1.174399972E0;-5.864699841E0;3.202199936E0
3.577842656E1;-1.148100019E0;-9.246899605E0;7.077699661E0
3.579827969E1;-1.862800002E0;-7.921999931E0;1.037790012E1
3.581813125E1;-1.948300004E0;-3.395399809E0;9.554399490E0
3.583798438E1;-4.404999912E-1;-7.530000061E-2;4.964299679E0
3.585783750E1;-9.389999509E-2;1.793099999E0;-2.598199844E0
3.587768906E1;-1.796000004E0;5.533999801E-1;-2.704999924E0
3.589754219E1;-3.391599894E0;-9.829999804E-1;8.386999965E-1
3.591739531E1;-3.918499947E0;-7.109000087E-1;2.270900011E0
3.593724844E1;-4.823999882E0;7.840000093E-2;4.297599792E0
3.595710000E1;-6.315899849E0;1.270799994E0;5.809799671E0
3.597695781E1;-8.760000229E0;2.167700052E0;5.867799759E0
3.599680625E1;-9.855599403E0;3.550299883E0;3.916099787E0
3.601665781E1;-8.120999336E0;3.785099983E0;9.284999967E-1
3.603651094E1;-3.970699787E0;2.659399986E0;-2.352099895E0
3.605636406E1;-6.904999614E-1;2.386999846E0;-4.180500031E0
3.607621719E1;9.340999722E-1;2.852099895E0;-5.339999795E-1
3.609606875E1;1.752699971E0;2.403599977E0;1.814399958E0
3.611592188E1;1.889199972E0;1.106199980E0;1.745099902E0
3.613577500E1;2.172999859E0;-2.559999824E-1;1.456599951E0
3.615562656E1;2.533799887E0;-2.348999977E-1;3.358999789E-1
3.617547969E1;2.570799828E0;6.751999855E-1;-2.649999857E0
3.619533281E1;2.368799925E0;2.101899862E0;-1.705699921E0
3.621520469E1;6.301999688E-1;2.629499912E0;-9.269999713E-2
3.623503750E1;-4.799000025E-1;3.945899963E0;4.523999989E-1
3.625489062E1;-8.495999575E-1;4.529099941E0;1.770999908E0
3.627474219E1;-7.331999540E-1;2.897799969E0;2.754899979E0
3.629459531E1;9.084999561E-1;-1.576599956E0;2.480299950E0
3.631444844E1;3.393199921E0;-4.590899944E0;-1.561399937E0
3.633430156E1;3.760399818E0;-7.691199780E0;5.855899811E0
3.635415312E1;1.431499958E0;-6.114999771E0;-2.350299835E0
3.637400625E1;-9.088999629E-1;-4.468400002E0;-1.619499922E0
3.639385938E1;-7.238000035E-1;-5.552299976E0;4.181499958E0
3.641371094E1;-4.046999812E-1;-2.790199995E0;1.937599897E0
3.643356406E1;-4.336999953E-1;7.739999890E-2;1.907099962E0
3.645341719E1;6.333000064E-1;-2.969000041E-1;1.944199920E0
3.647326875E1;1.129099965E0;-4.244000018E-1;5.848999619E-1
3.649312188E1;1.268399954E0;1.063599944E0;-1.507300019E0
3.651297500E1;2.341399908E0;2.830199957E0;-3.170300007E0
3.653282812E1;3.063599825E0;4.001599789E0;-1.634899974E0
3.655267969E1;3.600099802E0;4.362699986E0;4.249999821E-1
3.657253281E1;3.949999809E0;3.583699942E0;-1.292299986E0
3.659238594E1;2.683699846E0;3.004400015E0;-2.856299877E0
3.661223750E1;7.964999676E-1;2.958299875E0;-3.823899984E0
3.663209063E1;4.915999770E-1;2.911799908E0;-5.313799858E0
3.665194375E1;2.077800035E0;2.964999914E0;-5.102600098E0
3.667179531E1;4.894499779E0;8.908999562E-1;-3.264899969E0
3.669164844E1;5.868899822E0;-4.230400085E0;-8.987999558E-1
3.671150156E1;4.219799995E0;-8.429900169E0;2.568500042E0
3.673135313E1;1.346699953E0;-1.179570007E1;4.041299820E0
3.675120625E1;-1.632699966E0;-9.071000099E0;3.327899933E0
3.677105781E1;-3.708899975E0;-4.587899685E0;2.623600006E0
3.679091250E1;-5.297299862E0;-3.801399946E0;2.895499945E0
3.681077031E1;-5.665099621E0;-4.354199886E0;2.129499912E0
3.683061719E1;-5.217299938E0;-1.455099940E0;-6.518999934E-1
3.685047031E1;-3.932699919E0;3.231499910E0;1.905999929E-1
3.687032188E1;-4.064499855E0;5.391200066E0;2.890100002E0
3.689017500E1;-4.879199982E0;5.185499668E0;4.496999741E0
3.691002656E1;-5.790699959E0;3.195199966E0;4.394199848E0
3.692987969E1;-5.672899723E0;1.927299976E0;3.065199852E0
3.694973281E1;-4.497200012E0;9.435999990E-1;1.007799983E0
3.696958438E1;-9.427999854E-1;1.177799940E0;-1.210199952E0
3.698943750E1;4.251699924E0;1.772699952E0;-3.317799807E0
3.700929063E1;8.035900116E0;4.755999744E-1;-2.957099915E0
3.702914219E1;7.406899929E0;-4.241999984E-1;-3.372399807E0
3.704899531E1;5.108500004E0;1.859499931E0;-2.619099855E0
3.706884844E1;2.429999828E0;2.652699947E0;8.093999624E-1
3.708870156E1;1.178599954E0;3.249799967E0;-1.630499959E0
3.710855312E1;5.582000017E-1;4.069799900E0;-2.113699913E0
3.712840625E1;1.926699996E0;1.438499928E0;-3.338099957E0
3.714825938E1;2.286099911E0;-2.470399857E0;-3.736099958E0
3.716811094E1;-3.989999890E-1;-5.554599762E0;-7.919999957E-1
3.718796406E1;-1.474499941E0;-6.507099628E0;2.958299875E0
3.720782344E1;-2.346099854E0;-5.127999783E0;4.280900002E0
3.722766875E1;-1.937599897E0;-3.088599920E0;5.424099922E0
3.724752188E1;-1.387999952E-1;-3.927599907E0;7.049699783E0
3.726737500E1;2.783999920E0;-9.122900009E0;4.356400013E0
3.728722813E1;6.373199940E0;-1.179949951E1;1.658999920E-1
3.730707969E1;6.641299725E0;-3.876999915E-1;-1.521869946E1
3.732693281E1;3.527499914E0;5.395499706E0;-9.843899727E0
3.734678594E1;1.315099955E0;5.646999836E0;6.939999759E-2
3.736663750E1;1.412400007E0;3.959599972E0;4.802099705E0
3.738649062E1;1.581599951E0;1.496500015E0;5.310699940E0
3.740634375E1;1.420699954E0;1.292699933E0;3.982199907E0
3.742619688E1;7.116999626E-1;2.902899981E0;3.039499998E0
3.744604844E1;-4.722999930E-1;4.363100052E0;3.356099844E0
3.746590156E1;1.489999890E-1;4.188299656E0;-4.092999995E-1
3.748575469E1;2.201299906E0;4.057799816E0;-4.860300064E0
3.750560625E1;5.436399937E0;2.690999985E0;-2.313599825E0
3.752545938E1;7.430699825E0;1.079100013E0;-6.271199703E0
3.754531250E1;5.108999729E0;1.490299940E0;-3.308099985E0
3.756516406E1;4.927000046E0;2.835999966E0;1.875000000E-1
3.758501719E1;5.476199627E0;4.006700039E0;-1.416099906E0
3.760487031E1;6.789000034E0;4.484999657E0;-4.974899769E0
3.762472188E1;6.276099682E0;1.089999914E0;-5.246200085E0
3.764457500E1;6.087699890E0;-4.540899754E0;-1.862899899E0
3.766442812E1;4.334799767E0;-9.960700035E0;2.563799858E0
3.768428125E1;2.524299860E0;-1.424919987E1;1.091409969E1
3.770413281E1;1.186999917E0;-9.436900139E0;1.373609924E1
3.772398594E1;-1.159999985E-2;-3.893599987E0;6.528299809E0
3.774383906E1;-1.638799906E0;-1.815599918E0;-1.920000017E-1
3.776369062E1;-5.895699978E0;-5.581999779E0;-1.094699979E0
3.778354375E1;-8.293099403E0;-6.154500008E0;3.351199865E0
3.780339688E1;-5.241899967E0;1.950000040E-2;-6.161999702E-1
3.782325000E1;-4.296099663E0;3.713899851E0;-1.708400011E0
3.784310156E1;-4.223400116E0;4.815899849E0;5.799999833E-2
3.786295469E1;-5.357399940E0;3.261600018E0;1.956200004E0
3.788280781E1;-6.273799896E0;1.108600020E0;3.305799961E0
3.790265938E1;-6.167500019E0;1.143000007E0;3.734899998E0
3.792251250E1;-6.034899712E0;2.090699911E0;3.290299892E0
3.794236562E1;-4.033999920E0;3.077699900E0;1.446699977E0
3.796222188E1;2.699999837E-3;2.243999958E0;-2.232899904E0
3.798207031E1;5.402299881E0;2.426999956E-1;-9.953899384E0
3.800192188E1;7.732999802E0;-8.017999530E-1;-4.314799786E0
3.802177656E1;7.046399593E0;-1.525299907E0;2.332799911E0
3.804162812E1;6.080399990E0;5.699999928E-1;2.748699903E0
3.806147969E1;4.640500069E0;2.861799955E0;-4.411000013E-1
3.808133281E1;1.468299985E0;3.601399899E0;-8.246799469E0
3.810118594E1;-6.186000109E-1;1.407499909E0;-6.724899769E0
3.812103906E1;3.529999852E-1;-2.112499952E0;-2.353199959E0
3.814089063E1;-7.480999827E-1;-3.899699926E0;1.946399927E0
3.816074375E1;-1.316499949E0;-4.128699780E0;4.191699982E0
3.818059531E1;-1.318300009E0;-6.533699989E0;3.316499949E0
3.820044844E1;8.941999674E-1;-4.836400032E0;1.684799910E0
3.822030156E1;1.333199978E0;-3.704999924E0;8.530200005E0
3.824015469E1;2.761799812E0;-3.806599855E0;4.745800018E0
3.826000625E1;2.504199982E0;-3.797999859E0;1.648299932E0
3.827985938E1;3.510599852E0;-3.431499958E0;6.984999776E-1
3.829971250E1;3.086899996E0;-7.042999864E-1;-5.373199940E0
3.831956406E1;5.626999736E-1;1.648599982E0;-9.108499527E0
3.833941719E1;-5.299999844E-3;2.354899883E0;-3.915299892E0
3.835927031E1;1.938000023E-1;1.526499987E0;1.661999941E0
3.837912188E1;1.219699979E0;1.354099989E0;4.969500065E0
3.839897500E1;2.334399939E0;1.639599919E0;5.020799637E0
3.841882813E1;2.210399866E0;2.707399845E0;2.700099945E0
3.843868125E1;2.649600029E0;3.819899797E0;-1.860000007E-2
3.845853281E1;2.531499863E0;3.788699865E0;-5.345200062E0
3.847838594E1;3.179899931E0;3.439999819E0;-4.457600117E0
3.849823906E1;3.663199902E0;1.940099955E0;-2.759699821E0
3.851809062E1;2.864300013E0;2.102599859E0;-1.601300001E0
3.853794375E1;2.663699865E0;2.594099998E0;2.192000002E-1
3.855779688E1;3.251699924E0;2.561100006E0;1.063400030E0
3.857765000E1;4.527100086E0;3.187500000E0;-4.788999856E-1
3.859750156E1;4.110099792E0;3.659799814E0;-4.044499874E0
3.861735469E1;4.653100014E0;3.036899805E0;-4.350699902E0
3.863720625E1;6.455599785E0;-1.433499932E0;-3.178699970E0
3.865705938E1;6.048399925E0;-7.764799595E0;1.777999997E-1
3.867691250E1;2.085099936E0;-1.271840000E1;3.970099926E0
3.869677188E1;-1.605999917E-1;-1.150719929E1;9.941699982E0
3.871661719E1;-3.810199976E0;-5.225499630E0;8.600699425E0
3.873647031E1;-3.545399904E0;-3.030999899E-1;-2.987099886E0
3.875632344E1;-2.191499949E0;1.202399969E0;-2.805099964E0
3.877617656E1;-2.502599955E0;-3.489899874E0;4.188199997E0
3.879602812E1;-3.953799963E0;-5.491299629E0;5.379600048E0
3.881588125E1;-6.620000005E-1;4.197999835E-1;-1.109699965E0
3.883573438E1;-1.247900009E0;3.384099960E0;-2.139199972E0
3.885558594E1;-4.572599888E0;2.683899879E0;1.435499907E0
3.887543906E1;-7.398900032E0;9.102999568E-1;3.598799944E0
3.889529219E1;-7.911499977E0;1.982000023E-1;3.480299950E0
3.891514375E1;-6.878200054E0;1.235800028E0;2.322299957E0
3.893499688E1;-5.988199711E0;2.003599882E0;1.110000014E0
3.895485000E1;-4.062500000E0;3.146999836E0;-2.251999974E-1
3.897470156E1;6.017999649E-1;3.452600002E0;-3.806599855E0
3.899455469E1;6.618999958E0;1.619300008E0;-8.870100021E0
3.901440781E1;6.983099937E0;-4.549999833E-1;-4.127299786E0
3.903426094E1;4.018599987E0;-3.967999816E-1;3.609899998E0
3.905411250E1;2.343999863E0;1.238399982E0;3.398399830E0
3.907396562E1;2.660099983E0;3.024600029E0;5.981000066E-1
3.909381875E1;3.216399908E0;4.429100037E0;-3.123999834E0
3.911367031E1;2.180999994E0;2.656599998E0;-4.396999836E0
3.913352344E1;1.363299966E0;-3.279599905E0;-4.144599915E0
3.915337656E1;-8.598999977E-1;-6.954499722E0;-2.750000060E-1
3.917322812E1;-1.032999992E0;-3.640100002E0;2.824299812E0
3.919308281E1;-6.219999865E-2;-1.746799946E0;5.247299671E0
3.921293438E1;2.433999926E-1;-4.293299675E0;2.251899958E0
3.923278594E1;9.018999934E-1;-5.395999908E0;4.912399769E0
3.925263906E1;1.960699916E0;-1.116020012E1;7.577399731E0
3.927249219E1;1.475700021E0;-1.389829922E1;-7.284399986E0
3.929234531E1;-1.455199957E0;-1.777199984E0;-7.902299881E0
3.931219688E1;-1.060199976E0;4.225699902E0;-3.516199827E0
3.933205000E1;3.862999976E-1;5.502699852E0;6.323999763E-1
3.935190312E1;9.164999723E-1;5.202600002E0;3.599399805E0
3.937175469E1;1.903299928E0;2.047699928E0;6.715899944E0
3.939160781E1;2.225600004E0;4.194999933E-1;4.165400028E0
3.941146094E1;1.178499937E0;1.867699981E0;1.446900010E0
3.943131250E1;-8.959999681E-2;2.656699896E0;-2.671000063E-1
3.945116562E1;1.919399977E0;2.787600040E0;-7.551099777E0
3.947101719E1;2.936399937E0;2.705399990E0;-1.364159966E1
3.949087031E1;2.820099831E0;2.965299845E0;-4.669300079E0
3.951072344E1;3.258100033E0;3.034299850E0;1.518999934E-1
3.953057656E1;3.509799957E0;2.663499832E0;1.067199945E0
3.955042812E1;3.686299801E0;2.752699852E0;2.609400034E0
3.957028125E1;3.833199978E0;2.107300043E0;2.267499924E0
3.959013438E1;3.537999868E0;1.358600020E0;1.685499907E0
3.960998594E1;3.146199942E0;1.380100012E0;1.363099933E0
3.962983906E1;3.442999840E0;2.552399874E0;-4.171000004E0
3.964969219E1;5.078799725E0;3.121299982E0;-8.035699844E0
3.966954375E1;7.909799576E0;-9.332999587E-1;-4.988199711E0
3.968939688E1;7.641399860E0;-6.809799671E0;-1.934999943E0
3.970925000E1;3.914499998E0;-1.200000000E1;3.650199890E0
3.972910312E1;3.762999773E-1;-1.331919956E1;1.058269978E1
3.974895469E1;-4.004399776E0;-8.244999886E0;1.038799953E1
3.976880781E1;-5.122099876E0;-2.777400017E0;-7.914999723E-1
3.978866094E1;-2.597399950E0;1.293999910E0;-3.726899862E0
3.980851250E1;-1.862899899E0;-1.305299997E0;3.214999914E0
3.982836562E1;-2.527600050E0;-4.105000019E0;5.565700054E0
3.984821875E1;-7.143999934E-1;-6.909999847E-1;-7.336999774E-1
3.986807031E1;-2.302999943E-1;2.834899902E0;-1.953499913E0
3.988792969E1;-3.072399855E0;2.980799913E0;1.786399961E0
3.990777656E1;-6.428199768E0;1.480700016E0;4.062299728E0
3.992762969E1;-7.237400055E0;7.745999694E-1;3.882299900E0
3.994748125E1;-7.017099857E0;9.044999480E-1;2.715600014E0
3.996733438E1;-5.976799965E0;1.197000027E0;1.212700009E0
3.998718750E1;-4.502599716E0;1.440599918E0;-1.192999959E0
4.000703906E1;-1.368600011E0;1.741699934E0;-2.179399967E0
4.002689219E1;2.343699932E0;7.254999876E-1;-3.140399933E0
4.004674531E1;4.910899639E0;-2.583999932E-1;-6.520699978E0
4.006659688E1;5.737299919E0;2.754999995E-1;-2.438099861E0
4.008645000E1;3.460699797E0;1.038900018E0;2.637099981E0
4.010630313E1;1.811899900E0;1.945199966E0;1.869199991E0
4.012615469E1;1.810999990E0;2.597499847E0;-1.536099911E0
4.014600781E1;2.230200052E0;3.230700016E0;-4.556999683E0
4.016586094E1;5.106999874E-1;4.070300102E0;-2.848799944E0
4.018573438E1;-1.473199964E0;4.740399837E0;-9.975999594E-1
4.020556563E1;-2.179600000E0;2.076400042E0;7.922999859E-1
4.022541875E1;-1.075999960E-1;-4.522599697E0;9.514999986E-1
4.024527188E1;2.809799910E0;-6.166299820E0;1.186499953E0
4.026512344E1;1.801999927E0;-7.748299599E0;5.001999855E0
4.028497656E1;-5.026000142E-1;-3.585799932E0;-2.301899910E0
4.030482969E1;-1.538299918E0;-2.868999839E-1;-5.819000006E-1
4.032468281E1;-1.222199917E0;-3.310799837E0;2.823299885E0
4.034453438E1;1.402099967E0;-6.466199875E0;7.146899700E0
4.036438750E1;3.109699965E0;-5.568699837E0;6.133999825E0
4.038424063E1;3.562699795E0;-3.354899883E0;4.500999928E0
4.040409219E1;2.732199907E0;-1.570099950E0;-9.350000024E-1
4.042394531E1;2.365200043E0;1.333400011E0;-9.183099747E0
4.044379844E1;2.064599991E0;3.289799929E0;-1.056239986E1
4.046365000E1;5.224999785E-1;1.429799914E0;-1.914399981E0
4.048350313E1;8.280999660E-1;2.012799978E0;2.247999907E0
4.050335625E1;9.404999614E-1;3.804299831E0;3.533599854E0
4.052320781E1;5.370000005E-1;4.576600075E0;1.988799930E0
4.054306094E1;3.027999997E-1;4.562799931E0;6.259999871E-1
4.056291406E1;1.318499923E0;3.137300014E0;1.397999972E-1
4.058276719E1;3.533699989E0;1.308899999E0;6.633999944E-1
4.060261875E1;5.043499947E0;8.278999925E-1;8.277999759E-1
4.062247188E1;3.858699799E0;1.432699919E0;-4.349599838E0
4.064232344E1;3.855799913E0;2.079900026E0;-3.934000015E0
4.066217656E1;5.773200035E0;2.232300043E0;-1.513399959E0
4.068202969E1;7.373099804E0;4.094799995E0;-4.427799702E0
4.070188281E1;9.590600014E0;3.766199827E0;-3.794499874E0
4.072173438E1;8.933300018E0;-2.616400003E0;-1.307600021E0
