"Time (s)";"Acceleration x (m/s^2)";"Acceleration y (m/s^2)";"Acceleration z (m/s^2)"
0.000000000E0;3.186491013E0;8.045696259E0;5.677130699E0
1.191250000E-2;3.000710487E0;8.132413864E0;5.670829773E0
2.382343700E-2;3.037035465E0;8.132777214E0;5.242411137E0
3.573593700E-2;3.354822397E0;8.115653992E0;4.898546219E0
4.764687500E-2;3.589185953E0;8.032853127E0;4.825427055E0
5.956406200E-2;3.488437891E0;7.837371349E0;4.667410374E0
7.147031200E-2;3.387565613E0;7.898960114E0;4.755133629E0
8.338125000E-2;3.306402206E0;7.897887230E0;4.907471657E0
9.529375000E-2;3.127076387E0;7.799341679E0;4.928425789E0
1.072078120E-1;3.221245050E0;7.912117958E0;5.063880444E0
1.191156250E-1;3.356833458E0;8.067846298E0;5.085341930E0
1.310296870E-1;3.255290747E0;8.114888191E0;5.217061043E0
1.429390620E-1;3.245225668E0;8.029673576E0;5.211592674E0
1.548515620E-1;3.247131348E0;7.973927021E0;5.037342548E0
1.667625000E-1;3.286338568E0;7.859848022E0;5.196250916E0
1.786765620E-1;3.145971537E0;7.847685337E0;5.331896782E0
1.905859370E-1;2.943307161E0;7.892744541E0;5.248406410E0
2.024968750E-1;3.040703058E0;7.960203648E0;5.052311420E0
2.144093750E-1;3.097225666E0;8.058289528E0;5.048969269E0
2.263281250E-1;3.121397495E0;7.993530750E0;5.154783249E0
2.382312500E-1;3.197772503E0;7.911917686E0;5.083780766E0
2.501437500E-1;3.342736483E0;7.931319714E0;5.072738647E0
2.620546870E-1;3.321408987E0;7.979519844E0;5.397660732E0
2.739671870E-1;3.297361612E0;7.948280334E0;5.524802208E0
2.858781250E-1;3.214847803E0;7.750988960E0;5.475797653E0
2.977890620E-1;3.198366165E0;7.607336521E0;5.299862385E0
3.097015620E-1;3.245666027E0;7.440566063E0;5.265050888E0
3.216125000E-1;3.323381901E0;7.611952782E0;5.052167892E0
3.335250000E-1;3.385257483E0;8.188313484E0;5.249019146E0
3.454359370E-1;3.424474716E0;8.371804237E0;5.268325806E0
3.573468750E-1;3.548436880E0;7.522438049E0;5.863189220E0
3.692593750E-1;4.471363068E0;6.761532307E0;5.718895435E0
3.811703120E-1;4.306881428E0;6.499443531E0;6.280689716E0
3.930828120E-1;3.334921837E0;6.560773373E0;6.097629547E0
4.049937500E-1;2.569227457E0;7.023046017E0;5.028235435E0
4.169046870E-1;2.287717342E0;7.624804497E0;4.815802574E0
4.288171870E-1;1.577127695E0;7.823571205E0;5.298253536E0
4.407281250E-1;1.849626064E0;8.522792816E0;4.875044823E0
4.526406250E-1;1.514485836E0;8.924472809E0;5.123936653E0
4.645515620E-1;1.634770513E0;9.063307762E0;5.230564594E0
4.764687500E-1;2.240168571E0;8.717441559E0;5.439301014E0
4.883750000E-1;3.007442951E0;8.014685631E0;5.784563541E0
5.002859370E-1;3.715475321E0;7.708821774E0;5.481295109E0
5.122062500E-1;3.647872686E0;7.542980671E0;5.232987404E0
5.241109370E-1;2.666422367E0;7.462717056E0;6.461318493E0
5.360218750E-1;1.711902142E0;7.513196468E0;6.925391197E0
5.479328120E-1;1.459016919E0;7.909159184E0;5.713475227E0
5.598453120E-1;1.585277557E0;8.209190369E0;4.950538635E0
5.717562500E-1;2.092561007E0;8.226888657E0;5.186348438E0
5.836734370E-1;2.619189739E0;7.957262993E0;5.457343102E0
5.955812500E-1;3.000662565E0;7.405611038E0;5.360742092E0
6.074937500E-1;3.153604269E0;7.079309464E0;5.175249100E0
6.194031250E-1;3.071138144E0;7.103787899E0;5.670331478E0
6.313203120E-1;3.140081882E0;7.713801861E0;5.692884922E0
6.432265620E-1;2.570788383E0;8.150963783E0;5.621700764E0
6.551375000E-1;1.558970094E0;8.407018661E0;5.170077801E0
6.670484370E-1;1.213228106E0;8.065203667E0;5.881481171E0
6.789609370E-1;2.444460630E0;7.574038029E0;5.257418156E0
6.909046870E-1;3.384740591E0;7.544234753E0;4.366880417E0
7.027875000E-1;3.244076252E0;7.673742294E0;4.293474197E0
7.147000000E-1;3.364485264E0;7.965336800E0;4.289834976E0
7.266062500E-1;3.921635151E0;8.537779808E0;4.763321877E0
7.385187500E-1;4.669258118E0;8.908796310E0;5.237028599E0
7.504515620E-1;4.385430813E0;8.681021690E0;5.232575893E0
7.623484370E-1;3.660246134E0;8.421278954E0;5.677016258E0
7.742531250E-1;3.184776545E0;8.264114380E0;5.865420818E0
7.861640620E-1;3.324061871E0;8.198177338E0;5.353703022E0
7.980765620E-1;3.965564251E0;8.144528389E0;4.994180202E0
8.099875000E-1;4.157895088E0;8.185382843E0;4.882265568E0
8.218984370E-1;3.939955711E0;8.129684448E0;4.847588062E0
8.338109370E-1;3.696130276E0;8.117818832E0;5.010594845E0
8.457218750E-1;3.698581934E0;8.262782097E0;4.633556366E0
8.576343750E-1;3.858217716E0;8.266259193E0;4.157990932E0
8.695515620E-1;4.317847252E0;8.151510239E0;4.269091129E0
8.814578120E-1;3.937819958E0;8.205129623E0;4.696149826E0
8.933687500E-1;3.975974083E0;8.143915176E0;4.845088482E0
9.052796870E-1;4.346347809E0;8.019809723E0;4.361756802E0
9.171921870E-1;6.789420128E0;8.747004509E0;2.978894472E0
9.291093750E-1;6.543803215E0;8.937592506E0;3.930359840E0
9.410156250E-1;6.206766605E0;8.732074738E0;4.776671886E0
9.529265620E-1;6.033072472E0;8.343754768E0;4.887561321E0
9.648375000E-1;5.859779835E0;8.240612030E0;4.888001919E0
9.767500000E-1;5.702021122E0;8.377963066E0;5.129232407E0
9.886609370E-1;6.038167000E0;8.711800575E0;5.306786060E0
1.000573437E0;6.299077511E0;9.081944466E0;5.191807270E0
1.012484375E0;6.012395859E0;9.041980743E0;4.954886913E0
1.024396875E0;5.419543266E0;8.828657150E0;4.615848541E0
1.036307812E0;4.789686680E0;8.708248138E0;4.195110798E0
1.048220312E0;4.231253624E0;8.714990616E0;3.950672150E0
1.060131250E0;3.763780832E0;8.808095932E0;3.758580685E0
1.072042187E0;3.336454153E0;8.786135674E0;3.586552382E0
1.083954687E0;3.027381897E0;8.660009384E0;3.589243650E0
1.095865625E0;2.815485239E0;8.732716560E0;4.242870331E0
1.107778125E0;3.023436308E0;8.727439880E0;4.688440800E0
1.119689062E0;2.931518078E0;8.695289612E0;4.953804016E0
1.131601562E0;2.706980228E0;8.552165031E0;4.978838444E0
1.143512500E0;2.713798761E0;8.480655670E0;4.769919872E0
1.155425000E0;2.924412012E0;8.520791054E0;4.597020626E0
1.167335937E0;2.755649567E0;8.391868591E0;4.649980545E0
1.179246875E0;2.309264898E0;8.052322388E0;4.475663185E0
1.191159375E0;1.949694157E0;7.787677288E0;3.892224789E0
1.203070312E0;1.680490136E0;7.636890411E0;3.445055246E0
1.214982812E0;1.291920781E0;7.294462204E0;3.221532583E0
1.226898437E0;1.255509734E0;6.915977001E0;3.213459253E0
1.238804687E0;1.727904916E0;7.124377728E0;3.335927486E0
1.250717187E0;1.987991810E0;7.771846771E0;3.214033842E0
1.262628125E0;2.104005337E0;8.257342339E0;2.915850401E0
1.274542187E0;2.383083105E0;8.799610138E0;2.378093481E0
1.286453125E0;2.324434519E0;9.171267509E0;2.189669847E0
1.298364062E0;1.881670117E0;8.987075806E0;2.138596773E0
1.310275000E0;2.054330349E0;8.717939377E0;2.112758636E0
1.322185937E0;2.760227203E0;8.785820007E0;2.543035030E0
1.334096875E0;3.424665928E0;9.029281616E0;3.605552673E0
1.346010937E0;4.880685329E0;9.030709267E0;4.831154346E0
1.357926562E0;6.732035637E0;8.704751968E0;5.741640568E0
1.369832812E0;7.460629463E0;8.587283134E0;6.196184635E0
1.381750000E0;7.637771606E0;8.474985123E0;5.853736877E0
1.393654687E0;6.863946438E0;8.260541916E0;4.779659748E0
1.405571875E0;5.521029472E0;7.811849117E0;3.440113544E0
1.417478125E0;4.185706139E0;7.206575871E0;2.287564039E0
1.429390625E0;3.195751667E0;6.665677547E0;1.908121347E0
1.441301562E0;3.544558048E0;6.363002777E0;2.361640692E0
1.453214062E0;4.722399712E0;6.389176369E0;3.467579842E0
1.465132812E0;6.057435513E0;6.888788700E0;4.451165676E0
1.477035937E0;6.912462234E0;7.159773827E0;4.997388840E0
1.488959375E0;6.870688438E0;7.106698990E0;4.968025684E0
1.500859375E0;6.742847443E0;7.160185814E0;4.180448532E0
1.512771875E0;6.462467670E0;7.243839264E0;3.307551384E0
1.524689062E0;5.816473484E0;6.927938461E0;2.968762159E0
1.536600000E0;5.119310856E0;6.272712708E0;2.864202738E0
1.548506250E0;5.089144230E0;6.261373520E0;3.205146551E0
1.560417187E0;5.768407822E0;6.736019611E0;3.711003065E0
1.572329687E0;6.651408195E0;7.134299755E0;3.810199738E0
1.584240625E0;7.101144791E0;6.964972019E0;4.020860672E0
1.596153125E0;7.043626308E0;6.764529705E0;4.551674366E0
1.608064062E0;6.787878036E0;6.877028465E0;4.448752403E0
1.619976562E0;6.272971153E0;6.620551586E0;3.358863831E0
1.631887500E0;5.652882576E0;6.403149128E0;2.245253563E0
1.643800000E0;5.239729404E0;6.853497982E0;1.461918712E0
1.655710937E0;4.990713596E0;7.397949219E0;1.119701028E0
1.667621875E0;5.647826195E0;7.552231312E0;8.749658465E-1
1.679534375E0;6.627236366E0;7.522007465E0;9.834518433E-1
1.691445312E0;7.107925415E0;7.178774357E0;2.267356873E0
1.703356250E0;7.062368393E0;6.688959122E0;3.502774715E0
1.715268750E0;6.785033703E0;6.209984303E0;4.400629044E0
1.727179687E0;6.857137203E0;5.842561245E0;4.919260979E0
1.739095312E0;6.426563740E0;5.643640995E0;4.587529659E0
1.751003125E0;5.875792503E0;5.713130474E0;3.865754604E0
1.762920312E0;5.688738346E0;6.080611229E0;3.070985079E0
1.774829687E0;5.983866692E0;6.659577370E0;2.727378845E0
1.786737500E0;6.156316280E0;7.045292854E0;2.768357992E0
1.798650000E0;6.160577774E0;7.036549091E0;3.049494743E0
1.810560937E0;6.027862072E0;6.716109276E0;3.228801250E0
1.822478125E0;5.682321548E0;6.262216091E0;3.311966419E0
1.834385937E0;5.416421890E0;5.695259571E0;3.552104712E0
1.846295312E0;5.608110905E0;5.898747921E0;3.474647522E0
1.858207812E0;6.209754944E0;6.386111736E0;3.043528318E0
1.870118750E0;6.671854973E0;6.751236916E0;2.907259941E0
1.882031250E0;6.653458118E0;6.856639385E0;2.440850258E0
1.893946875E0;6.564527512E0;6.698516369E0;2.118906736E0
1.905853125E0;6.564556122E0;6.589781761E0;2.024211407E0
1.917765625E0;6.273746967E0;6.336992264E0;2.139353275E0
1.929676562E0;6.312724590E0;5.952493191E0;2.951188803E0
1.941593750E0;6.722353458E0;6.271218777E0;3.969461918E0
1.953501562E0;7.152610302E0;6.693976879E0;4.716615677E0
1.965410937E0;7.580961704E0;7.008518219E0;4.937916279E0
1.977323437E0;7.805634022E0;7.103223324E0;4.817746639E0
1.989234375E0;7.621691704E0;7.122587204E0;4.435076714E0
2.001146875E0;7.491380215E0;7.179224491E0;3.957835674E0
2.013062500E0;7.367648125E0;7.432272434E0;3.594865322E0
2.024970312E0;7.543009281E0;7.500191212E0;3.253787041E0
2.036881250E0;7.796382904E0;7.308655262E0;3.267941713E0
2.048793750E0;7.450698376E0;7.014513016E0;3.812842846E0
2.060704687E0;6.708811760E0;6.514603615E0;4.850594997E0
2.072615625E0;6.246060371E0;6.295553207E0;4.875111580E0
2.084528125E0;6.191175938E0;6.274982452E0;4.798076153E0
2.096439062E0;6.070958138E0;6.335785866E0;4.501683712E0
2.108351562E0;5.880887032E0;6.433861732E0;4.138617039E0
2.120276562E0;5.839381218E0;6.647893429E0;4.164311409E0
2.132175000E0;5.824010849E0;6.843279839E0;4.572992325E0
2.144085937E0;5.984086990E0;6.795194149E0;4.509766102E0
2.155996875E0;6.214629173E0;6.790693283E0;4.302591324E0
2.167909375E0;6.339644909E0;6.859617710E0;4.149706841E0
2.179820312E0;6.190591812E0;6.401654720E0;4.117347240E0
2.191739062E0;6.000032425E0;6.311575413E0;3.692970037E0
2.203643750E0;6.149439812E0;6.318863392E0;3.228427649E0
2.215554687E0;6.469659805E0;6.140830517E0;3.007921934E0
2.227467187E0;6.897542000E0;5.715285301E0;3.176320314E0
2.239381250E0;7.275279999E0;5.391646385E0;3.374387980E0
2.251289062E0;7.379571438E0;5.153672218E0;3.381187439E0
2.263201562E0;7.235143661E0;4.749282360E0;3.181453705E0
2.275112500E0;7.267474651E0;4.448177814E0;3.075591564E0
2.287025000E0;7.470933914E0;4.743880749E0;3.186098337E0
2.298935937E0;7.702597141E0;5.140408516E0;2.777953863E0
2.310848437E0;7.757452965E0;5.156564236E0;1.998497605E0
2.322759375E0;7.731298923E0;5.126694202E0;1.336443305E0
2.334671875E0;7.503227234E0;4.775110722E0;1.020121455E0
2.346582812E0;7.168182850E0;4.213622570E0;1.183396459E0
2.358493750E0;7.157599926E0;3.951955557E0;1.678996205E0
2.370404687E0;7.317647457E0;3.909214020E0;2.279701471E0
2.382317187E0;7.253329754E0;3.708800316E0;2.344115019E0
2.394228125E0;7.159227848E0;3.798305273E0;2.400532007E0
2.406140625E0;7.048874378E0;4.256651402E0;2.922803164E0
2.418059375E0;6.551474571E0;4.586782932E0;2.704988241E0
2.429964062E0;5.918629169E0;4.443427563E0;2.003841400E0
2.441875000E0;5.617228031E0;4.074299335E0;1.703311682E0
2.453785937E0;5.672457695E0;3.901045084E0;1.657611251E0
2.465698437E0;6.363634586E0;3.712995052E0;2.435832024E0
2.477609375E0;7.415934563E0;3.657124043E0;3.720541477E0
2.489521875E0;8.017348289E0;3.818866730E0;4.844676971E0
2.501432812E0;8.267408371E0;3.977841616E0;4.810027599E0
2.513345312E0;8.712681770E0;4.264054298E0;4.167615891E0
2.525256250E0;8.941156387E0;4.839486122E0;3.702144623E0
2.537175000E0;8.715890884E0;5.465167522E0;2.973052740E0
2.549079687E0;8.266929626E0;5.625176907E0;2.261198997E0
2.560990625E0;8.597185135E0;5.319734573E0;2.139065981E0
2.572903125E0;8.974061966E0;5.097590923E0;2.759566307E0
2.584814062E0;9.251520157E0;5.156143188E0;3.604709864E0
2.596745312E0;9.687984467E0;4.875399113E0;4.331005573E0
2.608645312E0;1.041944122E1;4.310262203E0;4.760937214E0
2.620550000E0;1.060146809E1;4.057645321E0;5.340075016E0
2.632460937E0;1.046905899E1;4.087572575E0;5.644991398E0
2.644373437E0;1.026358795E1;4.057712078E0;5.280315876E0
2.656284375E0;9.926944733E0;3.858802080E0;4.546866894E0
2.668195312E0;9.442607880E0;3.513864517E0;4.059685230E0
2.680115625E0;9.125528336E0;2.991401911E0;3.881824493E0
2.692018750E0;8.867108345E0;2.308240175E0;4.284730434E0
2.703929687E0;8.725151062E0;1.680969000E0;5.048844814E0
2.715878125E0;8.306625366E0;1.084017992E0;5.704156876E0
2.727754687E0;7.930247307E0;6.753468513E-1;5.841938496E0
2.739665625E0;8.293954849E0;5.817526579E-1;5.372722626E0
2.751582812E0;8.959725380E0;1.064979196E0;5.074156284E0
2.763487500E0;9.158405304E0;1.554555178E0;4.751781940E0
2.775400000E0;8.971082687E0;2.004713058E0;4.089909554E0
2.787310937E0;9.066008568E0;2.559593201E0;3.383294106E0
2.799221875E0;9.068690300E0;2.901782036E0;2.986632586E0
2.811134375E0;9.063450813E0;2.666776896E0;3.217222929E0
2.823045312E0;8.568110466E0;2.255941391E0;3.883318663E0
2.834957812E0;8.061794281E0;1.884476185E0;4.186616421E0
2.846868750E0;8.116362572E0;1.678009748E0;4.200071335E0
2.858781250E0;8.776243210E0;1.873051047E0;4.595181465E0
2.870692187E0;9.441285133E0;2.151937246E0;4.817048073E0
2.882603125E0;9.602252007E0;2.460473061E0;4.173591614E0
2.894517187E0;1.002441692E1;2.295311451E0;4.110049248E0
2.906428125E0;1.079670048E1;2.665081739E0;5.365128517E0
2.918337500E0;1.077777672E1;2.617082834E0;6.067481995E0
2.930250000E0;1.041304398E1;1.596310019E0;5.719489098E0
2.942160937E0;9.978534698E0;6.672927141E-1;6.047427654E0
2.954073437E0;9.495183945E0;1.618097275E-1;6.460916042E0
2.965984375E0;9.217044830E0;1.811836064E-1;6.626949310E0
2.977895312E0;9.102390289E0;2.064759582E-1;6.698535442E0
2.989807812E0;9.452614784E0;3.879468739E-1;6.478451252E0
3.001720312E0;9.806344032E0;3.687453568E-1;5.595890999E0
3.013631250E0;1.027377796E1;3.405991197E-1;4.213526726E0
3.025543750E0;9.564979553E0;8.281639218E-1;4.312838554E0
3.037454687E0;8.740378380E0;1.580565810E0;3.956063986E0
3.049365625E0;7.546772957E0;1.732109189E0;3.862756968E0
3.061278125E0;7.167943001E0;1.366648674E0;4.025362015E0
3.073189062E0;7.393189430E0;1.228407502E0;3.968762636E0
3.085100000E0;7.836662769E0;1.257951856E0;4.293358803E0
3.097012500E0;8.425387383E0;1.363698959E0;4.757154465E0
3.108925000E0;9.249749184E0;1.476580858E0;5.056381702E0
3.120835937E0;9.619902611E0;1.799549103E0;5.012500286E0
3.132751562E0;9.641775131E0;2.219999552E0;4.710793018E0
3.144659375E0;9.060770035E0;2.227622747E0;5.062041283E0
3.156570312E0;8.429456711E0;1.746072173E0;5.528565884E0
3.168482812E0;7.928341389E0;1.137102127E0;5.566844940E0
3.180393750E0;8.012004852E0;5.607028604E-1;5.883003712E0
3.192314062E0;8.639065742E0;2.888843715E-1;6.943146706E0
3.204217187E0;9.362420082E0;1.959989369E-1;7.168106079E0
3.216134375E0;9.623656273E0;1.888163239E-1;6.920209885E0
3.228040625E0;9.964514732E0;2.719142735E-1;6.352487087E0
3.239951562E0;9.450345039E0;-3.032112718E-1;4.656885147E0
3.251862500E0;8.091702461E0;-5.490191579E-1;4.573950291E0
3.263775000E0;6.845453739E0;-2.875819504E-1;4.865745544E0
3.275685937E0;5.785454273E0;-7.972117066E-1;4.852951050E0
3.287598437E0;5.325011253E0;-1.755467057E0;4.904761791E0
3.299509375E0;5.348866463E0;-2.544375420E0;5.649923325E0
3.311420312E0;6.601044178E0;-2.140416145E0;5.862260342E0
3.323332812E0;8.686547279E0;-1.414216638E0;6.039402485E0
3.335243750E0;9.530962944E0;-1.528975487E0;6.322923660E0
3.347156250E0;8.817787170E0;-2.329519987E0;5.893471241E0
3.359067187E0;7.445306778E0;-2.725473166E0;5.206852436E0
3.370981250E0;5.832782745E0;-1.932886958E0;5.557708263E0
3.382893750E0;5.095090866E0;-3.927065432E-1;6.022221565E0
3.394801562E0;5.560696125E0;1.197282791E0;5.802970409E0
3.406714062E0;6.081875324E0;1.276521325E0;5.181770325E0
3.418625000E0;6.405485153E0;-2.521573193E-2;4.685979366E0
3.430535937E0;7.141166210E0;-5.741870403E-1;4.540057659E0
3.442450000E0;7.771933079E0;-5.323459506E-1;4.635509968E0
3.454359375E0;8.032728195E0;-7.898758650E-1;4.850872993E0
3.466270312E0;8.303550720E0;-1.501288891E0;4.958018303E0
3.478182812E0;9.004975319E0;-1.669151187E0;6.772200584E0
3.490093750E0;1.004345608E1;-1.341672421E0;8.159870148E0
3.502006250E0;1.012957001E1;-1.237821460E0;9.430147171E0
3.513917187E0;9.268146515E0;-1.372586250E0;9.647636414E0
3.525829687E0;8.586211205E0;-1.590142608E0;9.326929092E0
3.537740625E0;7.671989918E0;-1.604067206E0;8.917893410E0
3.549665625E0;7.009120941E0;-1.560464144E0;8.314612389E0
3.561564062E0;6.259353161E0;-1.447457790E0;8.364957809E0
3.573475000E0;6.888185501E0;-1.448645234E0;8.329131126E0
3.585387500E0;8.285710335E0;-1.107500196E0;7.558245659E0
3.597300000E0;9.502261162E0;-1.969278753E-1;7.016591072E0
3.609210937E0;9.885706902E0;1.292935967E0;6.179999352E0
3.621121875E0;9.369257927E0;2.109195948E0;5.447029114E0
3.633037500E0;8.153550148E0;2.128148556E0;3.988596439E0
3.644945312E0;5.756465435E0;1.595486403E0;1.562254906E0
3.656857812E0;4.313604355E0;2.657784224E0;-2.031240612E-2
3.668768750E0;4.948460579E0;4.948336124E0;7.825304270E-1
3.680679687E0;7.463119030E0;4.401002407E0;-1.047128066E-1
3.692592187E0;1.069466877E1;3.485833168E0;-2.719544888E0
3.704518750E0;1.903172112E1;3.361449718E0;-5.609940529E0
3.716415625E0;2.032890892E1;1.533696890E0;-5.459737778E0
3.728329687E0;1.740600967E1;2.440208673E0;-2.286941558E-1
3.740243750E0;1.259013939E1;3.003430128E0;3.291328192E0
3.752150000E0;8.926465034E0;2.336989641E0;2.570884228E0
3.764060937E0;5.764777660E0;-9.345047921E-2;-9.059659392E-2
3.775973437E0;4.074672699E0;-5.034153938E0;-2.525892258E0
3.787884375E0;4.364954948E0;-9.117867470E0;-2.715503573E-1
3.799795312E0;5.275709629E0;-1.220234585E1;9.878696442E0
3.811707812E0;6.644857883E0;-1.025720978E1;7.707892895E0
3.823637500E0;6.142659664E0;-8.169792175E0;4.911379337E0
3.835531250E0;7.790856838E0;-4.880771637E0;1.941132545E0
3.847448437E0;1.044650459E1;-2.629139900E0;6.686047316E-1
3.859353125E0;1.257225037E1;-2.894896269E0;1.403002143E-1
3.871265625E0;1.213999081E1;-5.632033825E0;2.307818890E0
3.883176562E0;7.229559898E0;-9.125471115E0;2.996237993E0
3.895096875E0;3.498867273E0;-1.223446655E1;1.686715126E0
3.907000000E0;2.772495031E0;-1.322290802E1;3.024049044E0
3.918917187E0;6.434962749E0;-1.294030571E1;2.921405077E0
3.930823437E0;9.172714233E0;-1.149816322E1;3.056485891E0
3.942734375E0;9.698595047E0;-8.588844299E0;2.796667099E0
3.954646875E0;7.783578396E0;-5.056372166E0;2.970725484E-2
3.966557812E0;6.541744232E0;-4.472943306E0;-7.762576342E-1
3.978468750E0;6.397201538E0;-4.423057556E0;-1.412827969E0
3.990381250E0;5.583996773E0;-5.658542633E0;-1.929745674E0
4.002292187E0;4.249640942E0;-6.927680016E0;-8.554769754E-1
4.014204687E0;4.060431957E0;-6.119608402E0;-8.673234582E-1
4.026126562E0;3.520913124E0;-5.060863972E0;2.630777597E0
4.038028125E0;3.627770901E0;-6.821099758E0;3.630988836E0
4.049939062E0;3.340830803E0;-7.686584473E0;2.866654396E0
4.061850000E0;3.688104868E0;-6.402104855E0;1.646090388E0
4.073762500E0;3.516689777E0;-6.199143410E0;-1.348529339E0
4.085681250E0;2.343415737E0;-7.228458881E0;-3.023014784E0
4.097585937E0;-4.856781960E-1;-7.728004456E0;-1.179910541E0
4.109496875E0;2.628833652E-1;-5.761272907E0;-1.215890527E0
4.121409375E0;3.506835103E-1;-4.764978409E0;-2.546511173E0
4.133320312E0;-1.512369365E-1;-4.560121059E0;-2.121559620E0
4.145232812E0;6.711905003E-1;-3.560130119E0;-1.215325594E0
4.157148437E0;8.251855373E-1;-5.213987350E0;5.458396673E-1
4.169054687E0;3.759222269E0;-1.436818886E1;2.233895540E0
4.180967187E0;1.870541811E0;-2.288023567E1;3.239278316E0
4.192878125E0;-3.683306932E0;-3.460410690E1;3.637117863E0
4.204821875E0;-7.482742310E0;-3.146535492E1;4.461872578E0
4.216706250E0;-5.058709145E0;-1.620418739E1;3.649146557E-1
4.228612500E0;-1.747930050E0;-8.354422569E0;1.623824239E0
4.240525000E0;-1.256026983E0;-6.323699474E0;2.930991173E0
4.252435937E0;3.238205612E-1;-4.960124969E0;2.375316143E0
4.264348437E0;3.626305580E0;-4.628681660E0;1.456871748E0
4.276259375E0;3.483803034E0;-6.682982922E0;7.901248932E-1
4.288170312E0;-7.777037621E-1;-1.041316891E1;7.483029962E-1
4.300082812E0;-1.106916070E0;-1.258224773E1;-1.174930573E0
4.311993750E0;-3.387316689E-2;-1.311592579E1;-3.200453758E0
4.323910937E0;7.265827656E-1;-1.253334904E1;-2.305798054E0
4.335823437E0;8.672851920E-1;-1.141344738E1;1.884313345E0
4.347731250E0;1.191335559E0;-1.024527740E1;1.417539835E0
4.359640625E0;1.236844659E0;-9.714473724E0;7.540203333E-1
4.371551562E0;8.944737315E-1;-1.002145767E1;9.654857516E-1
4.383464062E0;8.999325633E-1;-1.059669781E1;8.009083271E-1
4.395375000E0;8.127165437E-1;-1.067620468E1;6.489052773E-1
4.407285937E0;4.158345461E-1;-9.995141029E0;9.665200710E-1
4.419204687E0;3.544663489E-1;-9.112619400E0;7.926339507E-1
4.431109375E0;9.054008722E-1;-8.726022720E0;7.468568683E-1
4.443020312E0;8.314583898E-1;-9.223518372E0;8.287577033E-1
4.454932812E0;9.810577035E-1;-9.838005066E0;1.122535944E0
4.466843750E0;1.873434067E0;-9.750204086E0;1.128262758E0
4.478756250E0;1.870743036E0;-9.419498444E0;1.674188614E0
4.490667187E0;2.089170933E0;-8.845905304E0;1.614400625E0
4.502582812E0;2.135043621E0;-8.461797714E0;1.854969978E0
4.514490625E0;2.167240858E0;-8.964973450E0;2.152301073E0
4.526403125E0;2.822313786E0;-8.944172859E0;2.820762157E0
4.538314062E0;3.258364677E0;-8.719357491E0;2.816701651E0
4.550225000E0;3.366056204E0;-8.810068130E0;2.840547800E0
4.562137500E0;3.194956779E0;-8.894995689E0;2.914844751E0
4.574050000E0;3.125965595E0;-8.897706032E0;3.074624300E0
4.585960937E0;3.436206102E0;-8.451197624E0;3.558099747E0
4.597871875E0;3.165718794E0;-8.214390755E0;3.867603064E0
4.609784375E0;3.294670582E0;-7.815191269E0;4.344106674E0
4.621703125E0;2.892942667E0;-7.984509468E0;4.102982044E0
4.633610937E0;3.154264927E0;-7.972883224E0;4.125458717E0
4.645518750E0;3.247140884E0;-7.990571976E0;4.519495964E0
4.657432812E0;3.349852085E0;-7.917902946E0;4.456768036E0
4.669342187E0;3.586427927E0;-7.804255009E0;4.463155746E0
4.681253125E0;3.735251427E0;-7.599282265E0;4.919059753E0
4.693165625E0;3.832551956E0;-7.352870941E0;4.900653362E0
4.705076562E0;3.804625988E0;-7.242239952E0;5.139690399E0
4.716989062E0;3.974010944E0;-6.942821026E0;5.570723057E0
4.728900000E0;3.651588678E0;-7.080880165E0;5.202724457E0
4.740810937E0;3.713129044E0;-7.064570904E0;5.237220287E0
4.752723437E0;3.898794651E0;-7.083580971E0;5.848641872E0
4.764634375E0;4.049274921E0;-6.973122120E0;5.693258286E0
4.776545312E0;4.072920322E0;-6.839209557E0;6.037343025E0
4.788457812E0;4.179366112E0;-6.497489929E0;6.346214771E0
4.800368750E0;4.297486782E0;-5.990828991E0;6.365042686E0
4.812287500E0;3.860343695E0;-5.869912148E0;6.631153107E0
4.824192187E0;3.765495062E0;-5.771337986E0;6.632666588E0
4.836104687E0;3.983070612E0;-5.388294220E0;7.159630299E0
4.848015625E0;4.272807121E0;-5.229415417E0;7.153970242E0
4.859926562E0;4.254515648E0;-5.175861835E0;7.623243809E0
4.871845312E0;4.201125145E0;-5.000883579E0;7.445632458E0
4.883750000E0;4.138607502E0;-4.741285801E0;7.697272301E0
4.895660937E0;3.899158716E0;-4.514037609E0;8.491581917E0
4.907573437E0;3.795020342E0;-4.368124962E0;8.035496712E0
4.919517187E0;3.808092833E0;-4.101286411E0;7.035620213E0
4.931396875E0;3.381417274E0;-4.043260574E0;7.167339802E0
4.943307812E0;2.171828032E0;-4.150022984E0;8.090313911E0
4.955218750E0;1.271024227E0;-3.928386927E0;8.471873283E0
4.967131250E0;7.556483746E-1;-3.427730799E0;8.700529099E0
4.979062500E0;-2.826220989E0;-9.061095715E-1;1.282118988E1
4.990954687E0;-2.303327322E0;1.887674809E0;7.832975388E0
5.002865625E0;8.885840178E-1;3.237324715E0;7.889488220E0
5.014778125E0;1.011128902E0;4.321600914E0;1.859028625E1
5.026689062E0;-2.160336256E0;2.186519146E0;1.285581970E1
5.038601562E0;-9.277723432E-1;4.703361094E-1;4.875973701E0
5.050512500E0;2.994093001E-1;1.427518725E-1;5.551550388E0
5.062423437E0;6.313031167E-2;-8.773695827E-1;1.121766758E1
5.074335937E0;-1.794406325E-1;-1.442889690E0;1.087724113E1
5.086246875E0;-5.072451234E-1;-4.003009200E-1;9.488556862E0
5.098164062E0;2.323333323E-1;-8.631575853E-2;1.086366081E1
5.110070312E0;-8.455362916E-2;-8.575456142E-1;9.810643196E0
5.121982812E0;-1.713290811E-2;-6.303645372E-1;9.348256111E0
5.133898437E0;-4.479072616E-2;-6.732878685E-1;9.649801254E0
5.145804687E0;-5.227978900E-2;-7.549971342E-1;9.784221649E0
5.157721875E0;-2.049436718E-1;-8.071045280E-1;9.648748398E0
5.169628125E0;6.847416610E-2;-4.381389022E-1;9.627946854E0
5.181540625E0;1.194227859E-1;-2.852451801E-1;9.763612747E0
5.193451562E0;8.471643180E-2;-2.004329860E-1;9.986128807E0
5.205362500E0;2.350148372E-2;-1.326770782E-1;9.851718903E0
5.217276562E0;-1.004415527E-1;-6.904877722E-3;9.772068024E0
5.229185937E0;-1.814996451E-1;-6.517975032E-2;9.763554573E0
5.241096875E0;-2.356277555E-1;-1.290474683E-1;9.732228279E0
5.253009375E0;-1.771613508E-1;-1.877532899E-1;9.737112999E0
5.264920312E0;-1.072889641E-1;-3.428209424E-1;9.701085091E0
5.276837500E0;-5.430049449E-2;-3.478966653E-1;9.695635796E0
5.288750000E0;-6.765056401E-2;-3.838384151E-1;9.739056587E0
5.300675000E0;-7.431601733E-2;-3.829286098E-1;9.761495590E0
5.312567187E0;-7.149086148E-2;-3.556730449E-1;9.876149178E0
5.324478125E0;-9.618944675E-2;-3.979546130E-1;9.791375160E0
5.336395312E0;-1.114165708E-1;-3.812622726E-1;9.775334358E0
5.348303125E0;-1.369004548E-1;-3.824976385E-1;9.763736725E0
5.360214062E0;-1.796513200E-1;-3.542748094E-1;9.711465836E0
5.372131250E0;-2.256582975E-1;-3.422559202E-1;9.677056313E0
5.384035937E0;-1.862018555E-1;-3.591972888E-1;9.612327576E0
5.395957812E0;-2.130073458E-1;-3.602220118E-1;9.582782745E0
5.407859375E0;-2.033251822E-1;-3.085742891E-1;9.620773315E0
5.419771875E0;-1.552591920E-1;-3.107961118E-1;9.674595833E0
5.431682812E0;-1.400033385E-1;-4.247218072E-1;9.699581146E0
5.443593750E0;-2.300349064E-2;-3.648859262E-1;9.865250587E0
5.455506250E0;7.511088997E-2;-2.773730457E-1;9.957369804E0
5.467417187E0;2.837607823E-2;-2.399660498E-1;9.903308868E0
5.479329687E0;4.501099174E-4;-2.697690725E-1;9.836318970E0
5.491240625E0;-5.487510003E-3;-2.754864097E-1;9.823667526E0
5.503153125E0;1.584961452E-2;-1.984314471E-1;9.770018578E0
5.515064062E0;2.879745886E-2;-1.694615930E-1;9.723054886E0
5.526976562E0;-5.246174708E-2;-2.525499761E-1;9.678531647E0
5.538893750E0;-6.746860594E-2;-2.981451452E-1;9.673868179E0
5.550798437E0;-4.548025504E-2;-3.276800215E-1;9.736624718E0
5.562710937E0;-1.010544673E-1;-3.363470435E-1;9.534535408E0
5.574623437E0;-1.018493399E-1;-2.768750489E-1;9.633874893E0
5.586534375E0;2.940079663E-3;-3.996401429E-1;1.004149246E1
5.598445312E0;3.259944916E-2;-4.792425632E-1;9.915079117E0
5.610359375E0;-3.037763014E-2;-5.668224692E-1;9.724557877E0
5.622268750E0;-3.610455990E-2;-5.729995370E-1;9.654263496E0
5.634179687E0;-5.476975814E-2;-4.706809223E-1;9.729969025E0
5.646092187E0;-7.172070444E-2;-4.396233261E-1;9.819377899E0
5.658003125E0;-6.268977374E-2;-4.702786803E-1;9.799007416E0
5.669914062E0;-4.477157071E-2;-5.005509853E-1;9.833953857E0
5.681826562E0;-2.384624816E-2;-5.591897368E-1;9.831961632E0
5.693743750E0;-5.475060269E-2;-6.451320052E-1;9.818457603E0
5.705651562E0;-1.888546348E-2;-7.366766930E-1;9.808834076E0
5.717560937E0;2.257253416E-2;-7.799351215E-1;9.820785522E0
5.729473437E0;4.377558455E-2;-8.226764798E-1;9.765077591E0
5.741384375E0;8.378748596E-2;-9.031311870E-1;9.544206619E0
5.753295312E0;1.098459810E-1;-8.890916109E-1;9.482456207E0
5.765207812E0;6.378152966E-2;-8.710871935E-1;9.462191582E0
5.777120312E0;-1.120486390E-2;-8.828475475E-1;9.630139351E0
5.789031250E0;3.684197739E-2;-9.021639228E-1;9.822739601E0
5.800942187E0;1.769793965E-2;-8.845809102E-1;9.834346771E0
5.812854687E0;9.734824300E-2;-9.326660633E-1;9.739660263E0
5.824765625E0;8.079952002E-2;-8.706275225E-1;9.475254059E0
5.836676562E0;-3.180457652E-2;-8.116439581E-1;9.727861404E0
5.848587500E0;-6.184701994E-2;-7.314190865E-1;9.647665977E0
5.860500000E0;-3.313574940E-2;-7.780389190E-1;9.700902939E0
5.872414062E0;-2.281195484E-2;-8.923572898E-1;9.700855255E0
5.884323437E0;2.562753484E-2;-9.150639176E-1;9.722909927E0
5.896240625E0;6.795702130E-2;-8.451819420E-1;9.759081841E0
5.908146875E0;7.512047887E-2;-7.452000976E-1;9.593565941E0
5.920057812E0;3.217807040E-2;-6.760842204E-1;9.615324974E0
5.931968750E0;8.355764300E-2;-6.309104562E-1;9.748566628E0
5.943881250E0;3.556825966E-2;-6.440402865E-1;9.842055321E0
5.955792187E0;6.483498216E-2;-6.596025229E-1;9.878341675E0
5.967704687E0;8.083783090E-2;-7.237767577E-1;9.897448540E0
5.979615625E0;2.701617219E-2;-6.999113560E-1;9.656380653E0
5.991526562E0;-3.380613029E-2;-5.924404263E-1;9.557059288E0
6.003445312E0;-9.119992703E-2;-5.070823431E-1;9.694266319E0
6.015350000E0;-1.219414845E-1;-4.776719809E-1;9.796680450E0
6.027268750E0;-9.181284159E-2;-5.182680488E-1;9.769386292E0
6.039173437E0;-7.057148963E-2;-5.090456009E-1;9.789718628E0
6.051089062E0;-5.623500794E-2;-4.912901819E-1;9.733511925E0
6.063004687E0;-1.055268347E-1;-4.707766771E-1;9.752291679E0
6.074909375E0;-6.144479290E-2;-4.872679412E-1;9.840024948E0
6.086820312E0;-9.258856624E-2;-4.770111740E-1;9.865039825E0
6.098732812E0;-6.050626189E-2;-4.615733624E-1;9.704820633E0
6.110643750E0;-7.033207268E-2;-4.317320287E-1;9.759992599E0
6.122554687E0;-1.144619957E-1;-3.910880685E-1;9.743348122E0
6.134467187E0;-1.166455075E-1;-3.377069533E-1;9.738118172E0
6.146378125E0;-1.600092947E-1;-3.730549216E-1;9.616751671E0
6.158290625E0;-1.674217433E-1;-2.766835392E-1;9.691393852E0
6.170234375E0;-1.353490204E-1;-3.226330578E-1;9.672508240E0
6.182114062E0;-1.605647504E-1;-3.465942144E-1;9.763678551E0
6.194025000E0;-1.150557548E-1;-3.613520861E-1;9.698096275E0
6.205935937E0;-9.533711523E-2;-4.043040574E-1;9.814263344E0
6.217848437E0;-6.872316450E-2;-4.129997790E-1;9.916764259E0
6.229759375E0;-4.638047516E-2;-4.265414178E-1;9.663380623E0
6.241678125E0;-1.144045368E-1;-3.735912442E-1;9.800195694E0
6.253582812E0;-1.005373150E-1;-3.320853710E-1;9.817710876E0
6.265493750E0;-1.017439961E-1;-3.151152730E-1;9.760949135E0
6.277406250E0;-1.172201186E-1;-3.031633794E-1;9.727364540E0
6.289317187E0;-1.183980629E-1;-2.544078529E-1;9.794334412E0
6.301228125E0;-1.625758708E-1;-3.468910754E-1;9.753191948E0
6.313140625E0;-6.439444423E-2;-3.282929361E-1;9.719233513E0
6.325051562E0;-6.871359050E-2;-2.747202814E-1;9.769712448E0
6.336964062E0;-1.478946209E-1;-2.768463492E-1;9.802407265E0
6.348875000E0;-1.466113329E-1;-3.079518080E-1;9.765661240E0
6.360787500E0;-1.097023264E-1;-3.007308841E-1;9.741001129E0
6.372698437E0;-1.113686860E-1;-3.225181401E-1;9.764732361E0
6.384614062E0;-1.147205681E-1;-2.997444868E-1;9.752264023E0
6.396520312E0;-1.227650866E-1;-3.207080960E-1;9.748059273E0
6.408432812E0;-9.514557570E-2;-3.868934214E-1;9.608601570E0
6.420351562E0;-9.171707928E-2;-2.497343868E-1;9.865250587E0
6.432256250E0;-1.135426164E-1;-2.389604747E-1;9.742283821E0
6.444167187E0;-9.654379636E-2;-2.442373037E-1;9.712069511E0
6.456079687E0;-7.092583179E-2;-2.436818480E-1;9.733752251E0
6.467990625E0;-5.969223753E-2;-2.401480079E-1;9.807886124E0
6.479901562E0;-9.994355589E-2;-2.130169123E-1;9.720947266E0
6.491814062E0;-7.797435671E-2;-2.079028934E-1;9.780218124E0
6.503726562E0;-9.990525246E-2;-2.350052595E-1;9.723102570E0
6.515637500E0;-1.198633090E-1;-2.474934161E-1;9.803652763E0
6.527548437E0;-1.265383512E-1;-2.929353714E-1;9.735599518E0
6.539467187E0;-6.722918898E-2;-1.730241627E-1;9.736739159E0
6.551371875E0;-5.872498080E-2;-2.418814152E-1;9.671828270E0
6.563289062E0;-8.155608177E-2;-1.926662028E-1;9.741576195E0
6.575195312E0;-1.137820408E-1;-1.700170487E-1;9.804734230E0
6.587114062E0;-9.921572357E-2;-1.995040476E-1;9.744736671E0
6.599018750E0;-1.457398534E-1;-2.599624395E-1;9.693529129E0
6.610929687E0;-8.760862797E-2;-1.809729189E-1;9.796010971E0
6.622842187E0;-1.331846416E-1;-2.171923965E-1;9.747886658E0
6.634753125E0;-1.321695149E-1;-1.988432407E-1;9.733367920E0
6.646665625E0;-1.452514380E-1;-1.871787012E-1;9.764426231E0
6.658576562E0;-1.178426072E-1;-1.850813776E-1;9.793510437E0
6.670489062E0;-1.185225621E-1;-2.446491122E-1;9.800999641E0
6.682400000E0;-5.602432042E-2;-2.177957445E-1;9.734172821E0
6.694310937E0;-9.412086010E-2;-2.199217975E-1;9.723131180E0
6.706231250E0;-7.051403075E-2;-1.872265786E-1;9.828360558E0
6.718134375E0;-1.049234942E-1;-1.933078468E-1;9.807004929E0
6.730045312E0;-5.474102870E-2;-2.020323128E-1;9.779251099E0
6.741957812E0;3.093308769E-3;-2.423889786E-1;9.857666016E0
6.753868750E0;1.392180324E-1;-2.787521183E-1;9.864686012E0
6.765781250E0;7.950665057E-2;-3.392966986E-1;9.773256302E0
6.777698437E0;-1.001734007E-2;-2.566584051E-1;9.624000549E0
6.789603125E0;-1.428284943E-1;-1.895154268E-1;9.484438896E0
6.801515625E0;-4.392594099E-1;-3.800076991E-2;9.279063225E0
6.813428125E0;-5.488946438E-1;1.247283295E-1;9.672334671E0
6.825339062E0;-1.426656991E-1;3.107865155E-1;1.022066498E1
6.837250000E0;-2.918052971E-1;-8.535807580E-2;9.788435936E0
6.849160937E0;-5.254793912E-2;-1.385955513E-1;9.847044945E0
6.861073437E0;-3.319321200E-2;-1.982782185E-1;9.723484993E0
6.872984375E0;-9.471461922E-2;-1.381837428E-1;9.869953156E0
6.884896875E0;-7.997591048E-2;-1.669716388E-1;9.644879341E0
6.896807812E0;-1.242686436E-1;-1.467262506E-1;9.830965996E0
6.908718750E0;-9.919656068E-2;-1.410567909E-1;9.719731331E0
6.920631250E0;-1.068005487E-1;-1.550293416E-1;9.663841248E0
6.932542187E0;-1.199112013E-1;-1.621544957E-1;9.779557228E0
6.944454687E0;-9.316317737E-2;-1.760983318E-1;9.711360931E0
6.956365625E0;-9.591171890E-2;-1.185034066E-1;9.888043404E0
6.968276562E0;-5.628289282E-2;-1.632270962E-1;9.684009552E0
6.980189062E0;-4.645708948E-2;-2.147120088E-1;9.534209251E0
6.992101562E0;-6.364745647E-2;-1.690019071E-1;1.028053951E1
7.004012500E0;-2.430593409E-2;-1.790767014E-1;9.657874107E0
7.015923437E0;-1.233396903E-1;-1.507485211E-1;9.769731522E0
7.027835937E0;-6.228755042E-2;-2.058534473E-1;9.971639633E0
7.039746875E0;-6.611827016E-2;-1.938728839E-1;9.605212212E0
7.051659375E0;-9.334513545E-2;-1.770559996E-1;9.793951035E0
7.063570312E0;-1.067335159E-1;-1.966597289E-1;9.863430977E0
7.075482812E0;-1.090511009E-1;-1.843535304E-1;9.643001556E0
7.087393750E0;-1.146152243E-1;-1.839896142E-1;9.698393822E0
7.099304687E0;-8.133582026E-2;-1.394766122E-1;9.834317207E0
7.111217187E0;-7.006391883E-2;-1.718749553E-1;9.736452103E0
7.123128125E0;-6.659711152E-2;-2.237716615E-1;9.696556091E0
7.135039062E0;-1.055747122E-1;-2.201803625E-1;9.709157944E0
7.146951562E0;-6.838797778E-2;-1.792778224E-1;9.741470337E0
7.158862500E0;-5.411853269E-2;-1.963053942E-1;9.794172287E0
7.170775000E0;-6.847416610E-2;-1.790192574E-1;9.725553513E0
7.182685937E0;-7.258261740E-2;-1.763185859E-1;9.815288544E0
7.194598437E0;-7.180690020E-2;-1.623364538E-1;9.739689827E0
7.206509375E0;-9.014648199E-2;-1.360098124E-1;9.769329071E0
7.218420312E0;-9.244491905E-2;-1.767016649E-1;9.703029633E0
7.230332812E0;-6.104256958E-2;-1.356554776E-1;9.754734039E0
7.242246875E0;-7.649953663E-2;-1.778987646E-1;9.726263046E0
7.254162500E0;-3.712927923E-2;-1.092234775E-1;9.801315308E0
7.266067187E0;-6.560112536E-2;-1.461516470E-1;9.781950951E0
7.277978125E0;-8.324160427E-2;-1.474445164E-1;9.772700310E0
7.289890625E0;-7.103117555E-2;-1.427901983E-1;9.773955345E0
7.301809375E0;-7.765832543E-2;-1.846216917E-1;9.762893677E0
7.313714062E0;-4.312435910E-2;-1.635048240E-1;9.782506943E0
7.325625000E0;-7.955453545E-2;-1.230236590E-1;9.697867393E0
7.337535937E0;-5.599559098E-2;-4.941632040E-3;9.768572807E0
7.349448437E0;-9.981905669E-2;-1.647498012E-1;9.731127739E0
7.361359375E0;-1.077582315E-1;-1.179096475E-1;9.864819527E0
7.373273437E0;-1.233492792E-2;-1.401565671E-1;9.789766312E0
7.385182812E0;-7.310934365E-2;-1.869296879E-1;9.675543785E0
7.397093750E0;-9.183199704E-2;-2.483840585E-1;9.771349907E0
7.409006250E0;-2.008256316E-2;-1.158793643E-1;9.898588181E0
7.420917187E0;-6.629065424E-2;-1.604498178E-1;9.632294655E0
7.432828125E0;-8.517611772E-2;-1.873510778E-1;9.908432961E0
7.444740625E0;-4.027047381E-2;-1.612542719E-1;9.797044754E0
7.456651562E0;-6.762183458E-2;-1.369483322E-1;9.775228500E0
7.468564062E0;-6.659711152E-2;-2.058438808E-1;9.800368309E0
7.480478125E0;-5.089114979E-2;-1.185896024E-1;9.727555275E0
7.492387500E0;-9.019436687E-2;-1.693083644E-1;9.727171898E0
7.504298437E0;-8.540596068E-2;-1.681399941E-1;9.713324547E0
7.516210937E0;-7.192181796E-2;-1.301583797E-1;9.729652405E0
7.528121875E0;-6.824432313E-2;-1.487373859E-1;9.781357765E0
7.540032812E0;-7.786902040E-2;-1.770464331E-1;9.754006386E0
7.551945312E0;-5.046019331E-2;-1.854931712E-1;9.753039360E0
7.563868750E0;-1.048373058E-1;-1.694137156E-1;9.782717705E0
7.575768750E0;-2.031240612E-2;-3.180457652E-2;9.696900368E0
7.587679687E0;-9.904333204E-2;-1.399650276E-1;9.853077888E0
7.599596875E0;-2.655648626E-2;-1.946964860E-1;9.751296043E0
7.611503125E0;-6.416460383E-4;-1.796321720E-1;9.745377541E0
7.623415625E0;-6.665457040E-2;-1.398596764E-1;9.795206070E0
7.635326562E0;-3.965755925E-2;-1.139735803E-1;9.747168541E0
7.647239062E0;-6.587885320E-2;-2.054608166E-1;9.769826889E0
7.659150000E0;-2.036029100E-2;-1.625950336E-1;9.769980431E0
7.671062500E0;-5.207867548E-2;-1.183405966E-1;9.744343758E0
7.682973437E0;-2.869211324E-2;-2.106705904E-1;9.781300545E0
7.694884375E0;-3.775177523E-2;-1.490725726E-1;9.790991783E0
7.706795312E0;-4.585375264E-2;-1.579311192E-1;9.771397591E0
7.718712500E0;-4.211879894E-2;-1.521946043E-1;9.727095604E0
7.730618750E0;-3.707182035E-2;-1.664066017E-1;9.761303902E0
7.742531250E0;-2.528277040E-2;-1.714056879E-1;9.787735939E0
7.754442187E0;-4.577713832E-2;-1.560540646E-1;9.770306587E0
7.766353125E0;-2.656606212E-2;-1.456440687E-1;9.792189598E0
7.778273437E0;-3.247495368E-2;-1.666747481E-1;9.789238930E0
7.790176562E0;-3.869029880E-2;-1.502409577E-1;9.790839195E0
7.802089062E0;-1.944091730E-2;-1.713099182E-1;9.791115761E0
7.814000000E0;-2.521573193E-2;-1.626046002E-1;9.761159897E0
7.825920312E0;-2.095405385E-2;-1.810591072E-1;9.755624771E0
7.837823437E0;-3.057874553E-2;-1.505282372E-1;9.716418266E0
7.849734375E0;-3.521391749E-2;-1.912967265E-1;9.776071548E0
7.861646875E0;-2.236184292E-2;-1.592239887E-1;9.755567551E0
7.873557812E0;-3.755065799E-2;-1.494173408E-1;9.740924835E0
7.885470312E0;-5.784391426E-3;-1.653818786E-1;9.782172203E0
7.897387500E0;-2.875915170E-2;-1.684081405E-1;9.756994247E0
7.909300000E0;-1.062067878E-2;-1.577683091E-1;9.794305801E0
7.921204687E0;-2.689167485E-2;-1.978568286E-1;9.728590012E0
7.933115625E0;-2.578076348E-2;-1.335102618E-1;9.756984711E0
7.945026562E0;-1.516008470E-2;-1.856942922E-1;9.785840034E0
7.956939062E0;-2.489012107E-2;-1.579119712E-1;9.775812149E0
7.968851562E0;-6.795702130E-2;-1.770655811E-1;9.782516479E0
7.980760937E0;-1.348414458E-2;-1.861252487E-1;9.773676872E0
7.992673437E0;-4.971320182E-2;-1.872840226E-1;9.751172066E0
8.004585937E0;-3.865199164E-2;-1.393521130E-1;9.745655060E0
8.016498437E0;1.915361354E-4;-1.773241609E-1;9.750999451E0
8.028407812E0;-1.130063273E-2;-1.745468676E-1;9.751142502E0
8.040329687E0;-8.360552602E-3;-1.964394748E-1;9.761370659E0
8.052231250E0;-5.440583825E-2;-1.892376989E-1;9.762616158E0
8.064150000E0;4.118026700E-4;-1.593197584E-1;9.758373260E0
8.076062500E0;1.176989544E-2;-2.014960200E-1;9.776234627E0
8.087967187E0;-2.831861749E-2;-1.933940500E-1;9.751190186E0
8.099878125E0;-2.128924243E-2;-2.020897865E-1;9.762136459E0
8.111790625E0;6.461471319E-2;-1.732923090E-1;9.765039444E0
8.123701562E0;-4.050989170E-3;-1.428859532E-1;9.757368088E0
8.135617187E0;1.403002162E-2;-1.835969687E-1;9.800999641E0
8.147531250E0;-6.263231859E-3;-1.276013702E-1;9.719817162E0
8.159435937E0;-6.311115623E-2;-1.206294522E-1;9.715191841E0
8.171348437E0;1.245942619E-2;-1.626524776E-1;9.813611984E0
8.183259375E0;1.588792168E-2;-1.944857985E-1;9.800071716E0
8.195171875E0;6.157886982E-2;-2.077688277E-1;9.752234459E0
8.207082812E0;4.742434621E-2;-2.132467479E-1;9.769655228E0
8.218993750E0;2.536896057E-2;-2.034592628E-1;9.798912048E0
8.230906250E0;9.519346058E-3;-1.680059135E-1;9.773150444E0
8.242817187E0;6.406883895E-2;-2.112835050E-1;9.747360229E0
8.254728125E0;6.474879384E-2;-2.119634748E-1;9.785762787E0
8.266640625E0;7.491935790E-2;-1.970906854E-1;9.744659424E0
8.278551562E0;6.718129665E-2;-1.707736254E-1;9.784815788E0
8.290464062E0;5.020162091E-2;-1.978855580E-1;9.782392502E0
8.302375000E0;3.262818232E-2;-1.641464680E-1;9.740560532E0
8.314285937E0;2.386540174E-2;-1.866040826E-1;9.751439095E0
8.326203125E0;4.519294947E-2;-1.942176372E-1;9.767959595E0
8.338109375E0;2.879745886E-2;-1.914786696E-1;9.754131317E0
8.350021875E0;3.792415559E-2;-1.893047392E-1;9.753776550E0
8.361932812E0;3.141192719E-3;-1.942655295E-1;9.772585869E0
8.373853125E0;3.786669672E-2;-2.038998008E-1;9.754810333E0
8.385762500E0;4.103661701E-2;-1.955296695E-1;9.797983170E0
8.397667187E0;3.794331104E-2;-2.098469883E-1;9.718111992E0
8.409579687E0;3.325067088E-2;-1.688869894E-1;9.776224136E0
8.421490625E0;1.192312408E-2;-2.592728734E-1;9.794927597E0
8.433403125E0;-1.281376742E-2;-1.608137339E-1;9.728580475E0
8.445314062E0;2.818454243E-2;-1.990060359E-1;9.772576332E0
8.457225000E0;-1.830127649E-2;-1.783392876E-1;9.705921173E0
8.469137500E0;-1.887588762E-2;-1.407503337E-1;9.735714912E0
8.481048437E0;1.625183970E-2;-1.284249723E-1;9.703689575E0
8.492960937E0;-6.627150346E-3;-1.588121802E-1;9.781492233E0
8.504871875E0;5.739380419E-2;-7.876923680E-2;9.652070999E0
8.516792187E0;6.224924698E-3;-1.202846915E-1;9.786414146E0
8.528695312E0;2.571372688E-2;-1.232918054E-1;9.826895714E0
8.540606250E0;5.746084265E-3;-1.120007560E-1;9.724710464E0
8.552518750E0;9.787496179E-3;-4.056735337E-2;9.806764603E0
8.564435937E0;-2.004425600E-2;-3.839341551E-2;9.778206825E0
8.576342187E0;4.729985073E-2;3.628652170E-2;9.839748383E0
8.588253125E0;1.467166841E-2;1.016194969E-1;9.818333626E0
8.600165625E0;-5.928043276E-2;2.068590373E-2;9.828447342E0
8.612084375E0;-5.469314009E-2;5.415683985E-2;9.812291145E0
8.623987500E0;-1.141938493E-1;1.778508723E-1;9.971064568E0
8.635900000E0;-4.819048941E-2;4.380718768E-1;9.966065407E0
8.647810937E0;-3.558358550E-1;7.409575582E-2;9.881856918E0
8.659723437E0;-3.789063692E-1;1.042148098E-1;1.017008972E1
8.671642187E0;-4.782944620E-1;1.113112271E-1;1.004664421E1
8.683545312E0;-5.686133504E-1;-3.441234231E-1;9.621300697E0
8.695457812E0;-2.465836108E-1;-9.968115091E-1;9.538030624E0
8.707368750E0;1.571649760E-1;-1.785499930E0;9.057140350E0
8.719281250E0;9.963135123E-1;-1.404304743E0;9.396533012E0
8.731212500E0;1.952758789E0;-7.315530777E-1;9.528989792E0
8.743112500E0;-3.979737759E-1;-3.290016055E-1;9.836692810E0
8.755015625E0;-2.120688111E-1;-2.238195539E-1;9.703402519E0
8.766929687E0;6.813897938E-2;-2.601730824E-1;9.669720650E0
8.778839062E0;-1.242782176E-1;-2.680165172E-1;9.804275513E0
8.790750000E0;-1.535736620E-1;-2.079220563E-1;9.906794548E0
8.802660937E0;-7.864473760E-2;-1.617522687E-1;9.771723747E0
8.814573437E0;-1.008820832E-1;-1.326100528E-1;9.701152802E0
8.826484375E0;-1.332229674E-1;-1.369770616E-1;9.798577309E0
8.838396875E0;-9.911037236E-2;-1.139256954E-1;9.781147003E0
8.850307812E0;-1.509208977E-1;-1.063408628E-1;9.715938568E0
8.862228125E0;-1.350808591E-1;-8.526231349E-2;9.804323196E0
8.874131250E0;-1.180149913E-1;-1.083615720E-1;9.767786980E0
8.886042187E0;-1.331750751E-1;-1.376570314E-1;9.772777557E0
8.897954687E0;-9.888052940E-2;-1.333857775E-1;9.703641891E0
8.909865625E0;-6.721002609E-2;-1.243548319E-1;9.743662834E0
8.921781250E0;-6.829220802E-2;-1.289516985E-1;9.777623177E0
8.933689062E0;-1.114644557E-1;-1.407982111E-1;9.818142891E0
8.945600000E0;-1.595496014E-2;-1.540046185E-1;9.880506516E0
8.957512500E0;-7.095456123E-2;-2.317778766E-1;9.622966766E0
8.969429687E0;-8.179550618E-2;-2.115037888E-1;9.749073982E0
8.981335937E0;-6.410714984E-2;-1.494460702E-1;9.782267570E0
8.993256250E0;-9.005071223E-2;-1.567052901E-1;9.722451210E0
9.005160937E0;-7.964072376E-2;-1.065324023E-1;9.758613586E0
9.017070312E0;-7.212293148E-2;-5.650315806E-2;9.843454361E0
9.028981250E0;-6.608954817E-2;-1.514955163E-1;9.744650841E0
9.040900000E0;6.837840192E-3;-2.047138214E-1;9.756669044E0
9.052804687E0;-5.021119863E-2;-1.712333113E-1;9.783129692E0
9.064717187E0;-7.357860357E-2;-1.638016999E-1;9.815680504E0
9.076628125E0;-5.910805240E-2;-1.377240568E-1;9.755021095E0
9.088540625E0;-9.019436687E-2;-1.618959159E-1;9.780793190E0
9.100451562E0;-4.588248208E-2;-1.537460685E-1;9.800167084E0
9.112362500E0;-5.787264183E-2;-1.599805653E-1;9.699648857E0
9.124275000E0;-6.193320826E-2;-1.566382498E-1;9.825670242E0
9.136185937E0;-5.827486888E-2;-1.468603313E-1;9.743873596E0
9.148098437E0;-4.373727739E-2;-1.767303944E-1;9.803853989E0
9.160015625E0;-2.450704761E-2;-1.688774079E-1;9.759129524E0
9.171920312E0;-2.716940083E-2;-1.687816530E-1;9.761054993E0
9.183832812E0;-4.939717054E-2;-1.976653039E-1;9.806344032E0
9.195743750E0;-3.895844892E-2;-1.706299633E-1;9.796756744E0
9.207659375E0;-3.696647286E-2;-1.543110758E-1;9.737964630E0
9.219567187E0;-6.422206759E-2;-1.804653406E-1;9.785082817E0
9.231481250E0;-5.078580603E-2;-1.674408913E-1;9.756601334E0
9.243396875E0;-6.804320961E-2;-1.841811538E-1;9.752483368E0
9.255301562E0;-4.265509918E-2;-1.660905629E-1;9.699447632E0
9.267220312E0;-5.831317604E-2;-1.678526849E-1;9.743979454E0
9.279125000E0;-5.797798932E-2;-1.692413390E-1;9.729116440E0
9.291037500E0;-4.071100801E-2;-1.805036664E-1;9.750568390E0
9.302948437E0;-6.037218869E-2;-1.691838652E-1;9.754897118E0
9.314859375E0;-6.177040562E-2;-1.771900803E-1;9.719338417E0
9.326775000E0;-6.221093610E-2;-1.516774595E-1;9.777881622E0
9.338690625E0;-2.764824033E-2;-1.768070012E-1;9.780639648E0
9.350595312E0;-4.850652814E-2;-1.544643044E-1;9.774941444E0
9.362506250E0;-7.736144215E-2;-1.501547545E-1;9.771982193E0
9.374417187E0;-3.840299696E-2;-1.796896160E-1;9.780888557E0
9.386329687E0;-5.529648066E-2;-1.692413390E-1;9.788300514E0
9.398240625E0;-5.775772035E-2;-1.869775653E-1;9.761275291E0
9.410151562E0;-5.001008511E-2;-1.749299467E-1;9.763429642E0
9.422064062E0;-5.033569783E-2;-1.746234894E-1;9.774309158E0
9.433975000E0;-5.885905400E-2;-1.432594657E-1;9.765258789E0
9.445887500E0;-3.970544040E-2;-1.733114719E-1;9.772202492E0
9.457798437E0;-4.901409522E-2;-1.534587592E-1;9.791059494E0
9.469721875E0;-7.422982901E-2;-1.873798072E-1;9.757913589E0
9.481621875E0;-5.962519720E-2;-1.523191035E-1;9.752158165E0
9.493534375E0;-3.686112911E-2;-1.693658233E-1;9.749974251E0
9.505445312E0;-4.614105448E-2;-1.342189461E-1;9.725936890E0
9.517357812E0;-4.596867412E-2;-1.434701383E-1;9.781693459E0
9.529268750E0;-5.002924055E-2;-1.668375582E-1;9.745799065E0
9.541179687E0;-5.934747308E-2;-1.688678265E-1;9.748566628E0
9.553092187E0;-4.068227485E-2;-1.821412742E-1;9.766044617E0
9.565003125E0;-4.524083808E-2;-1.930875927E-1;9.765421867E0
9.576914062E0;-5.459737405E-2;-1.429242641E-1;9.769099236E0
9.588829687E0;-4.204218462E-2;-1.764143556E-1;9.792486191E0
9.600737500E0;-5.732676759E-2;-1.634186208E-1;9.778724670E0
9.612650000E0;-5.403234437E-2;-1.619821191E-1;9.745090485E0
9.624560937E0;-4.974193498E-2;-1.502601057E-1;9.784728050E0
9.636473437E0;-5.714480579E-2;-1.651616096E-1;9.769157410E0
9.648384375E0;-3.258029372E-2;-1.649221927E-1;9.768621445E0
9.660295312E0;-3.055959195E-2;-1.829840541E-1;9.773494720E0
9.672207812E0;-5.826529488E-2;-1.624801010E-1;9.763784409E0
9.684123437E0;-6.229712814E-2;-1.778987646E-1;9.756544113E0
9.696031250E0;-5.455906689E-2;-1.658702940E-1;9.764540672E0
9.707942187E0;-8.948568255E-2;-1.324280798E-1;9.784575462E0
9.719853125E0;-6.622361392E-2;-1.555943787E-1;9.746631622E0
9.731765625E0;-4.649539664E-2;-1.676419973E-1;9.775258064E0
9.743690625E0;-4.516422376E-2;-1.712428927E-1;9.769761086E0
9.755595312E0;-5.566040054E-2;-1.796130091E-1;9.800338745E0
9.767500000E0;-8.847054094E-2;-1.580364704E-1;9.774232864E0
9.779412500E0;-6.415502727E-2;-1.666268557E-1;9.795780182E0
9.791323437E0;-4.867890850E-2;-1.438340545E-1;9.766389847E0
9.803234375E0;-3.106716089E-2;-1.506431699E-1;9.739842415E0
9.815146875E0;-5.147533864E-2;-1.401565671E-1;9.716006279E0
9.827059375E0;-6.951804459E-2;-1.504420638E-1;9.765786171E0
9.838968750E0;-4.607401788E-2;-1.577204317E-1;9.790081978E0
9.850881250E0;-7.354987413E-2;-1.759067774E-1;9.755825996E0
9.862800000E0;-5.348646641E-2;-1.741829664E-1;9.800271988E0
9.874704687E0;-5.305550992E-2;-1.602104008E-1;9.783714294E0
9.886617187E0;-5.436753109E-2;-1.560923755E-1;9.798298836E0
9.898526562E0;-5.801629648E-2;-1.539950520E-1;9.794784546E0
9.910439062E0;-4.100788385E-2;-1.393616945E-1;9.762070656E0
9.922350000E0;-3.104800731E-2;-1.691168398E-1;9.793731689E0
9.934262500E0;-5.055596307E-2;-1.281376779E-1;9.736069679E0
9.946182812E0;-3.767516091E-2;-1.429146826E-1;9.762184143E0
9.958084375E0;-6.245035678E-2;-1.334623843E-1;9.774290085E0
9.969996875E0;-6.520847976E-2;-1.462186873E-1;9.766762733E0
9.981909375E0;-6.599377096E-2;-1.528841406E-1;9.762760162E0
9.993821875E0;-5.694369599E-2;-1.651041508E-1;9.726990700E0
1.000573281E1;-5.165729672E-2;-1.429817230E-1;9.773323059E0
1.001764375E1;-5.231809616E-2;-1.435371786E-1;9.763813019E0
1.002955469E1;-6.421248615E-2;-1.389977783E-1;9.786270142E0
1.004147344E1;-2.249591798E-2;-1.697871983E-1;9.751237869E0
1.005337812E1;-3.690901026E-2;-1.732252836E-1;9.777814865E0
1.006528906E1;-5.377376825E-2;-1.860965192E-1;9.771809578E0
1.007720156E1;-4.983770475E-2;-1.594825536E-1;9.804935455E0
1.008911406E1;-5.100607127E-2;-1.415547729E-1;9.766120911E0
1.010103125E1;-1.538992859E-2;-1.600571722E-1;9.776559830E0
1.011293594E1;-2.648944780E-2;-1.796130091E-1;9.744659424E0
1.012484844E1;-4.180276021E-2;-1.445427388E-1;9.759896278E0
1.013675938E1;-4.145799577E-2;-1.574427038E-1;9.770133972E0
1.014867188E1;-4.576756060E-2;-1.398309618E-1;9.749591827E0
1.016058281E1;-4.578671232E-2;-1.445810497E-1;9.757225037E0
1.017249375E1;-4.195598885E-2;-1.575097293E-1;9.759877205E0
1.018440625E1;-8.611464500E-2;-1.566574126E-1;9.715843201E0
1.019631875E1;-3.630567715E-2;-1.657170653E-1;9.792438507E0
1.020822969E1;-3.730166331E-2;-1.608616114E-1;9.721684456E0
1.022014062E1;-4.481945559E-2;-1.397160292E-1;9.751612663E0
1.023205781E1;-4.527914524E-2;-1.426369697E-1;9.796661377E0
1.024396406E1;-2.889322676E-2;-1.461420804E-1;9.776157379E0
1.025587500E1;-2.669056132E-2;-1.596741080E-1;9.771771431E0
1.026778594E1;-3.592260182E-2;-1.592527181E-1;9.754954338E0
1.027970000E1;-7.262092829E-2;-1.574810147E-1;9.747694969E0
1.029161562E1;-6.806236506E-2;-1.459122300E-1;9.760279655E0
1.030352188E1;-5.389827117E-2;-1.637729853E-1;9.746230125E0
1.031543281E1;-6.700892001E-2;-1.570787877E-1;9.791126251E0
1.032734531E1;-3.446692601E-2;-1.713673919E-1;9.762271881E0
1.033925625E1;-2.949656546E-2;-1.845450699E-1;9.757664680E0
1.035117500E1;-5.516240746E-2;-1.530852467E-1;9.762367249E0
1.036308750E1;-1.861731149E-2;-1.651041508E-1;9.757051468E0
1.037499062E1;-3.989697620E-2;-1.494269073E-1;9.752779961E0
1.038690312E1;-3.480211645E-2;-1.549527347E-1;9.774213791E0
1.039881406E1;-2.330037206E-2;-1.412387490E-1;9.782248497E0
1.041072500E1;-3.236960620E-2;-1.586876810E-1;9.721291542E0
1.042263750E1;-5.343858153E-2;-1.526926160E-1;9.754897118E0
1.043454844E1;-2.106897533E-2;-1.531427205E-1;9.747982025E0
1.044646094E1;-5.471229553E-2;-1.649221927E-1;9.744286537E0
1.045837813E1;-4.585375264E-2;-1.640890092E-1;9.737084389E0
1.047028281E1;-5.097734183E-2;-1.782243848E-1;9.761026382E0
1.048219531E1;-2.387497947E-2;-1.771326214E-1;9.790685654E0
1.049410625E1;-4.114196077E-2;-1.710609347E-1;9.775353432E0
1.050601875E1;-2.805046737E-2;-1.627099514E-1;9.782602310E0
1.051792969E1;-4.095042497E-2;-1.562647521E-1;9.754427910E0
1.052984219E1;-4.724238813E-2;-1.538226753E-1;9.799945831E0
1.054175313E1;-3.099054657E-2;-1.732540131E-1;9.807818413E0
1.055366406E1;-7.615476847E-2;-1.348989010E-1;9.725611687E0
1.056557656E1;-5.521986634E-2;-1.411812901E-1;9.810107231E0
1.057748906E1;-5.492299050E-2;-1.514763534E-1;9.742054939E0
1.058940156E1;-4.526956379E-2;-1.701894403E-1;9.771024704E0
1.060131094E1;-5.778645352E-2;-1.714631468E-1;9.771819115E0
1.061322344E1;-2.687252127E-2;-1.609573960E-1;9.769396782E0
1.062513438E1;-3.083731793E-2;-1.555369198E-1;9.774634361E0
1.063704688E1;-3.752193227E-2;-1.490438432E-1;9.773169518E0
1.064895781E1;-3.195780516E-2;-1.579407007E-1;9.767605782E0
1.066086875E1;-3.482126817E-2;-1.629014909E-1;9.758344650E0
1.067278125E1;-3.955221176E-2;-1.844493002E-1;9.764560699E0
1.068469219E1;-3.938940912E-2;-1.507772505E-1;9.761094093E0
1.069660313E1;-3.904464096E-2;-1.812314838E-1;9.766810417E0
1.070851562E1;-1.800439693E-2;-1.639549285E-1;9.750721931E0
1.072042656E1;-4.013639688E-2;-1.461133361E-1;9.744324684E0
1.073233906E1;-6.202897802E-2;-1.734168231E-1;9.749428749E0
1.074425000E1;-4.377558455E-2;-1.733402163E-1;9.780773163E0
1.075616250E1;-3.116292879E-2;-1.721239537E-1;9.774596214E0
1.076807344E1;-2.804088965E-2;-1.617331058E-1;9.776876450E0
1.077998594E1;-3.322194144E-2;-1.425507665E-1;9.764473915E0
1.079189844E1;-3.298252076E-2;-1.444469690E-1;9.735694885E0
1.080380781E1;-4.632301256E-2;-1.688965559E-1;9.722335815E0
1.081571875E1;-4.628470540E-2;-1.628727615E-1;9.703766823E0
1.082763125E1;-4.484818503E-2;-1.817199141E-1;9.778322220E0
1.083954375E1;-3.704308718E-2;-1.507293582E-1;9.755041122E0
1.085145469E1;-3.229299188E-2;-1.673355401E-1;9.729125977E0
1.086336562E1;-2.178723551E-2;-1.596645266E-1;9.783493042E0
1.087528438E1;-2.798342891E-2;-1.643858999E-1;9.760547638E0
1.088718906E1;-3.735912219E-2;-1.779945344E-1;9.756477356E0
1.089910000E1;-3.692816570E-2;-1.880884916E-1;9.781865120E0
1.091101250E1;-3.221637756E-2;-1.495992988E-1;9.759436607E0
1.092292344E1;-4.358404875E-2;-1.766729206E-1;9.777392387E0
1.093483438E1;-1.846408285E-2;-1.628152877E-1;9.789086342E0
1.094675625E1;-2.126051113E-2;-1.487948447E-1;9.753067970E0
1.095865781E1;-1.584961452E-2;-1.602391303E-1;9.774884224E0
1.097057031E1;-2.004425600E-2;-1.657266319E-1;9.745933533E0
1.098248281E1;-2.228522860E-2;-1.531235725E-1;9.771895409E0
1.099439375E1;-2.300349064E-2;-1.579981595E-1;9.752915382E0
1.100631094E1;-2.909434028E-2;-1.538801342E-1;9.765125275E0
1.101821719E1;-2.453578077E-2;-1.727081239E-1;9.747120857E0
1.103012813E1;-1.028549019E-2;-1.719132513E-1;9.744879723E0
1.104203906E1;-3.625778854E-2;-1.615894586E-1;9.750683784E0
1.105395156E1;-3.100012429E-2;-1.515242308E-1;9.770181656E0
1.106586250E1;-2.268745564E-2;-1.673451215E-1;9.774433136E0
1.107777500E1;-2.134670317E-2;-1.734838635E-1;9.774194717E0
1.108968594E1;-7.862558588E-3;-1.663587093E-1;9.776780128E0
1.110159844E1;-3.207272664E-2;-1.489863843E-1;9.785887718E0
1.111350938E1;-5.622543395E-2;-1.687529087E-1;9.736250877E0
1.112542188E1;-3.047339991E-2;-1.604402512E-1;9.754993439E0
1.113733906E1;-3.623863682E-2;-1.621257663E-1;9.751650810E0
1.114924375E1;-3.394020349E-2;-1.622694135E-1;9.757875443E0
1.116115625E1;-3.994486108E-2;-1.810878515E-1;9.758641243E0
1.117306719E1;-3.206314892E-2;-1.490055323E-1;9.749064445E0
1.118498438E1;-4.405330867E-2;-1.345349848E-1;9.790848732E0
1.119689062E1;-6.736325473E-2;-1.590611935E-1;9.776090622E0
1.120880156E1;-4.620809108E-2;-1.719419807E-1;9.772316933E0
1.122071406E1;-4.736688733E-2;-1.445619017E-1;9.745827675E0
1.123262656E1;-2.965936996E-2;-1.430774927E-1;9.742064476E0
1.124453594E1;-6.581181288E-2;-1.309149414E-1;9.744917870E0
1.125644844E1;-5.551674962E-2;-1.585631818E-1;9.752225876E0
1.126835938E1;-5.918466672E-2;-1.479424983E-1;9.764952660E0
1.128027188E1;-4.734773189E-2;-1.573086232E-1;9.762002945E0
1.129218281E1;-5.578489974E-2;-1.720473319E-1;9.759877205E0
1.130410000E1;-2.788766101E-2;-1.631408930E-1;9.775851250E0
1.131600781E1;-4.592078924E-2;-1.784446388E-1;9.800224304E0
1.132791719E1;-3.286759928E-2;-1.536215544E-1;9.753096581E0
1.133982969E1;-4.251144454E-2;-1.440734863E-1;9.754782677E0
1.135175000E1;-4.485776275E-2;-1.389020085E-1;9.751190186E0
1.136365312E1;-2.164358273E-2;-1.752555668E-1;9.740598679E0
1.137556406E1;-3.032016940E-2;-1.777551174E-1;9.714856148E0
1.138747500E1;-2.703532577E-2;-1.477892697E-1;9.777087212E0
1.139938750E1;-5.867709219E-2;-1.578928083E-1;9.749189377E0
1.141129844E1;-4.554729536E-2;-1.424549967E-1;9.773629189E0
1.142320938E1;-4.367981851E-2;-1.792107821E-1;9.781435013E0
1.143512188E1;-5.127422512E-2;-1.709747314E-1;9.742457390E0
1.144703281E1;-5.054638535E-2;-1.715589166E-1;9.771800041E0
1.145894531E1;-5.131253228E-2;-1.593197584E-1;9.753106117E0
1.147086250E1;-5.805460364E-2;-1.496854872E-1;9.765957832E0
1.148277500E1;-6.495948136E-2;-1.659086049E-1;9.755941391E0
1.149467969E1;-4.480030015E-2;-1.449641287E-1;9.755854607E0
1.150659219E1;-4.799895361E-2;-1.408556700E-1;9.765211105E0
1.151850312E1;-3.169922903E-2;-1.372835189E-1;9.754973412E0
1.153041406E1;-2.194046415E-2;-1.783776134E-1;9.748825073E0
1.154232656E1;-3.688985854E-2;-1.928002834E-1;9.751669884E0
1.155423750E1;-6.155971438E-2;-1.726219505E-1;9.761974335E0
1.156615000E1;-7.146213204E-2;-1.615415812E-1;9.778916359E0
1.157806094E1;-4.771165177E-2;-1.571458280E-1;9.781980515E0
1.158997656E1;-5.476018041E-2;-1.413919777E-1;9.744334221E0
1.160188438E1;-4.331589863E-2;-1.402714849E-1;9.763937950E0
1.161379688E1;-5.531563610E-2;-1.493024081E-1;9.785447121E0
1.162570781E1;-4.462791979E-2;-1.567914784E-1;9.728867531E0
1.163761875E1;-4.916732758E-2;-1.555752307E-1;9.778341293E0
1.164953281E1;-6.677907705E-2;-1.365077943E-1;9.764176369E0
1.166145000E1;-3.950433061E-2;-1.641943455E-1;9.757559776E0
1.167335312E1;-2.353021502E-2;-1.574522853E-1;9.740158081E0
1.168526563E1;-5.671384931E-2;-1.420623511E-1;9.778504372E0
1.169717656E1;-7.441178709E-2;-1.578161865E-1;9.798213005E0
1.170908906E1;-4.996220022E-2;-1.721335351E-1;9.761897087E0
1.172100000E1;-4.965574294E-2;-1.569925994E-1;9.753001213E0
1.173291250E1;-5.556463078E-2;-1.416026652E-1;9.769089699E0
1.174482344E1;-4.134307429E-2;-1.590516120E-1;9.751047134E0
1.175673438E1;-4.422569275E-2;-1.579981595E-1;9.775803566E0
1.176864688E1;-3.603752702E-2;-1.544068605E-1;9.741728783E0
1.178055781E1;-2.114558965E-2;-1.869775653E-1;9.788971901E0
1.179247031E1;-6.042007357E-2;-1.759067774E-1;9.760354996E0
1.180438125E1;-2.738966793E-2;-1.567914784E-1;9.742419243E0
1.181629219E1;-4.895663634E-2;-1.420048922E-1;9.773180008E0
1.182820625E1;-5.918466672E-2;-1.763090044E-1;9.778637886E0
1.184011563E1;-5.611051247E-2;-1.411334127E-1;9.758009911E0
1.185203438E1;-4.216668010E-2;-1.594634056E-1;9.749304771E0
1.186393906E1;-2.449747175E-2;-1.740393043E-1;9.747466087E0
1.187585000E1;-3.503195941E-2;-1.462474167E-1;9.765316010E0
1.188776250E1;-3.855622560E-2;-1.645486951E-1;9.786883354E0
1.189967344E1;-5.433880165E-2;-1.432690322E-1;9.758957863E0
1.191158594E1;-7.535032183E-2;-1.387104690E-1;9.757818222E0
1.192349688E1;-5.085284263E-2;-1.568106413E-1;9.764838219E0
1.193540781E1;-4.559517652E-2;-1.391031146E-1;9.781357765E0
1.194732031E1;-5.105395988E-2;-1.256860197E-1;9.740877151E0
1.195923125E1;-3.719631582E-2;-1.644625068E-1;9.757338524E0
1.197114219E1;-3.511814773E-2;-1.473679096E-1;9.742993355E0
1.198305469E1;-7.280288637E-2;-1.691168398E-1;9.775122643E0
1.199496719E1;-5.274904892E-2;-1.294784248E-1;9.753307343E0
1.200687812E1;-5.121676251E-2;-1.589941382E-1;9.764205933E0
1.201878906E1;-4.802768677E-2;-1.678622812E-1;9.755624771E0
1.203070156E1;-4.707000405E-2;-1.491683573E-1;9.775486946E0
1.204261250E1;-3.072239645E-2;-1.392946690E-1;9.768447876E0
1.205452500E1;-5.873455480E-2;-1.689253002E-1;9.745664597E0
1.206643594E1;-3.153642640E-2;-1.566765606E-1;9.775497437E0
1.207834844E1;-4.027047381E-2;-1.349084824E-1;9.763927460E0
1.209025938E1;-4.628470540E-2;-1.458068788E-1;9.762779236E0
1.210217188E1;-3.115335293E-2;-1.565807909E-1;9.782536507E0
1.211408281E1;-3.686112911E-2;-1.586781144E-1;9.743136406E0
1.212599375E1;-3.597048670E-2;-1.587068439E-1;9.743893623E0
1.213790625E1;-4.975150898E-2;-1.389977783E-1;9.789670944E0
1.214981719E1;-5.363969505E-2;-1.424358487E-1;9.729355812E0
1.216174062E1;-6.645346433E-2;-1.792012006E-1;9.785887718E0
1.217364062E1;-6.661626697E-2;-1.604977101E-1;9.764329910E0
1.218555156E1;-6.344634295E-2;-1.610148400E-1;9.771972656E0
1.219747031E1;-3.306871280E-2;-1.777934134E-1;9.748087883E0
1.220937500E1;-1.606988162E-2;-1.385955513E-1;9.751199722E0
1.222128750E1;-4.610274732E-2;-1.611297727E-1;9.768132210E0
1.223319844E1;-5.538267642E-2;-1.411046684E-1;9.728178024E0
1.224512031E1;-6.244077906E-2;-1.392850727E-1;9.792964935E0
1.225702813E1;-4.656243697E-2;-1.629876643E-1;9.761343002E0
1.226894844E1;-6.097552925E-2;-1.600571722E-1;9.744812965E0
1.228084531E1;-4.280832782E-2;-1.718462259E-1;9.782392502E0
1.229275625E1;-5.666596442E-2;-1.609861255E-1;9.734105110E0
1.230466875E1;-3.264733404E-2;-1.470614523E-1;9.819358826E0
1.231657969E1;-3.988740221E-2;-1.461708099E-1;9.753594398E0
1.232849062E1;-2.109770663E-2;-1.625663042E-1;9.753968239E0
1.234040312E1;-5.491340905E-2;-1.695956737E-1;9.801498413E0
1.235231406E1;-5.322789401E-2;-1.573469341E-1;9.749361038E0
1.236422500E1;-7.165367156E-2;-1.544164270E-1;9.758631706E0
1.237613750E1;-3.532884270E-2;-1.712333113E-1;9.825881004E0
1.238804844E1;-2.967852354E-2;-1.614553779E-1;9.791940689E0
1.239995938E1;-2.518700249E-2;-1.561594158E-1;9.770306587E0
1.241187188E1;-4.620809108E-2;-1.423879713E-1;9.751755714E0
1.242378750E1;-7.475655526E-2;-1.543589830E-1;9.758661270E0
1.243570781E1;-6.679822505E-2;-1.323706210E-1;9.763421059E0
1.244760625E1;-5.242343992E-2;-1.539567411E-1;9.727717400E0
1.245951875E1;-6.060203165E-2;-1.593963802E-1;9.735111237E0
1.247142969E1;-4.537491128E-2;-1.673068106E-1;9.805606842E0
1.248334219E1;-7.163451612E-2;-1.328015774E-1;9.740341187E0
1.249525313E1;-5.431006849E-2;-1.355501264E-1;9.783416748E0
1.250716406E1;-7.739975303E-2;-1.586685330E-1;9.783090591E0
1.251907656E1;-7.095456123E-2;-1.569830179E-1;9.781089783E0
1.253098750E1;-5.070919171E-2;-1.365077943E-1;9.767845154E0
1.254290938E1;-5.474102870E-2;-1.467358470E-1;9.775716782E0
1.255481094E1;-5.678088591E-2;-1.505378336E-1;9.790676117E0
1.256672344E1;-7.329130918E-2;-1.597602814E-1;9.777900696E0
1.257863438E1;-4.985685647E-2;-1.473295838E-1;9.747992516E0
1.259054688E1;-6.624277681E-2;-1.359619349E-1;9.750539780E0
1.260245781E1;-5.824613944E-2;-1.122114509E-1;9.757225037E0
1.261437656E1;-4.989516363E-2;-1.473295838E-1;9.787601471E0
1.262628125E1;-4.422569275E-2;-2.016396672E-1;9.743548393E0
1.263819219E1;-2.823242545E-2;-1.993220896E-1;9.780121803E0
1.265010469E1;-4.421611875E-2;-1.651616096E-1;9.734268188E0
1.266201562E1;-5.880159512E-2;-1.527021825E-1;9.752560616E0
1.267393281E1;-5.255751312E-2;-1.511986256E-1;9.763190269E0
1.268583906E1;-6.442318112E-2;-1.427423060E-1;9.771024704E0
1.269775000E1;-4.453215003E-2;-1.445714682E-1;9.788626671E0
1.270966250E1;-6.404968351E-2;-1.474349350E-1;9.757041931E0
1.272157969E1;-6.469132751E-2;-1.589654237E-1;9.774088860E0
1.273349219E1;-2.323333360E-2;-1.616756618E-1;9.751325607E0
1.274539688E1;-3.412216157E-2;-1.586015075E-1;9.754312515E0
1.275731094E1;-4.782657325E-2;-1.829840541E-1;9.760145187E0
1.276922031E1;-4.237736762E-2;-1.496854872E-1;9.750903130E0
1.278113125E1;-5.239471048E-2;-1.600571722E-1;9.796957970E0
1.279304219E1;-7.992803305E-2;-1.509591937E-1;9.763535500E0
1.280496094E1;-5.743211135E-2;-1.642422378E-1;9.802579880E0
1.281686562E1;-4.667735845E-2;-1.458739191E-1;9.802982330E0
1.282877813E1;-4.888001829E-2;-1.755141467E-1;9.758019447E0
1.284069688E1;-5.350561813E-2;-1.547228843E-1;9.763401031E0
1.285260000E1;-4.831499234E-2;-1.394861937E-1;9.792370796E0
1.286451250E1;-7.196012884E-2;-1.292677373E-1;9.696018219E0
1.287642344E1;-6.585012376E-2;-1.703043580E-1;9.798835754E0
1.288833438E1;-4.668693244E-2;-1.295454651E-1;9.706735611E0
1.290024688E1;-4.580586776E-2;-1.566574126E-1;9.842438698E0
1.291216250E1;-4.261679202E-2;-1.429051012E-1;9.714041710E0
1.292407813E1;-3.644932434E-2;-1.733018905E-1;9.760422707E0
1.293598125E1;-7.633672655E-2;-1.459601074E-1;9.782373428E0
1.294789375E1;-4.952166602E-2;-1.511698961E-1;9.760834694E0
1.295980469E1;-6.776548922E-2;-1.561211050E-1;9.767212868E0
1.297171563E1;-4.116111249E-2;-1.382124722E-1;9.780755043E0
1.298362813E1;-8.831731230E-2;-1.246325597E-1;9.714866638E0
1.299553906E1;-4.951209202E-2;-1.296412349E-1;9.762558937E0
1.300745156E1;-6.239289418E-2;-1.376953274E-1;9.775343895E0
1.301936250E1;-3.213018924E-2;-1.045404226E-1;9.760145187E0
1.303127500E1;-5.182010308E-2;-1.014375389E-1;9.741067886E0
1.304318594E1;-2.409524471E-2;-1.457685679E-1;9.777718544E0
1.305509688E1;-5.135083944E-2;-1.610531658E-1;9.730265617E0
1.306700938E1;-3.844130412E-2;-1.576150805E-1;9.762711525E0
1.307892031E1;-4.574840516E-2;-1.371590197E-1;9.777230263E0
1.309083281E1;-4.134307429E-2;-1.468124539E-1;9.809073448E0
1.310274375E1;-5.272989720E-2;-1.326770782E-1;9.763228416E0
1.311465625E1;-5.283524469E-2;-1.549431682E-1;9.750281334E0
1.312656719E1;-4.279874638E-2;-1.556614190E-1;9.778379440E0
1.313848594E1;-4.018428177E-2;-1.597985923E-1;9.777575493E0
1.315039688E1;-4.709873721E-2;-1.631792188E-1;9.788856506E0
1.316230156E1;-4.615063220E-2;-1.771804988E-1;9.760538101E0
1.317421406E1;-2.988921292E-2;-1.648360044E-1;9.749725342E0
1.318612500E1;-8.488881588E-2;-1.165401638E-1;9.748049736E0
1.319803594E1;-3.163219243E-2;-1.535449326E-1;9.747025490E0
1.320995469E1;-6.989153475E-2;-1.418803930E-1;9.734345436E0
1.322186719E1;-4.699338973E-2;-1.510166675E-1;9.793731689E0
1.323377188E1;-7.318595797E-2;-1.491013020E-1;9.735532761E0
1.324568281E1;-2.135627903E-2;-1.716929972E-1;9.789374352E0
1.325759375E1;-4.664862528E-2;-1.355788559E-1;9.757655144E0
1.326950938E1;-4.678269848E-2;-1.545696557E-1;9.734527588E0
1.328142344E1;-5.974970013E-2;-1.579215378E-1;9.782028198E0
1.329332969E1;-4.395754263E-2;-1.581226438E-1;9.738434792E0
1.330524063E1;-4.286578670E-2;-1.366801858E-1;9.739707947E0
1.331715312E1;-6.127241254E-2;-1.445810497E-1;9.759178162E0
1.332906406E1;-4.553771764E-2;-1.482776999E-1;9.809715271E0
1.334097500E1;-5.555505678E-2;-1.475211382E-1;9.756209373E0
1.335288750E1;-5.720226839E-2;-1.525681168E-1;9.781175613E0
1.336479844E1;-8.349060267E-2;-1.532959491E-1;9.739880562E0
1.337671406E1;-3.910209984E-2;-1.666460186E-1;9.785055161E0
1.338862812E1;-5.885905400E-2;-1.646827757E-1;9.725228310E0
1.340053594E1;-3.328897804E-2;-1.549623162E-1;9.747954369E0
1.341244531E1;-4.050031677E-2;-1.412483156E-1;9.737687111E0
1.342436250E1;-3.907337040E-2;-1.534300297E-1;9.775621414E0
1.343626875E1;-4.978981614E-2;-1.503079832E-1;9.725955963E0
1.344817969E1;-5.523902178E-2;-1.649221927E-1;9.744228363E0
1.346009063E1;-4.028004780E-2;-1.738669276E-1;9.780179977E0
1.347200312E1;-3.341347724E-2;-1.398213804E-1;9.765786171E0
1.348391563E1;-3.254198655E-2;-1.886439323E-1;9.775305748E0
1.349582656E1;-3.099054657E-2;-1.595208794E-1;9.748289108E0
1.350773750E1;-6.058287993E-2;-1.396777332E-1;9.751190186E0
1.351965000E1;-3.709097207E-2;-1.433360726E-1;9.769923210E0
1.353156094E1;-4.960786179E-2;-1.302637309E-1;9.745933533E0
1.354347344E1;-5.956773832E-2;-1.201314628E-1;9.739803314E0
1.355538438E1;-4.414907843E-2;-1.761557758E-1;9.786846161E0
1.356729688E1;-4.083550349E-2;-1.571362466E-1;9.753172874E0
1.357920781E1;-3.059789911E-2;-1.569638699E-1;9.733358383E0
1.359111875E1;-3.413173929E-2;-1.533821374E-1;9.773476601E0
1.360303125E1;-4.442680627E-2;-1.447534263E-1;9.725228310E0
1.361494219E1;-4.747223109E-2;-1.462665647E-1;9.780160904E0
1.362685625E1;-2.946783416E-2;-1.567627490E-1;9.744553566E0
1.363876563E1;-5.560293794E-2;-1.492736787E-1;9.726061821E0
1.365067656E1;-3.187161312E-2;-1.577491611E-1;9.707653999E0
1.366258906E1;-5.672342703E-2;-1.606317759E-1;9.799170494E0
1.367450000E1;-8.247546107E-2;-1.657649577E-1;9.766896248E0
1.368641094E1;-7.124187052E-2;-1.596262157E-1;9.753250122E0
1.369832344E1;-6.796659529E-2;-1.335102618E-1;9.758938789E0
1.371023438E1;-3.925533220E-2;-1.577778906E-1;9.759407997E0
1.372214688E1;-4.161122441E-2;-1.637634039E-1;9.777661324E0
1.373406719E1;-5.562209338E-2;-1.410088986E-1;9.773600578E0
1.374597031E1;-4.330632091E-2;-1.532001793E-1;9.765039444E0
1.375789219E1;-1.870350540E-2;-1.383848637E-1;9.759416580E0
1.376979219E1;-5.131253228E-2;-1.462953091E-1;9.779480934E0
1.378170469E1;-5.436753109E-2;-1.418133527E-1;9.773744583E0
1.379363438E1;-2.252464928E-2;-1.491683573E-1;9.757157326E0
1.380552656E1;-8.877700195E-3;-1.319588125E-1;9.794765472E0
1.381743906E1;-3.817315400E-2;-1.387870759E-1;9.755499840E0
1.382935000E1;-4.387135431E-2;-1.968225390E-1;9.737160683E0
1.384126250E1;-5.862921104E-2;-1.506240219E-1;9.672527313E0
1.385318125E1;-3.063620627E-2;-1.547803432E-1;9.767328262E0
1.386508594E1;-7.157705724E-2;-1.654393375E-1;9.716954231E0
1.387700000E1;-5.679046363E-2;-1.369770616E-1;9.736902237E0
1.388890781E1;-4.177403077E-2;-1.666843295E-1;9.728197098E0
1.390082031E1;-2.921883762E-2;-1.640506983E-1;9.763649940E0
1.391273125E1;-2.144247107E-2;-1.819401681E-1;9.728953362E0
1.392464375E1;-4.837245122E-2;-1.748246104E-1;9.773849487E0
1.393655469E1;-3.687070310E-2;-1.612542719E-1;9.755031586E0
1.394846562E1;-2.370259725E-2;-1.751693785E-1;9.707452774E0
1.396037812E1;-3.172796220E-2;-1.519264728E-1;9.769788742E0
1.397228906E1;-6.159802154E-2;-1.256860197E-1;9.771062851E0
1.398420156E1;-6.769844890E-2;-1.163007468E-1;9.752943039E0
1.399611250E1;-5.073792115E-2;-1.185512915E-1;9.796565056E0
1.400802500E1;-7.883626968E-2;-1.489863843E-1;9.709235191E0
1.401993594E1;-1.690306515E-2;-1.314321011E-1;9.745589256E0
1.403184844E1;-3.581725806E-2;-1.722867638E-1;9.782545090E0
1.404375938E1;-5.340985209E-2;-1.620491445E-1;9.790053368E0
1.405567031E1;-1.632845588E-2;-1.837214679E-1;9.757272720E0
1.406758281E1;-4.675397277E-2;-1.639166325E-1;9.780783653E0
1.407949375E1;-2.919010818E-2;-1.419474334E-1;9.804102898E0
1.409140625E1;-5.070919171E-2;-1.531905979E-1;9.745865822E0
1.410331719E1;-4.751053825E-2;-1.504516304E-1;9.785120964E0
1.411522969E1;-5.493256450E-2;-1.254178584E-1;9.670248032E0
1.412714063E1;-3.281971812E-2;-1.323514730E-1;9.770833015E0
1.413905156E1;-5.400361121E-2;-1.242590696E-1;9.725046158E0
1.415096406E1;-2.527319267E-2;-1.589558423E-1;9.771197319E0
1.416288125E1;-2.377921157E-2;-1.978089511E-1;9.739124298E0
1.417478750E1;-2.383667231E-2;-1.673068106E-1;9.810595512E0
1.418669844E1;-1.089840569E-2;-1.701798588E-1;9.766523361E0
1.419860938E1;-7.920019329E-3;-1.317577064E-1;9.758996010E0
1.421052188E1;-8.096232265E-2;-1.638783067E-1;9.736969948E0
1.422244219E1;-9.465716034E-2;-1.443895102E-1;9.818898201E0
1.423434531E1;-7.798393816E-2;-1.405492127E-1;9.727832794E0
1.424625938E1;-4.807556793E-2;-1.110239178E-1;9.742983818E0
1.425816719E1;-9.701305628E-2;-1.268926859E-1;9.743117332E0
1.427007969E1;-8.636365086E-2;-1.154771373E-1;9.743778229E0
1.428199062E1;-4.323928431E-2;-1.500206739E-1;9.805472374E0
1.429390313E1;-2.502419613E-2;-1.470806003E-1;9.756198883E0
1.430581406E1;-2.492842823E-2;-1.294592768E-1;9.781147003E0
1.431772500E1;-5.032612011E-2;-1.592814475E-1;9.762654305E0
1.432963750E1;-8.772354573E-2;-1.391126961E-1;9.750721931E0
1.434155469E1;-7.682514191E-2;-1.516487449E-1;9.770593643E0
1.435346094E1;-9.956048429E-2;-1.519934982E-1;9.781367302E0
1.436537344E1;-6.603208184E-2;-1.566765606E-1;9.768918037E0
1.437728281E1;-3.868072107E-2;-1.636005789E-1;9.762548447E0
1.438919531E1;-1.847365871E-2;-1.295742095E-1;9.803901672E0
1.440110938E1;-1.628057100E-3;-1.299572736E-1;9.791460991E0
1.441301719E1;-5.573701486E-2;-1.260595024E-1;9.769808769E0
1.442492969E1;-5.036442727E-2;-1.200452745E-1;9.770229340E0
1.443684062E1;-8.528146148E-2;-1.328781843E-1;9.726157188E0
1.444875313E1;-6.065949425E-2;-1.146535352E-1;9.769233704E0
1.446066406E1;-5.232767016E-2;-1.607658565E-1;9.767068863E0
1.447257656E1;-6.831136346E-2;-1.415835172E-1;9.758364677E0
1.448448750E1;-7.814674079E-2;-1.401852965E-1;9.752627373E0
1.449640000E1;-5.027823523E-2;-1.314321011E-1;9.773380280E0
1.450831094E1;-3.701435775E-2;-1.385572404E-1;9.774375916E0
1.452022813E1;-5.249048024E-2;-1.877054125E-1;9.767845154E0
1.453213438E1;-5.202121288E-2;-1.486894935E-1;9.748671532E0
1.454404531E1;-5.363969505E-2;-1.528649926E-1;9.740225792E0
1.455595781E1;-6.261315942E-2;-1.169519648E-1;9.802502632E0
1.456786875E1;-6.580223888E-2;-1.302828789E-1;9.732171059E0
1.457978125E1;-5.821740627E-2;-1.425124705E-1;9.726204872E0
1.459169219E1;-4.114196077E-2;-1.211083010E-1;9.785055161E0
1.460360313E1;-3.363374621E-2;-1.636293232E-1;9.779557228E0
1.461551562E1;-5.185841024E-2;-1.348797381E-1;9.763813019E0
1.462742656E1;-7.570465654E-2;-1.017056853E-1;9.749151230E0
1.463934531E1;-6.947015226E-2;-1.174212247E-1;9.777929306E0
1.465125000E1;-7.624095678E-2;-1.054214835E-1;9.775659561E0
1.466316250E1;-8.679459989E-2;-1.067813933E-1;9.756122589E0
1.467507344E1;-6.022853777E-2;-1.601529419E-1;9.786433220E0
1.468698438E1;-8.654560149E-2;-1.132457405E-1;9.780428886E0
1.469889844E1;-9.092220664E-2;-1.098459810E-1;9.722719193E0
1.471081719E1;-7.982268184E-2;-1.309053600E-1;9.716666222E0
1.472272188E1;-6.604165584E-2;-1.414207071E-1;9.755979538E0
1.473463125E1;-4.330632091E-2;-1.011789590E-1;9.782497406E0
1.474654219E1;-4.075888917E-2;-1.260020435E-1;9.767538071E0
1.475845469E1;-8.697656542E-2;-1.483926177E-1;9.765872002E0
1.477036562E1;-7.905653864E-2;-1.263276637E-1;9.791135788E0
1.478227813E1;-3.593217954E-2;-1.578257680E-1;9.763401031E0
1.479418906E1;-6.602250785E-2;-1.231577396E-1;9.762462616E0
1.480610938E1;-6.842628121E-2;-9.856449813E-2;9.760413170E0
1.481801250E1;-4.331589863E-2;-1.186183318E-1;9.742733955E0
1.482992344E1;-8.133582026E-2;-1.238855720E-1;9.770689011E0
1.484183594E1;-7.242938876E-2;-1.137150005E-1;9.795215607E0
1.485374688E1;-3.048297763E-2;-1.413919777E-1;9.771062851E0
1.486565781E1;-6.405925751E-2;-1.533342600E-1;9.800157547E0
1.487757031E1;-3.810611367E-2;-1.436616778E-1;9.789785385E0
1.488948125E1;-3.864241391E-2;-1.355980039E-1;9.785304070E0
1.490139219E1;-4.449384287E-2;-1.317577064E-1;9.757530212E0
1.491330469E1;-5.269159004E-2;-1.298998147E-1;9.769874573E0
1.492521875E1;-6.480625272E-2;-9.473377466E-2;9.754973412E0
1.493712813E1;-5.331408232E-2;-1.347361058E-1;9.748585701E0
1.494906250E1;-6.525636464E-2;-1.269309968E-1;9.765814781E0
1.496095156E1;-5.853344500E-2;-1.304361075E-1;9.735838890E0
1.497286250E1;-4.306689650E-2;-1.241728738E-1;9.805309296E0
1.498477500E1;-4.767334461E-2;-1.465251446E-1;9.767165184E0
1.499668594E1;-1.846408285E-2;-1.544260085E-1;9.814828873E0
1.500859688E1;-6.402094662E-2;-1.348222792E-1;9.778618813E0
1.502050938E1;-6.995857507E-2;-1.312118173E-1;9.780582428E0
1.503242031E1;-6.728664041E-2;-9.953175485E-2;9.737361908E0
1.504433281E1;-4.534617811E-2;-1.239813417E-1;9.783570290E0
1.505624531E1;-5.019204319E-2;-1.387487799E-1;9.787534714E0
1.506815625E1;-6.060203165E-2;-1.219223216E-1;9.752243996E0
1.508006719E1;-6.052541733E-2;-1.494269073E-1;9.777948380E0
1.509197969E1;-5.689580739E-2;-1.336635053E-1;9.773773193E0
1.510389063E1;-5.738422647E-2;-1.508346945E-1;9.752857208E0
1.511580938E1;-6.445191056E-2;-1.311831027E-1;9.786088943E0
1.512771406E1;-6.803363562E-2;-9.733866155E-2;9.736729622E0
1.513962500E1;-4.967489466E-2;-1.359715015E-1;9.753843307E0
1.515153750E1;-5.725972727E-2;-1.427327245E-1;9.768065453E0
1.516345000E1;-7.218997180E-2;-1.427614540E-1;9.779653549E0
1.517535938E1;-4.789361358E-2;-1.453855038E-1;9.791902542E0
1.518728125E1;-8.789593726E-2;-1.394383013E-1;9.758880615E0
1.519918281E1;-6.014234573E-2;-1.297848821E-1;9.773887634E0
1.521109531E1;-5.890693888E-2;-8.503247052E-2;9.770257950E0
1.522300625E1;-5.996038765E-2;-1.375708282E-1;9.770037651E0
1.523493125E1;-6.076483801E-2;-1.420048922E-1;9.743165016E0
1.524684844E1;-5.155195296E-2;-1.392563432E-1;9.759350777E0
1.525874063E1;-3.769431263E-2;-1.687912196E-1;9.808852196E0
1.527065312E1;-1.480574347E-2;-1.539184451E-1;9.757387161E0
1.528256875E1;-5.585193634E-2;-1.557188779E-1;9.785830498E0
1.529447656E1;-4.480030015E-2;-1.315853298E-1;9.761016846E0
1.530638750E1;-5.688623339E-2;-1.420623511E-1;9.779816628E0
1.531829844E1;-4.949294031E-2;-1.126328260E-1;9.771158218E0
1.533021094E1;-3.320278972E-2;-1.415739357E-1;9.792064667E0
1.534212188E1;-3.574064374E-2;-1.476647854E-1;9.736528397E0
1.535403906E1;-5.437710881E-2;-1.154771373E-1;9.767433167E0
1.536594531E1;-4.979939759E-2;-1.347839832E-1;9.780199051E0
1.537785625E1;-3.859453276E-2;-1.449353993E-1;9.766197205E0
1.538976875E1;-5.223190412E-2;-1.500494033E-1;9.761543274E0
1.540167969E1;-4.934928566E-2;-1.454908401E-1;9.759167671E0
1.541359063E1;-3.428496793E-2;-1.568489373E-1;9.793405533E0
1.542550312E1;-6.992983818E-2;-1.833479553E-1;9.807206154E0
1.543741406E1;-5.760449171E-2;-1.663299799E-1;9.763180733E0
1.544932656E1;-4.865975678E-2;-1.550389230E-1;9.756085396E0
1.546123750E1;-6.411672384E-2;-1.140310392E-1;9.697781563E0
1.547315625E1;-3.617160022E-2;-1.313554794E-1;9.740550995E0
1.548506094E1;-5.766195431E-2;-1.524340361E-1;9.772518158E0
1.549697344E1;-3.673662990E-2;-1.423879713E-1;9.791566849E0
1.550888438E1;-7.163451612E-2;-1.388732791E-1;9.754457474E0
1.552079531E1;-4.628470540E-2;-1.588409096E-1;9.777230263E0
1.553270625E1;-3.752193227E-2;-1.370345354E-1;9.782536507E0
1.554461875E1;-5.048892647E-2;-1.415356249E-1;9.757913589E0
1.555653125E1;-4.420653731E-2;-1.782914102E-1;9.780858994E0
1.556844219E1;-5.438668281E-2;-1.447917521E-1;9.784891129E0
1.558035469E1;-3.977248073E-2;-1.646827757E-1;9.754570961E0
1.559226563E1;-6.225882098E-2;-1.242303401E-1;9.750654221E0
1.560419531E1;-6.599377096E-2;-1.526064128E-1;9.762807846E0
1.561608906E1;-3.349967301E-2;-1.532576382E-1;9.777249336E0
1.562800000E1;-4.766377062E-2;-1.479808241E-1;9.776138306E0
1.563991250E1;-4.010766745E-2;-1.351670474E-1;9.786395073E0
1.565182344E1;-5.380250141E-2;-1.429817230E-1;9.771608353E0
1.566375625E1;-5.271074176E-2;-1.496854872E-1;9.704169273E0
1.567564688E1;-4.289451614E-2;-1.473679096E-1;9.779681206E0
1.568755781E1;-4.685931280E-2;-1.674792022E-1;9.773907661E0
1.569947656E1;-3.779965639E-2;-1.534300297E-1;9.770755768E0
1.571138125E1;-2.968810126E-2;-1.621736437E-1;9.802426338E0
1.572329219E1;-6.260358542E-2;-1.483638883E-1;9.813670158E0
1.573520469E1;-5.434837565E-2;-1.439489871E-1;9.768840790E0
1.574711563E1;-4.010766745E-2;-1.529990733E-1;9.771436691E0
1.575903594E1;-2.591483854E-2;-1.709747314E-1;9.736174583E0
1.577094531E1;-5.963477865E-2;-1.404151469E-1;9.771215439E0
1.578285000E1;-3.281971812E-2;-1.578832418E-1;9.798089027E0
1.579476250E1;-3.576937318E-2;-1.438053250E-1;9.778398514E0
1.580667344E1;-1.474828273E-2;-1.247283295E-1;9.789623260E0
1.581859219E1;-8.410351723E-2;-1.498004198E-1;9.753317833E0
1.583049844E1;-5.859090388E-2;-1.544164270E-1;9.773763657E0
1.584240781E1;-4.751053825E-2;-1.193174347E-1;9.758737564E0
1.585432031E1;-3.897760436E-2;-1.368334144E-1;9.786730766E0
1.586623125E1;-2.448789403E-2;-1.561689973E-1;9.782841682E0
1.587814375E1;-5.293101072E-2;-1.340274066E-1;9.796700478E0
1.589005469E1;-4.565263912E-2;-1.481915116E-1;9.764847755E0
1.590196562E1;-1.114740316E-2;-1.539759040E-1;9.730543137E0
1.591387813E1;-5.603389814E-2;-1.528266817E-1;9.734057426E0
1.592578906E1;-7.799351215E-2;-1.415356249E-1;9.743012428E0
1.593770156E1;-5.498044938E-2;-1.487469673E-1;9.788089752E0
1.594961250E1;-5.956773832E-2;-1.066664755E-1;9.763746262E0
1.596152344E1;-6.422206759E-2;-1.180437207E-1;9.747111320E0
1.597343594E1;-6.493074447E-2;-1.188290194E-1;9.766149521E0
1.598534844E1;-8.197746426E-2;-1.187619790E-1;9.753891945E0
1.599727969E1;-8.364383131E-2;-1.328303069E-1;9.781185150E0
1.600917031E1;-7.513005286E-2;-1.208688840E-1;9.756630898E0
1.602108281E1;-9.262687713E-2;-1.353202760E-1;9.747398376E0
1.603299375E1;-8.855672926E-2;-1.347361058E-1;9.762730598E0
1.604490625E1;-8.455362916E-2;-1.285590529E-1;9.783138275E0
1.605681719E1;-5.001008511E-2;-1.425411999E-1;9.779192924E0
1.606872812E1;-7.403828949E-2;-1.178617626E-1;9.768209457E0
1.608064062E1;-7.768705487E-2;-1.088978723E-1;9.775812149E0
1.609255469E1;-8.019617945E-2;-1.126232445E-1;9.763152122E0
1.610446406E1;-6.120537221E-2;-1.137341559E-1;9.746948242E0
1.611637500E1;-6.920200586E-2;-1.305127293E-1;9.780735016E0
1.612828750E1;-6.904877722E-2;-1.273619533E-1;9.760269165E0
1.614020469E1;-7.355945557E-2;-1.409993321E-1;9.781539917E0
1.615211094E1;-8.043560386E-2;-1.248911396E-1;9.786423683E0
1.616402188E1;-7.815632224E-2;-1.382507831E-1;9.761399269E0
1.617593281E1;-8.882488310E-2;-1.212136447E-1;9.746191025E0
1.618784688E1;-1.018206105E-1;-1.330793053E-1;9.752445221E0
1.619975625E1;-6.692273170E-2;-1.075188071E-1;9.782889366E0
1.621166719E1;-5.373546109E-2;-1.099321693E-1;9.762874603E0
1.622357969E1;-4.384262115E-2;-1.286165118E-1;9.757338524E0
1.623549688E1;-1.041190401E-1;-1.111675724E-1;9.775678635E0
1.624740469E1;-9.432196617E-2;-1.317194104E-1;9.769262314E0
1.625931406E1;-8.398859203E-2;-1.286452413E-1;9.764943123E0
1.627122500E1;-7.783070952E-2;-1.174691096E-1;9.776205063E0
1.628313750E1;-8.947610110E-2;-7.105990499E-2;9.763228416E0
1.629504844E1;-6.828263402E-2;-1.277833283E-1;9.775459290E0
1.630695938E1;-7.346368581E-2;-1.346977800E-1;9.774127007E0
1.631887188E1;-8.448658884E-2;-1.236748844E-1;9.802513123E0
1.633078438E1;-8.705317974E-2;-1.325525790E-1;9.758641243E0
1.634269531E1;-4.652412981E-2;-1.207156554E-1;9.772010803E0
1.635460781E1;-9.472420067E-2;-9.384313226E-2;9.770641327E0
1.636651875E1;-9.539456666E-2;-1.208018437E-1;9.764445305E0
1.637842969E1;-7.638461143E-2;-1.082274914E-1;9.758344650E0
1.639034062E1;-8.810661733E-2;-1.196813583E-1;9.732927322E0
1.640225938E1;-8.290641755E-2;-1.053640321E-1;9.776512146E0
1.641416719E1;-6.253654510E-2;-1.327249557E-1;9.785820007E0
1.642607969E1;-8.412267268E-2;-1.137628853E-1;9.783167839E0
1.643798750E1;-9.700348228E-2;-1.294209659E-1;9.784182549E0
1.644989844E1;-9.451350570E-2;-1.130063161E-1;9.748509407E0
1.646181094E1;-7.025545835E-2;-1.267011613E-1;9.753240585E0
1.647372344E1;-8.274361491E-2;-9.436027706E-2;9.751650810E0
1.648564219E1;-8.153693378E-2;-1.121539846E-1;9.746623039E0
1.649754531E1;-7.596323639E-2;-1.193940490E-1;9.734393120E0
1.650945781E1;-7.911399752E-2;-1.145003065E-1;9.779844284E0
1.652136875E1;-9.174580872E-2;-1.027878672E-1;9.791796684E0
1.653328125E1;-5.401319265E-2;-1.237227693E-1;9.780783653E0
1.654519219E1;-7.016926259E-2;-1.163581982E-1;9.774031639E0
1.655710625E1;-8.405563235E-2;-1.178904921E-1;9.779519081E0
1.656901563E1;-6.622361392E-2;-1.331367642E-1;9.779470444E0
1.658092812E1;-7.177817076E-2;-1.281376779E-1;9.745903969E0
1.659284062E1;-7.125144452E-2;-1.262989342E-1;9.775323868E0
1.660475000E1;-6.191405654E-2;-1.113974154E-1;9.760432243E0
1.661666875E1;-9.728120267E-2;-1.123646796E-1;9.795464516E0
1.662857344E1;-5.546886474E-2;-1.025484502E-1;9.762826920E0
1.664048438E1;-7.426813245E-2;-1.178138778E-1;9.732583046E0
1.665239688E1;-9.471461922E-2;-1.104588956E-1;9.766629219E0
1.666431406E1;-6.268977374E-2;-1.050192639E-1;9.768716812E0
1.667622031E1;-9.523176402E-2;-1.301487982E-1;9.788320541E0
1.668813125E1;-7.791689783E-2;-1.131403968E-1;9.725180626E0
1.670004219E1;-8.314583451E-2;-1.216254532E-1;9.755835533E0
1.671195469E1;-6.811024994E-2;-1.093192548E-1;9.755098343E0
1.672386563E1;-9.143935144E-2;-9.775046259E-2;9.780016899E0
1.673577656E1;-7.119398564E-2;-1.130350530E-1;9.766312599E0
1.674768906E1;-9.976159781E-2;-1.103726923E-1;9.740167618E0
1.675960000E1;-1.004990116E-1;-9.301952273E-2;9.769530296E0
1.677151250E1;-1.011023447E-1;-1.164922789E-1;9.753479958E0
1.678342344E1;-9.002198279E-2;-9.337386489E-2;9.763535500E0
1.679533594E1;-9.143935144E-2;-9.303867817E-2;9.766005516E0
1.680724688E1;-9.621817619E-2;-1.179958358E-1;9.760460854E0
1.681915938E1;-5.872498080E-2;-1.200548485E-1;9.752291679E0
1.683107031E1;-8.153693378E-2;-1.105929613E-1;9.785064697E0
1.684298125E1;-1.025484502E-1;-8.724471182E-2;9.737629890E0
1.685489375E1;-9.177453816E-2;-1.065324023E-1;9.774654388E0
1.686680469E1;-6.683653593E-2;-1.156016290E-1;9.781520844E0
1.687871719E1;-9.484869242E-2;-1.318055838E-1;9.791375160E0
1.689062813E1;-7.890331000E-2;-1.246421412E-1;9.746804237E0
1.690254688E1;-1.040041223E-1;-1.437191516E-1;9.788904190E0
1.691445156E1;-8.436208963E-2;-9.121908247E-2;9.762136459E0
1.692636250E1;-9.828676283E-2;-1.051437631E-1;9.751056671E0
1.693827500E1;-9.651505947E-2;-1.015716121E-1;9.783311844E0
1.695018594E1;-9.326852113E-2;-9.002198279E-2;9.762098312E0
1.696209688E1;-8.094316721E-2;-1.035252810E-1;9.797896385E0
1.697402812E1;-9.258856624E-2;-9.572976083E-2;9.775238037E0
1.698592031E1;-7.982268184E-2;-1.124987453E-1;9.783291817E0
1.699783281E1;-9.479123354E-2;-1.153909490E-1;9.754466057E0
1.700975000E1;-9.199480712E-2;-1.106791571E-1;9.789958000E0
1.702165625E1;-7.985141873E-2;-9.951259941E-2;9.770468712E0
1.703356719E1;-8.558791876E-2;-1.047415361E-1;9.787458420E0
1.704547813E1;-9.029013664E-2;-9.190861881E-2;9.726970673E0
1.705739062E1;-1.054502204E-1;-1.225160882E-1;9.785351753E0
1.706930469E1;-6.045838073E-2;-1.060344055E-1;9.742332458E0
1.708121406E1;-8.108682185E-2;-1.085435227E-1;9.750444412E0
1.709313281E1;-9.044336528E-2;-1.151036397E-1;9.767079353E0
1.710504375E1;-9.421662986E-2;-1.285686344E-1;9.778168678E0
1.711694844E1;-7.879796624E-2;-1.210125238E-1;9.756793022E0
1.712885938E1;-8.054094762E-2;-1.109760329E-1;9.780419350E0
1.714078125E1;-8.900684118E-2;-9.363243729E-2;9.760614395E0
1.715269375E1;-1.004223973E-1;-1.245751008E-1;9.741030693E0
1.716459531E1;-9.623733163E-2;-1.212998331E-1;9.773112297E0
1.717650625E1;-8.268614858E-2;-1.197292432E-1;9.801468849E0
1.718842500E1;-1.022994518E-1;-1.098842844E-1;9.772518158E0
1.720032969E1;-9.613198787E-2;-9.506896138E-2;9.725716591E0
1.721224062E1;-8.395028859E-2;-9.492530674E-2;9.773964882E0
1.722415312E1;-9.389101714E-2;-1.084764972E-1;9.787688255E0
1.723606406E1;-9.256941080E-2;-9.433154762E-2;9.772738457E0
1.724797656E1;-1.126519740E-1;-1.010736153E-1;9.767165184E0
1.725990781E1;-1.004511267E-1;-1.094820574E-1;9.735570908E0
1.727179844E1;-7.609730214E-2;-9.840168804E-2;9.797542572E0
1.728371094E1;-1.013513505E-1;-1.018876508E-1;9.771560669E0
1.729562188E1;-9.410169721E-2;-1.227555051E-1;9.745933533E0
1.730753594E1;-1.061493307E-1;-1.003745124E-1;9.782871246E0
1.731944531E1;-9.094136208E-2;-1.020408794E-1;9.774616241E0
1.733135625E1;-9.034759551E-2;-1.264425814E-1;9.796805382E0
1.734326875E1;-1.126615554E-1;-1.141938493E-1;9.808910370E0
1.735517969E1;-7.257304341E-2;-1.340369880E-1;9.744947433E0
1.736709062E1;-8.991663903E-2;-1.138299257E-1;9.773044586E0
1.737901094E1;-1.062355191E-1;-1.107845008E-1;9.770086288E0
1.739091406E1;-9.778877348E-2;-1.195664257E-1;9.750299454E0
1.740282656E1;-1.063312814E-1;-1.065228209E-1;9.765680313E0
1.741473750E1;-1.095395163E-1;-1.149504110E-1;9.766206741E0
1.742664844E1;-9.232999384E-2;-9.997228533E-2;9.783014297E0
1.743856094E1;-7.825209200E-2;-1.144619957E-1;9.778398514E0
1.745047188E1;-9.838254005E-2;-9.035716951E-2;9.784919739E0
1.746238438E1;-9.266518056E-2;-9.062532336E-2;9.772700310E0
1.747429688E1;-9.778877348E-2;-1.078444198E-1;9.759225845E0
1.748620781E1;-9.405381978E-2;-1.221330166E-1;9.784212112E0
1.749811875E1;-9.415916353E-2;-1.214051843E-1;9.748165131E0
1.751003750E1;-9.170750529E-2;-9.685982764E-2;9.763391495E0
1.752194219E1;-1.081604511E-1;-9.992440045E-2;9.757205009E0
1.753385469E1;-7.731355727E-2;-6.540001929E-2;9.758220673E0
1.754576562E1;-7.778282464E-2;-7.180690020E-2;9.764014244E0
1.755767813E1;-8.648814261E-2;-1.027112529E-1;9.756563187E0
1.756959375E1;-8.744582534E-2;-1.137054265E-1;9.777258873E0
1.758150000E1;-7.948749512E-2;-1.183789074E-1;9.777651787E0
1.759343281E1;-1.016769558E-1;-1.123646796E-1;9.755165100E0
1.760532969E1;-1.136575416E-1;-9.776003659E-2;9.763199806E0
1.761723594E1;-1.083424166E-1;-1.020887569E-1;9.779336929E0
1.762914688E1;-1.108706892E-1;-9.653420746E-2;9.773781776E0
1.764105781E1;-9.360370785E-2;-8.739794046E-2;9.770257950E0
1.765297031E1;-1.090319455E-1;-1.156495214E-1;9.768276215E0
1.766488125E1;-9.255026281E-2;-1.118475273E-1;9.780370712E0
1.767679219E1;-1.061589047E-1;-9.708009660E-2;9.758268356E0
1.768870469E1;-9.263645113E-2;-7.852981240E-2;9.725649834E0
1.770061562E1;-8.334694803E-2;-1.022994518E-1;9.772173882E0
1.771252813E1;-9.837296605E-2;-9.662041068E-2;9.767721176E0
1.772444219E1;-1.082274914E-1;-1.079976484E-1;9.734240532E0
1.773635156E1;-6.557239592E-2;-8.670841157E-2;9.744573593E0
1.774826250E1;-1.155824810E-1;-8.012913913E-2;9.753632545E0
1.776017344E1;-1.074900851E-1;-9.646718204E-2;9.775323868E0
1.777208594E1;-1.077678055E-1;-1.187811345E-1;9.765804291E0
1.778399844E1;-1.271799952E-1;-1.203229949E-1;9.778455734E0
1.779590781E1;-1.029315218E-1;-1.099704728E-1;9.763486862E0
1.780782031E1;-1.008341983E-1;-8.205407858E-2;9.765460014E0
1.781973125E1;-1.053257212E-1;-9.709924459E-2;9.747868538E0
1.783164375E1;-1.089265943E-1;-1.008916646E-1;9.746536255E0
1.784355469E1;-1.019451097E-1;-8.819281310E-2;9.788818359E0
1.785547188E1;-9.639056027E-2;-1.247474849E-1;9.773437500E0
1.786737813E1;-9.323979169E-2;-1.049617976E-1;9.765900612E0
1.787928906E1;-9.505938739E-2;-7.780198008E-2;9.747599602E0
1.789120156E1;-1.124412939E-1;-1.163965091E-1;9.762088776E0
1.790311250E1;-1.174691096E-1;-8.451531827E-2;9.735034943E0
1.791502500E1;-9.536584467E-2;-8.486008644E-2;9.767499924E0
1.792693594E1;-1.100853980E-1;-7.581000775E-2;9.785226822E0
1.793884688E1;-1.088021025E-1;-8.390240371E-2;9.753786087E0
1.795075938E1;-1.051341891E-1;-8.870995790E-2;9.784049034E0
1.796267812E1;-1.161283553E-1;-1.125274822E-1;9.763746262E0
1.797458906E1;-9.352709353E-2;-1.188960597E-1;9.789900780E0
1.798649375E1;-1.077103391E-1;-1.148737967E-1;9.801421165E0
1.799840625E1;-9.857407212E-2;-7.779240608E-2;9.776607513E0
1.801031719E1;-1.202751175E-1;-8.475473523E-2;9.765019417E0
1.802222969E1;-9.843999147E-2;-1.011981219E-1;9.755499840E0
1.803414063E1;-9.174580872E-2;-9.066362679E-2;9.742074013E0
1.804605781E1;-1.048660353E-1;-7.586745918E-2;9.772010803E0
1.805796406E1;-8.880573511E-2;-1.240866855E-1;9.734661102E0
1.806987500E1;-9.674490243E-2;-7.404786348E-2;9.749295235E0
1.808178594E1;-1.115219146E-1;-1.048373058E-1;9.759225845E0
1.809370781E1;-1.148259118E-1;-9.586384147E-2;9.791002274E0
1.810561094E1;-9.929233789E-2;-5.014416203E-2;9.751430511E0
1.811752188E1;-9.413043410E-2;-7.848193496E-2;9.769788742E0
1.812943281E1;-1.074421927E-1;-9.459970146E-2;9.786653519E0
1.814134531E1;-1.027974486E-1;-7.881712168E-2;9.753786087E0
1.815325781E1;-9.721416235E-2;-8.365340531E-2;9.737629890E0
1.816516719E1;-1.034007818E-1;-1.249869093E-1;9.779270172E0
1.817707969E1;-1.001159400E-1;-7.712202519E-2;9.791259766E0
1.818899063E1;-1.146535352E-1;-7.765832543E-2;9.769147873E0
1.820090938E1;-1.183214486E-1;-9.024225175E-2;9.762088776E0
1.821281406E1;-8.220730722E-2;-7.357860357E-2;9.778867722E0
1.822472500E1;-9.905291349E-2;-7.939173281E-2;9.796441078E0
1.823663750E1;-1.125179082E-1;-1.245176420E-1;9.774319649E0
1.824854844E1;-1.084094569E-1;-1.256189793E-1;9.779748917E0
1.826046094E1;-1.244218722E-1;-8.075163513E-2;9.768458366E0
1.827237188E1;-9.874644876E-2;-7.716032863E-2;9.787669182E0
1.828428281E1;-1.037934348E-1;-8.129751682E-2;9.765211105E0
1.829619531E1;-1.081700400E-1;-9.322063625E-2;9.773044586E0
1.830810625E1;-1.141076535E-1;-9.214803576E-2;9.749265671E0
1.832001875E1;-1.072506532E-1;-1.005085930E-1;9.738396645E0
1.833193594E1;-9.760680795E-2;-8.938033879E-2;9.770162582E0
1.834384063E1;-1.274864525E-1;-9.601707011E-2;9.761198044E0
1.835575312E1;-7.895119488E-2;-9.264602512E-2;9.781080246E0
1.836766406E1;-9.012732655E-2;-9.805691987E-2;9.788827896E0
1.837957500E1;-1.140023097E-1;-7.679641992E-2;9.765670776E0
1.839148750E1;-1.252359003E-1;-9.310571104E-2;9.773801804E0
1.840339844E1;-1.033720523E-1;-7.244853675E-2;9.772882462E0
1.841531406E1;-1.051533371E-1;-8.684248477E-2;9.763124466E0
1.842722188E1;-9.087432176E-2;-1.017056853E-1;9.746728897E0
1.843913438E1;-1.179766878E-1;-1.050479934E-1;9.757396698E0
1.845104844E1;-1.110047698E-1;-9.699389338E-2;9.745751381E0
1.846295781E1;-1.286931336E-1;-1.052395329E-1;9.749457359E0
1.847486875E1;-1.090894118E-1;-1.065898612E-1;9.757387161E0
1.848678125E1;-8.599015325E-2;-1.000967845E-1;9.755471230E0
1.849870000E1;-9.469546378E-2;-8.966764063E-2;9.764981270E0
1.851060312E1;-1.214722171E-1;-8.226477355E-2;9.758238792E0
1.852251562E1;-1.056513265E-1;-6.074568629E-2;9.746641159E0
1.853442656E1;-1.186087504E-1;-8.078036457E-2;9.765106201E0
1.854633906E1;-9.908164293E-2;-6.309200078E-2;9.753776550E0
1.855825000E1;-9.730993956E-2;-9.124781936E-2;9.759024620E0
1.857016250E1;-1.049330756E-1;-1.147301495E-1;9.767778397E0
1.858207344E1;-1.183022931E-1;-9.179369360E-2;9.765469551E0
1.859398438E1;-1.025484502E-1;-6.890513003E-2;9.750539780E0
1.860589688E1;-8.829815686E-2;-8.127836138E-2;9.785686493E0
1.861781563E1;-7.630799711E-2;-8.376832306E-2;9.769741058E0
1.862972031E1;-9.623733163E-2;-9.891884029E-2;9.793233871E0
1.864163125E1;-1.076050028E-1;-8.624871820E-2;9.769530296E0
1.865354219E1;-1.011598110E-1;-8.412267268E-2;9.779183388E0
1.866545469E1;-1.286069304E-1;-9.862195700E-2;9.766369820E0
1.867737031E1;-7.764875144E-2;-8.065586537E-2;9.742715836E0
1.868927812E1;-1.162432805E-1;-9.527007490E-2;9.766264915E0
1.870118906E1;-9.546160698E-2;-8.822154254E-2;9.717107773E0
1.871310156E1;-7.713159919E-2;-7.942045480E-2;9.765019417E0
1.872501250E1;-1.082274914E-1;-8.192000538E-2;9.795407295E0
1.873692500E1;-1.094820574E-1;-6.162675098E-2;9.745827675E0
1.874883594E1;-1.154867113E-1;-8.909302950E-2;9.775401115E0
1.876075625E1;-8.722555637E-2;-8.771397173E-2;9.758287430E0
1.877265938E1;-1.171339229E-1;-7.364564389E-2;9.752340317E0
1.878457031E1;-1.151132211E-1;-9.088389575E-2;9.761486053E0
1.879648750E1;-1.161570922E-1;-8.447701484E-2;9.755816460E0
1.880839375E1;-1.069058925E-1;-1.073176935E-1;9.773218155E0
1.882030469E1;-8.667010814E-2;-8.903557807E-2;9.780793190E0
1.883221719E1;-1.044733897E-1;-9.165003896E-2;9.774088860E0
1.884412812E1;-9.800904244E-2;-1.021557972E-1;9.769061089E0
1.885603906E1;-1.112250388E-1;-9.049125016E-2;9.725946426E0
1.886795156E1;-9.167876840E-2;-8.829815686E-2;9.782258034E0
1.887986250E1;-9.388143569E-2;-1.120869443E-1;9.792102814E0
1.889177500E1;-1.041286215E-1;-9.929233789E-2;9.761590958E0
1.890368594E1;-9.733866155E-2;-9.644801915E-2;9.733521461E0
1.891559844E1;-1.255998164E-1;-9.394846857E-2;9.775707245E0
1.892751094E1;-1.062834039E-1;-8.163269609E-2;9.753469467E0
1.893942031E1;-1.063504443E-1;-7.398083806E-2;9.737956047E0
1.895133281E1;-1.174212247E-1;-7.478528470E-2;9.769376755E0
1.896324375E1;-1.267681867E-1;-7.637502998E-2;9.747330666E0
1.897516250E1;-1.113782674E-1;-9.733866155E-2;9.794315338E0
1.898706719E1;-1.274002641E-1;-7.516835630E-2;9.764426231E0
1.899898750E1;-1.036976650E-1;-8.731174469E-2;9.752551079E0
1.901089063E1;-1.128243655E-1;-9.930191189E-2;9.799860001E0
1.902280156E1;-1.209454983E-1;-8.397901803E-2;9.757329941E0
1.903471406E1;-1.166742370E-1;-6.657795608E-2;9.755242348E0
1.904662500E1;-1.257338971E-1;-5.974011868E-2;9.774251938E0
1.905853750E1;-1.047702655E-1;-5.177221820E-2;9.749639511E0
1.907044844E1;-1.191259027E-1;-6.603208184E-2;9.787621498E0
1.908235938E1;-1.003840864E-1;-7.577169687E-2;9.742830276E0
1.909427813E1;-1.036114767E-1;-7.287950069E-2;9.738070488E0
1.910618438E1;-1.142704636E-1;-8.087613434E-2;9.778992653E0
1.911809531E1;-9.708967060E-2;-1.017248407E-1;9.769970894E0
1.913000625E1;-1.155345961E-1;-6.952761859E-2;9.777354240E0
1.914191875E1;-1.279365569E-1;-8.390240371E-2;9.756247520E0
1.915382969E1;-1.248815581E-1;-9.317275137E-2;9.767778397E0
1.916574062E1;-1.286931336E-1;-5.210740492E-2;9.783637047E0
1.917765313E1;-1.119624451E-1;-2.407609113E-2;9.739162445E0
1.918956406E1;-1.117326021E-1;-7.819462568E-2;9.755710602E0
1.920147656E1;-1.054406464E-1;-5.987419561E-2;9.758075714E0
1.921338750E1;-1.196143180E-1;-8.725428581E-2;9.745176315E0
1.922529844E1;-1.321216226E-1;-5.641696975E-2;9.783588409E0
1.923721094E1;-1.038796231E-1;-5.407065153E-2;9.732965469E0
1.924912188E1;-1.233205423E-1;-8.426631987E-2;9.767375946E0
1.926103438E1;-1.020696089E-1;-1.178713366E-1;9.784087181E0
1.927294531E1;-1.314129531E-1;-7.016926259E-2;9.779404640E0
1.928486406E1;-1.126807109E-1;-5.053680763E-2;9.783885956E0
1.929678594E1;-1.247953698E-1;-1.038221568E-1;9.756160736E0
1.930867969E1;-1.142034233E-1;-7.892246544E-2;9.751928329E0
1.932059219E1;-1.139065400E-1;-7.128017396E-2;9.821235657E0
1.933250938E1;-8.385452628E-2;-8.342356235E-2;9.809264183E0
1.934442031E1;-1.004319787E-1;-6.559155136E-2;9.771389008E0
1.935632656E1;-9.845915437E-2;-7.266880572E-2;9.804965019E0
1.936823750E1;-1.156686693E-1;-2.395159379E-2;9.762310028E0
1.938014844E1;-9.629479051E-2;-9.009859711E-2;9.787544250E0
1.939206719E1;-1.380688101E-1;-5.144660547E-2;9.733818054E0
1.940397969E1;-1.250826716E-1;-9.732908756E-2;9.738319397E0
1.941588438E1;-1.404342949E-1;-1.085914150E-1;9.752474785E0
1.942779531E1;-1.067622453E-1;-1.068484336E-1;9.765421867E0
1.943970781E1;-7.675810903E-2;-1.158123240E-1;9.776933670E0
1.945161875E1;-8.031110466E-2;-8.682333678E-2;9.802742958E0
1.946353125E1;-9.564357251E-2;-1.009108126E-1;9.762127876E0
1.947544219E1;-1.220468283E-1;-9.450393170E-2;9.711332321E0
1.948735781E1;-1.127668992E-1;-7.834785432E-2;9.783532143E0
1.949926562E1;-9.985736012E-2;-8.425674587E-2;9.729901314E0
1.951117656E1;-9.102755040E-2;-9.244491905E-2;9.757444382E0
1.952308906E1;-1.079880744E-1;-1.030272916E-1;9.771963120E0
1.953500000E1;-9.530837834E-2;-8.776185662E-2;9.778428078E0
1.954691250E1;-9.475293010E-2;-9.350794554E-2;9.776578903E0
1.955882344E1;-9.200438112E-2;-1.150174513E-1;9.809284210E0
1.957073594E1;-9.289502352E-2;-9.228210896E-2;9.784527779E0
1.958264688E1;-8.570284396E-2;-8.288726211E-2;9.732047081E0
1.959455781E1;-1.124604419E-1;-9.691727906E-2;9.760652542E0
1.960647031E1;-9.566272050E-2;-6.659711152E-2;9.747159004E0
1.961838125E1;-8.800127357E-2;-1.104205847E-1;9.743443489E0
1.963029375E1;-1.049234942E-1;-8.574114740E-2;9.764770508E0
1.964220469E1;-8.355764300E-2;-1.166359335E-1;9.756908417E0
1.965411563E1;-9.131485224E-2;-9.119035304E-2;9.776531219E0
1.966603281E1;-1.006043553E-1;-6.861782074E-2;9.770335197E0
1.967793906E1;-9.726204723E-2;-9.414958954E-2;9.765661240E0
1.968985625E1;-9.496361762E-2;-1.113782674E-1;9.784126282E0
1.970176250E1;-1.015237272E-1;-7.579084486E-2;9.776578903E0
1.971367344E1;-1.081891879E-1;-1.007863134E-1;9.770803452E0
1.972558594E1;-9.558610618E-2;-8.442912996E-2;9.743692398E0
1.973749688E1;-1.183884889E-1;-8.748412877E-2;9.756055832E0
1.974941406E1;-9.194692224E-2;-7.934384048E-2;9.765843391E0
1.976132344E1;-8.718724549E-2;-9.452308714E-2;9.734537125E0
1.977323125E1;-9.085516632E-2;-1.016769558E-1;9.758067131E0
1.978514375E1;-9.957005829E-2;-1.203229949E-1;9.776119232E0
1.979705469E1;-9.377609193E-2;-1.053831801E-1;9.788042068E0
1.980896875E1;-9.048167616E-2;-1.409418583E-1;9.811601639E0
1.982089531E1;-1.142991856E-1;-1.244410276E-1;9.764876366E0
1.983278906E1;-1.064845100E-1;-9.866026044E-2;9.734345436E0
1.984470156E1;-1.000489071E-1;-6.250781566E-2;9.786231995E0
1.985661250E1;-1.104588956E-1;-9.246407449E-2;9.771187782E0
1.986852500E1;-8.871953934E-2;-1.156016290E-1;9.773505211E0
1.988043906E1;-8.037813753E-2;-1.276492625E-1;9.783359528E0
1.989234688E1;-9.148723632E-2;-1.331942230E-1;9.789593697E0
1.990425938E1;-1.063408628E-1;-9.063490480E-2;9.786079407E0
1.991617031E1;-1.070974246E-1;-9.886137396E-2;9.751124382E0
1.992808125E1;-1.141363829E-1;-1.170285791E-1;9.771809578E0
1.994000312E1;-1.399075836E-1;-6.097552925E-2;9.753919601E0
1.995190469E1;-1.204475015E-1;-5.828444660E-2;9.759167671E0
1.996382188E1;-6.255570054E-2;-8.040686697E-2;9.762319565E0
1.997572969E1;-1.172488481E-1;-1.006043553E-1;9.762290001E0
1.998764688E1;-9.257899225E-2;-9.380482137E-2;9.761044502E0
1.999955156E1;-1.010927707E-1;-7.510131598E-2;9.775334358E0
2.001146406E1;-8.918880671E-2;-9.223423153E-2;9.748739243E0
2.002337500E1;-1.011023447E-1;-1.335868835E-1;9.789220810E0
2.003528594E1;-1.149982959E-1;-1.278982610E-1;9.770210266E0
2.004719844E1;-1.029602513E-1;-1.098651290E-1;9.738032341E0
2.005911406E1;-9.605537355E-2;-1.048851833E-1;9.799696922E0
2.007102188E1;-1.253220886E-1;-9.657251835E-2;9.760106087E0
2.008293281E1;-9.236830473E-2;-6.634811312E-2;9.782459259E0
2.009484531E1;-1.013800725E-1;-5.815994740E-2;9.749208450E0
2.010675625E1;-8.641152829E-2;-7.509174198E-2;9.767011642E0
2.011866875E1;-7.691133767E-2;-1.014566869E-1;9.834920883E0
2.013057969E1;-7.038952410E-2;-1.221138611E-1;9.809973717E0
2.014249062E1;-6.881893426E-2;-1.224107444E-1;9.821264267E0
2.015440312E1;-1.027687117E-1;-1.333474517E-1;9.786634445E0
2.016632031E1;-1.021270677E-1;-1.061684787E-1;9.749333382E0
2.017822656E1;-8.628702909E-2;-9.894756973E-2;9.782871246E0
2.019013750E1;-8.628702909E-2;-8.569326997E-2;9.764847755E0
2.020205156E1;-1.055364087E-1;-1.178521886E-1;9.741383553E0
2.021396094E1;-8.894938231E-2;-8.424717188E-2;9.751420975E0
2.022589531E1;-9.018479288E-2;-8.474516124E-2;9.780362129E0
2.023779219E1;-1.016194969E-1;-1.146439537E-1;9.781616211E0
2.024969531E1;-9.205226600E-2;-7.985141873E-2;9.762931824E0
2.026160625E1;-9.866983443E-2;-7.753382623E-2;9.751047134E0
2.027351875E1;-5.757576227E-2;-1.009203866E-1;9.760777473E0
2.028543594E1;-6.696103513E-2;-1.478467435E-1;9.782123566E0
2.029734062E1;-3.669832274E-2;-1.538801342E-1;9.770699501E0
2.030925312E1;-3.016694076E-2;-1.130158976E-1;9.789200783E0
2.032116406E1;-8.724471554E-3;-1.414781660E-1;9.790934563E0
2.033307656E1;-2.123178169E-2;-1.397639215E-1;9.727612495E0
2.034498906E1;-3.643975034E-2;-1.530660987E-1;9.771541595E0
2.035689844E1;-2.139458619E-2;-1.505952924E-1;9.759063721E0
2.036881094E1;1.171243470E-2;-1.574714333E-1;9.783502579E0
2.038072188E1;6.866570562E-3;-1.469369531E-1;9.773026466E0
2.039263438E1;1.113782637E-2;-1.398022324E-1;9.800406456E0
2.040454531E1;-4.539406672E-2;-1.298519224E-1;9.774912834E0
2.041645781E1;1.393425371E-2;-1.425220370E-1;9.806142807E0
2.042836875E1;-6.804320961E-2;-1.046170369E-1;9.685044289E0
2.044027969E1;-3.282929212E-2;-1.202272326E-1;9.916543961E0
2.045219219E1;-5.610093474E-2;-1.376187205E-1;9.647608757E0
2.046410469E1;-3.779965639E-2;-1.287027150E-1;9.763899803E0
2.047602031E1;-2.415270545E-2;-1.464293897E-1;9.795062065E0
2.048792656E1;-1.107078884E-2;-1.464485377E-1;9.794871330E0
2.049985469E1;-3.937025368E-2;-1.389403045E-1;9.680332184E0
2.051175000E1;-2.952529490E-2;-1.155154407E-1;9.811476707E0
2.052366875E1;-8.226476610E-3;-1.153813675E-1;9.753776550E0
2.053558125E1;-3.312617540E-2;-1.519647688E-1;9.743884087E0
2.054748594E1;-1.002691686E-2;-1.408843994E-1;9.814570427E0
2.055939688E1;-3.662170842E-2;-1.303882301E-1;9.731271744E0
2.057130938E1;-1.713290811E-2;-1.300817728E-1;9.814475060E0
2.058322031E1;-3.073197417E-2;-1.498770267E-1;9.725410461E0
2.059513125E1;-2.559880540E-2;-1.097119004E-1;9.815891266E0
2.060704219E1;-4.812345654E-2;-1.512273550E-1;9.732113838E0
2.061895469E1;-1.020887587E-2;-1.405683756E-1;9.769549370E0
2.063086563E1;-1.651999168E-2;-1.556039602E-1;9.718399048E0
2.064278125E1;-1.180820260E-2;-1.421389580E-1;9.791834831E0
2.065468906E1;-1.415451989E-2;-1.533055305E-1;9.798788071E0
2.066660000E1;-2.262041904E-2;-1.699979007E-1;9.787994385E0
2.067851250E1;-4.480030015E-2;-1.747288406E-1;9.762998581E0
2.069042344E1;-3.936067689E-3;-1.267969161E-1;9.793779373E0
2.070233750E1;-7.209420204E-2;-1.211753413E-1;9.765700340E0
2.071425156E1;-2.769612521E-2;-8.938991278E-2;9.784288406E0
2.072615781E1;-1.065898594E-2;-1.001733989E-1;9.777593613E0
2.073807031E1;-1.742978813E-3;-1.138490811E-1;9.773467064E0
2.074998125E1;-2.460281737E-2;-1.259445846E-1;9.757645607E0
2.076189219E1;-4.912902042E-2;-1.320067048E-1;9.778063774E0
2.077381094E1;-3.884352744E-2;-1.406545490E-1;9.782181740E0
2.078571719E1;-2.623087354E-2;-1.214243323E-1;9.767318726E0
2.079762813E1;-4.117069393E-2;-1.303690672E-1;9.769252777E0
2.080954062E1;-4.087381065E-2;-1.187236682E-1;9.773227692E0
2.082145156E1;-7.062894851E-2;-9.414000809E-2;9.777688980E0
2.083336250E1;-6.061160937E-2;-8.609548956E-2;9.750002861E0
2.084527344E1;-6.547663361E-2;-1.075666994E-1;9.768649101E0
2.085718594E1;-6.721002609E-2;-1.261552721E-1;9.778800964E0
2.086909688E1;-5.619670078E-2;-1.277354509E-1;9.757225037E0
2.088101562E1;-8.202534914E-2;-1.169040799E-1;9.789709091E0
2.089292031E1;-6.966169178E-2;-1.203708872E-1;9.747705460E0
2.090483906E1;-9.019436687E-2;-1.018110365E-1;9.762041092E0
2.091674375E1;-8.033982664E-2;-1.011023447E-1;9.802896500E0
2.092865469E1;-7.762001455E-2;-1.245080680E-1;9.764531136E0
2.094056719E1;-4.906198010E-2;-1.321407706E-1;9.798433304E0
2.095247813E1;-5.111141875E-2;-1.408077776E-1;9.776626587E0
2.096439062E1;-6.719087809E-2;-1.128243655E-1;9.756736755E0
2.097630156E1;-6.012319028E-2;-1.105833873E-1;9.767184258E0
2.098821406E1;-6.297708303E-2;-8.295430243E-2;9.754849434E0
2.100013281E1;-9.506896138E-2;-9.265560657E-2;9.772336960E0
2.101203906E1;-6.217262894E-2;-8.570284396E-2;9.747139931E0
2.102394844E1;-7.151001692E-2;-1.023760661E-1;9.781558990E0
2.103585938E1;-4.164953157E-2;-1.236365736E-1;9.791231155E0
2.104777188E1;-4.721365869E-2;-1.053831801E-1;9.753240585E0
2.105968438E1;-6.394433975E-2;-1.002308577E-1;9.758000374E0
2.107160156E1;-6.045838073E-2;-9.857407212E-2;9.771349907E0
2.108350625E1;-6.212474406E-2;-9.407297522E-2;9.744391441E0
2.109541875E1;-8.227434754E-2;-1.174403876E-1;9.757157326E0
2.110732969E1;-4.250187054E-2;-6.513186544E-2;9.782191277E0
2.111924062E1;-5.317043141E-2;-9.930191189E-2;9.770545959E0
2.113115312E1;-7.432559878E-2;-1.098363921E-1;9.813076019E0
2.114306406E1;-8.682333678E-2;-9.011775255E-2;9.763353348E0
2.115497500E1;-4.842991382E-2;-1.155537516E-1;9.763698578E0
2.116688750E1;-5.704903975E-2;-1.181969494E-1;9.782966614E0
2.117880156E1;-3.859453276E-2;-9.885179996E-2;9.802091599E0
2.119071094E1;-5.537309498E-2;-1.011215076E-1;9.736797333E0
2.120262188E1;-5.527732894E-2;-9.590214491E-2;9.732630730E0
2.121453438E1;-5.601474270E-2;-1.120486408E-1;9.729193687E0
2.122644531E1;-4.181233793E-2;-1.304648370E-1;9.762961388E0
2.123835781E1;-5.800671875E-2;-8.582733572E-2;9.769424438E0
2.125027656E1;-3.738785535E-2;-1.210699901E-1;9.774204254E0
2.126217969E1;-5.137956887E-2;-1.156782433E-1;9.750271797E0
2.127409219E1;-5.265328288E-2;-1.099513173E-1;9.761419296E0
2.128600312E1;-4.634216800E-2;-1.008725017E-1;9.745664597E0
2.129791875E1;-5.647442862E-2;-1.340752989E-1;9.747235298E0
2.130983125E1;-3.715800866E-2;-1.318726391E-1;9.785762787E0
2.132173906E1;-5.850471184E-2;-1.328111589E-1;9.802129745E0
2.133365000E1;-4.348828271E-2;-1.231577396E-1;9.792619705E0
2.134556094E1;-5.286397040E-2;-1.199782342E-1;9.762893677E0
2.135747344E1;-6.187574938E-2;-1.372835189E-1;9.826751709E0
2.136939375E1;-3.934152052E-2;-1.051150262E-1;9.779107094E0
2.138129531E1;-3.419877589E-2;-1.219414845E-1;9.816092491E0
2.139320781E1;-2.110728249E-2;-1.212232187E-1;9.789173126E0
2.140511875E1;-2.162442915E-2;-1.246421412E-1;9.773140907E0
2.141702969E1;-2.275449410E-2;-1.101811603E-1;9.782679558E0
2.142894219E1;-4.627513140E-2;-1.144524142E-1;9.766369820E0
2.144085312E1;-1.932599582E-2;-1.007384360E-1;9.764981270E0
2.145276562E1;-6.220135838E-2;-9.815269709E-2;9.778140068E0
2.146467656E1;-7.572381198E-2;-8.431421220E-2;9.783560753E0
2.147659531E1;-6.819643825E-2;-1.460175812E-1;9.809168816E0
2.148850625E1;-3.344221041E-2;-1.277162880E-1;9.775688171E0
2.150041094E1;-4.143884405E-2;-1.038221568E-1;9.746287346E0
2.151232344E1;-5.786306784E-2;-1.184555218E-1;9.801449776E0
2.152423438E1;-5.892609432E-2;-1.052778363E-1;9.782976151E0
2.153614688E1;-5.921339616E-2;-1.002212837E-1;9.781127930E0
2.154805781E1;-5.572744086E-2;-9.533711523E-2;9.802273750E0
2.155997031E1;-3.870945424E-2;-1.173829213E-1;9.712452888E0
2.157188125E1;-4.662946984E-2;-1.048468798E-1;9.757980347E0
2.158379375E1;-4.326801375E-2;-1.428668052E-1;9.768237114E0
2.159570469E1;-3.102885373E-2;-1.360002309E-1;9.816025734E0
2.160761562E1;-3.200568631E-2;-1.286069304E-1;9.782889366E0
2.161952813E1;-3.107673861E-2;-1.243452579E-1;9.769721985E0
2.163143906E1;-5.927085876E-2;-1.255423576E-1;9.772173882E0
2.164335156E1;-4.768292233E-2;-1.139735803E-1;9.790398598E0
2.165526250E1;-3.031059355E-2;-8.376832306E-2;9.738913536E0
2.166717344E1;-3.959051892E-2;-1.290666163E-1;9.786893845E0
2.167908594E1;-3.215891495E-2;-1.260595024E-1;9.759943962E0
2.169099688E1;-5.160941184E-2;-1.393042356E-1;9.775965691E0
2.170290938E1;-5.231809616E-2;-1.268926859E-1;9.784307480E0
2.171482031E1;-3.992570937E-2;-1.425124705E-1;9.794133186E0
2.172673594E1;-3.339432552E-2;-1.026537940E-1;9.756447792E0
2.173864375E1;-3.993528336E-2;-1.257817894E-1;9.789958000E0
2.175055469E1;-3.996401653E-2;-1.119816080E-1;9.801996231E0
2.176246719E1;-4.831499234E-2;-1.258775443E-1;9.758775711E0
2.177437813E1;-5.845683068E-2;-1.009778529E-1;9.764732361E0
2.178628906E1;-6.184701994E-2;-1.220659763E-1;9.784212112E0
2.179820156E1;-6.822517514E-2;-1.273619533E-1;9.748173714E0
2.181011719E1;-4.647624120E-2;-1.124317124E-1;9.790302277E0
2.182202500E1;-6.163632870E-2;-8.367256075E-2;9.780793190E0
2.183393594E1;-3.855622560E-2;-1.190109774E-1;9.764244080E0
2.184584844E1;-6.482540816E-2;-9.967540950E-2;9.768544197E0
2.185776719E1;-5.813121796E-2;-1.166455075E-1;9.776856422E0
2.186967031E1;-8.277233690E-2;-1.251784414E-1;9.761524200E0
2.188158281E1;-3.683239594E-2;-1.274194121E-1;9.781654358E0
2.189349688E1;-5.295974389E-2;-1.198920459E-1;9.742638588E0
2.190540625E1;-5.768110603E-2;-9.871772677E-2;9.748796463E0
2.191731719E1;-9.308656305E-2;-1.306946874E-1;9.741747856E0
2.192922812E1;-6.042964756E-2;-9.112331271E-2;9.788598061E0
2.194114063E1;-5.337154493E-2;-1.197866946E-1;9.759330750E0
2.195305156E1;-6.127241254E-2;-1.158506349E-1;9.763210297E0
2.196498750E1;-2.790681459E-2;-9.368990362E-2;9.792974472E0
2.197689219E1;-3.934152052E-2;-1.080742627E-1;9.733589172E0
2.198878750E1;-2.203623205E-2;-1.377240568E-1;9.774328232E0
2.200069844E1;-4.915774986E-2;-1.134181246E-1;9.782362938E0
2.201261094E1;-5.402276665E-2;-1.123934016E-1;9.800185204E0
2.202452188E1;-6.157886982E-2;-1.089553311E-1;9.743999481E0
2.203643281E1;-3.461058065E-2;-1.041765064E-1;9.773820877E0
2.204834531E1;-1.900038496E-2;-9.292376041E-2;9.762367249E0
2.206025625E1;-5.241386592E-2;-1.327249557E-1;9.773035049E0
2.207217344E1;-4.606444016E-2;-1.357129365E-1;9.748327255E0
2.208407969E1;-2.799300663E-2;-1.175553054E-1;9.760863304E0
2.209599063E1;-3.055001423E-2;-1.129775941E-1;9.751335144E0
2.210790312E1;-5.642654374E-2;-1.194419339E-1;9.749974251E0
2.211981406E1;-4.467580467E-2;-1.163965091E-1;9.729978561E0
2.213172656E1;-3.869029880E-2;-1.121156737E-1;9.797916412E0
2.214363750E1;-5.206909776E-2;-1.091947481E-1;9.749734879E0
2.215554844E1;-4.690720141E-2;-8.060798794E-2;9.776252747E0
2.216746094E1;-5.030696467E-2;-9.077855200E-2;9.779653549E0
2.217937188E1;-3.345178440E-2;-1.017918810E-1;9.727296829E0
2.219128281E1;-4.041412380E-3;-1.232918054E-1;9.809523582E0
2.220319531E1;-5.673300102E-2;-1.417080015E-1;9.765776634E0
2.221510625E1;-2.873999812E-2;-1.210125238E-1;9.782382965E0
2.222701875E1;-1.172201149E-2;-1.028070226E-1;9.769482613E0
2.223892969E1;-3.208230063E-2;-1.227938160E-1;9.755692482E0
2.225084844E1;-1.684560440E-2;-1.098938584E-1;9.780917168E0
2.226275625E1;-4.712746665E-2;-1.079976484E-1;9.758211136E0
2.227466406E1;-5.871539935E-2;-9.887095541E-2;9.766561508E0
2.228657969E1;-4.549941048E-2;-1.079689190E-1;9.807799339E0
2.229848750E1;-1.704671606E-2;-1.232535020E-1;9.742044449E0
2.231040156E1;-2.720770799E-2;-1.068580076E-1;9.768533707E0
2.232231406E1;-3.733039647E-2;-1.178042963E-1;9.776895523E0
2.233422188E1;-1.428859588E-2;-1.205241159E-1;9.760662079E0
2.234613438E1;-4.242525622E-2;-1.034582406E-1;9.775017738E0
2.235804531E1;-3.168965504E-2;-9.457097203E-2;9.780917168E0
2.236996563E1;-5.758533999E-2;-9.130527824E-2;9.716753006E0
2.238187812E1;-4.421611875E-2;-1.011789590E-1;9.770315170E0
2.239377969E1;-3.623863682E-2;-1.135521978E-1;9.760097504E0
2.240569219E1;-2.233311348E-2;-1.149312556E-1;9.763649940E0
2.241760313E1;-5.226063356E-2;-1.191259027E-1;9.786778450E0
2.242952031E1;-2.496673539E-2;-1.532384753E-1;9.774500847E0
2.244142969E1;-3.265690990E-3;-1.239526123E-1;9.739488602E0
2.245333906E1;-2.274491638E-2;-9.354624897E-2;9.832852364E0
2.246525000E1;-1.257434767E-2;-1.019451097E-1;9.745263100E0
2.247716250E1;-3.536714986E-2;-1.062067896E-1;9.734115601E0
2.248907656E1;-3.914040700E-2;-1.159847081E-1;9.803413391E0
2.250098906E1;-3.426581621E-2;-1.160613224E-1;9.747694969E0
2.251289688E1;-3.693774343E-2;-1.277354509E-1;9.784632683E0
2.252480781E1;-3.511814773E-2;-1.065707058E-1;9.797054291E0
2.253672031E1;-3.062662855E-2;-9.961794317E-2;9.777680397E0
2.254863125E1;-5.514325202E-2;-1.198058575E-1;9.750941277E0
2.256054375E1;-4.808514938E-2;-1.234929189E-1;9.781060219E0
2.257245469E1;-5.753745511E-2;-1.219702139E-1;9.790934563E0
2.258436562E1;-5.186798424E-2;-1.317768544E-1;9.756573677E0
2.259627812E1;-8.168058842E-2;-9.479123354E-2;9.782199860E0
2.260818906E1;-9.115204960E-2;-9.435070306E-2;9.755902290E0
2.262010625E1;-4.596867412E-2;-1.033624709E-1;9.763612747E0
2.263201250E1;-5.082411319E-2;-1.140693426E-1;9.782670021E0
2.264392344E1;-6.510313600E-2;-1.071836278E-1;9.794803619E0
2.265583594E1;-6.336015463E-2;-1.054980978E-1;9.751420975E0
2.266774688E1;-4.400542751E-2;-8.604760468E-2;9.745971680E0
2.267965938E1;-7.676768303E-2;-7.697837055E-2;9.787391663E0
2.269157031E1;-6.534255296E-2;-1.015333012E-1;9.782373428E0
2.270348125E1;-7.324341685E-2;-1.121827140E-1;9.751784325E0
2.271539375E1;-6.836882234E-2;-9.238746017E-2;9.741078377E0
2.272730469E1;-5.080495775E-2;-6.621403992E-2;9.773925781E0
2.273921719E1;-3.862326220E-2;-8.792465925E-2;9.752483368E0
2.275112812E1;-6.639600545E-2;-7.603985071E-2;9.743002892E0
2.276303906E1;-5.653189123E-2;-9.011775255E-2;9.780926704E0
2.277495156E1;-6.985322386E-2;-1.095969751E-1;9.818401337E0
2.278686875E1;-8.007168025E-2;-8.051221818E-2;9.772422791E0
2.279877500E1;-5.483679473E-2;-1.066377386E-1;9.794927597E0
2.281069219E1;-7.092583179E-2;-8.550173044E-2;9.735685349E0
2.282259844E1;-7.238151133E-2;-8.734047413E-2;9.794448853E0
2.283450938E1;-5.745126307E-2;-8.731174469E-2;9.779173851E0
2.284642656E1;-5.966350436E-2;-8.515696973E-2;9.790810585E0
2.285833281E1;-8.415139467E-2;-8.131666481E-2;9.775409698E0
2.287024375E1;-5.091030523E-2;-9.847830236E-2;9.789086342E0
2.288215469E1;-6.483498216E-2;-1.036210507E-1;9.744008064E0
2.289406719E1;-9.883265197E-2;-1.115985289E-1;9.794114113E0
2.290598594E1;-5.165729672E-2;-7.504386455E-2;9.766878128E0
2.291789063E1;-6.745903194E-2;-9.808565676E-2;9.769147873E0
2.292980156E1;-7.069598883E-2;-8.233180642E-2;9.780898094E0
2.294171250E1;-6.855078042E-2;-1.095586717E-1;9.787304878E0
2.295362500E1;-7.733272016E-2;-9.562440962E-2;9.796259880E0
2.296554531E1;-7.323384285E-2;-1.028070226E-1;9.795052528E0
2.297744844E1;-7.051403075E-2;-9.999144077E-2;9.782574654E0
2.298935938E1;-7.346368581E-2;-1.219893619E-1;9.739210129E0
2.300127188E1;-6.607996672E-2;-7.612603903E-2;9.755250931E0
2.301318281E1;-6.294835359E-2;-6.665457040E-2;9.747810364E0
2.302509531E1;-7.357860357E-2;-1.051246077E-1;9.763391495E0
2.303700625E1;-9.292376041E-2;-1.027304083E-1;9.782689095E0
2.304891875E1;-1.209550723E-1;-1.027878672E-1;9.763870239E0
2.306082969E1;-4.886086658E-2;-7.736144215E-2;9.781195641E0
2.307274062E1;-8.922711015E-2;-1.164539754E-1;9.758420944E0
2.308465313E1;-9.730035067E-2;-1.074134707E-1;9.767336845E0
2.309656406E1;-1.001925543E-1;-1.216733307E-1;9.791997910E0
2.310847656E1;-9.517430514E-2;-1.078348458E-1;9.779126167E0
2.312038750E1;-9.487742931E-2;-8.303091675E-2;9.775812149E0
2.313229844E1;-6.298665702E-2;-1.193270087E-1;9.790015221E0
2.314421719E1;-1.070495471E-1;-8.105809242E-2;9.771714211E0
2.315612656E1;-8.356721699E-2;-1.007096991E-1;9.812684059E0
2.316803438E1;-8.728302270E-2;-7.989929616E-2;9.762194633E0
2.317994531E1;-8.946652710E-2;-1.105642319E-1;9.757779121E0
2.319185625E1;-1.048181504E-1;-1.165210083E-1;9.793367386E0
2.320376875E1;-1.073368564E-1;-1.066856310E-1;9.771167755E0
2.321567969E1;-8.674672246E-2;-1.028549075E-1;9.779663086E0
2.322759219E1;-8.800127357E-2;-1.093384027E-1;9.793107986E0
2.323950313E1;-7.774451375E-2;-1.091851741E-1;9.783532143E0
2.325141406E1;-1.038125828E-1;-9.357497841E-2;9.749046326E0
2.326333281E1;-5.998911709E-2;-8.896853775E-2;9.745933533E0
2.327523750E1;-8.959102631E-2;-8.752243966E-2;9.779480934E0
2.328715625E1;-9.221507609E-2;-9.585425258E-2;9.771791458E0
2.329906094E1;-7.892246544E-2;-7.192181796E-2;9.764971733E0
2.331097188E1;-1.083424166E-1;-1.151132211E-1;9.758717537E0
2.332288438E1;-9.501149505E-2;-8.886318654E-2;9.771886826E0
2.333480312E1;-8.783847094E-2;-1.187236682E-1;9.795176506E0
2.334672656E1;-9.885179996E-2;-1.174786910E-1;9.757003784E0
2.335861875E1;-7.641334087E-2;-8.871953934E-2;9.777163506E0
2.337052969E1;-8.729259670E-2;-7.959283888E-2;9.754570961E0
2.338244844E1;-9.989567101E-2;-1.043393090E-1;9.718179703E0
2.339435313E1;-9.010817856E-2;-9.224380553E-2;9.779644012E0
2.340626563E1;-9.390059114E-2;-1.046170369E-1;9.748509407E0
2.341817656E1;-8.629661053E-2;-1.088212579E-1;9.788617134E0
2.343008750E1;-8.960060030E-2;-1.232343540E-1;9.787678719E0
2.344200000E1;-8.287768811E-2;-1.180437207E-1;9.813632011E0
2.345391094E1;-8.466854692E-2;-1.074613482E-1;9.764865875E0
2.346582344E1;-9.845915437E-2;-1.009203866E-1;9.750864983E0
2.347773438E1;-5.664681271E-2;-1.076816171E-1;9.749217987E0
2.348964688E1;-7.751467079E-2;-1.131116673E-1;9.799228668E0
2.350156250E1;-6.653965265E-2;-8.746497333E-2;9.766762733E0
2.351347031E1;-6.786125153E-2;-7.903738320E-2;9.757329941E0
2.352538125E1;-7.913315296E-2;-9.842084348E-2;9.804514885E0
2.353729844E1;-7.157705724E-2;-7.372225821E-2;9.781089783E0
2.354920469E1;-8.116343617E-2;-8.275318891E-2;9.790484428E0
2.356111875E1;-8.617210388E-2;-1.024239510E-1;9.794735909E0
2.357303438E1;-7.774451375E-2;-1.190301254E-1;9.751698494E0
2.358493906E1;-7.136636227E-2;-8.930372447E-2;9.750826836E0
2.359685156E1;-8.080909401E-2;-9.292376041E-2;9.811898232E0
2.360876250E1;-1.014758423E-1;-9.610325843E-2;9.760460854E0
2.362067344E1;-8.524315804E-2;-1.145290285E-1;9.772768021E0
2.363259844E1;-8.211154491E-2;-9.255983680E-2;9.770918846E0
2.364449688E1;-5.603389814E-2;-1.001255214E-1;9.751727104E0
2.365640938E1;-9.126696736E-2;-1.119241416E-1;9.749734879E0
2.366832031E1;-9.425493330E-2;-8.510908484E-2;9.759857178E0
2.368023906E1;-8.454405516E-2;-1.060535610E-1;9.743730545E0
2.369214375E1;-7.894162089E-2;-1.029506773E-1;9.773485184E0
2.370406406E1;-7.955453545E-2;-9.410169721E-2;9.780265808E0
2.371596719E1;-8.723513037E-2;-1.081029996E-1;9.759695053E0
2.372787812E1;-6.447105855E-2;-1.198824719E-1;9.762166023E0
2.373979219E1;-8.040686697E-2;-1.132936254E-1;9.755721092E0
2.375170156E1;-7.663360238E-2;-1.026920974E-1;9.764397621E0
2.376361875E1;-9.071151912E-2;-1.146247983E-1;9.747111320E0
2.377552500E1;-9.486784786E-2;-1.231194288E-1;9.750204086E0
2.378743594E1;-6.270892918E-2;-1.022707224E-1;9.771522522E0
2.379935000E1;-6.766971946E-2;-1.297657341E-1;9.800932884E0
2.381125938E1;-9.996270388E-2;-1.312118173E-1;9.729297638E0
2.382317031E1;-6.633853912E-2;-1.384327412E-1;9.752186775E0
2.383508281E1;-6.408798695E-2;-1.276013702E-1;9.760747910E0
2.384699375E1;-9.987651557E-2;-8.059840649E-2;9.781060219E0
2.385891094E1;-7.999506593E-2;-1.238281131E-1;9.788234711E0
2.387081719E1;-6.240247190E-2;-1.172584221E-1;9.761322975E0
2.388272812E1;-9.303867817E-2;-1.218935996E-1;9.757826805E0
2.389464062E1;-6.931692362E-2;-1.267777681E-1;9.778504372E0
2.390655156E1;-7.448840141E-2;-1.128626689E-1;9.766380310E0
2.391846250E1;-6.772717834E-2;-1.282621771E-1;9.790733337E0
2.393037500E1;-7.198885083E-2;-1.377049088E-1;9.767796516E0
2.394228750E1;-8.905472606E-2;-1.253316700E-1;9.762290001E0
2.395419844E1;-7.226658612E-2;-1.247283295E-1;9.760298729E0
2.396611094E1;-7.521624118E-2;-1.195089743E-1;9.778168678E0
2.397802188E1;-8.156566322E-2;-1.141363829E-1;9.793625832E0
2.398993281E1;-7.327214628E-2;-1.249102950E-1;9.750941277E0
2.400184375E1;-5.801629648E-2;-1.250156313E-1;9.757597923E0
2.401375625E1;-7.678683102E-2;-1.229949296E-1;9.769808769E0
2.402566719E1;-6.235458702E-2;-1.180916056E-1;9.738693237E0
2.403758438E1;-5.198290572E-2;-1.294209659E-1;9.792448044E0
2.404949062E1;-7.249642909E-2;-1.442745924E-1;9.771474838E0
2.406140313E1;-6.830178946E-2;-1.219797879E-1;9.799343109E0
2.407331406E1;-7.054275274E-2;-1.258009374E-1;9.805845261E0
